Timestamp (microseconds),Accel X (g),Accel Y (g),Accel Z (g)
1682104737009674,0.48322270542458234,-0.015686274509803866,0.9873807888914321
1682104737025670,0.46088349736781886,0.021789883268482413,0.9582055390249486
1682104737041666,0.43817807278553467,0.03204394598306237,0.9702906843671322
1682104737057662,0.42902265964751685,0.0604867627985044,0.9291523613336388
1682104737073658,0.4363469901579311,0.05999847409781012,0.9090104524299996
1682104737089654,0.428412298771649,0.07415884641794435,0.8590829327840082
1682104737105650,0.42023346303501974,0.06976424811169579,0.8927748531319146
1682104737121646,0.4003356984817277,0.1100480659189742,0.8859388113221947
1682104737137642,0.42194247348744973,0.11261158159761919,0.8908216983291375
1682104737153638,0.41339742122529977,0.1062638284885935,0.8878919661249718
1682104737169633,0.41559472037842404,0.10894941634241206,0.8909437705043111
1682104737185629,0.42560463874265686,0.12713817044327502,0.8782482642862597
1682104737201625,0.4157167925535976,0.1267719539177543,0.8653086137178603
1682104737217621,0.40338750286106695,0.11786068513008274,0.8773937590600447
1682104737233617,0.4060730907148855,0.11566338597695847,0.8401617456321047
1682104737249613,0.39960326543068625,0.10894941634241206,0.8112306401159683
1682104737265609,0.39496452277409055,0.09808499275196425,0.8344243533989468
1682104737281605,0.4002136263065541,0.07318226901655578,0.8552986953536275
1682104737297601,0.38959334706645343,0.07489127946898577,0.8626230258640417
1682104737313597,0.38532082093537845,0.07147325856412579,0.8896009765774018
1682104737329589,0.3814145113298242,0.06402685587853796,0.870801861600671
1682104737345585,0.37726405737392277,0.049378194857709445,0.8693369954985881
1682104737361581,0.36054016937514266,0.035217822537575216,0.8887464713511868
1682104737377577,0.3591973754482334,0.04779125658045302,0.9333028152895402
1682104737393573,0.38580910963607273,0.05658045319295013,0.9264667734798202
1682104737409569,0.4010681315327691,0.07318226901655578,0.9181658655680174
1682104737425565,0.42645914396887186,0.08368047608148288,0.8925307087815675
1682104737441561,0.4501411459525446,0.08416876478217716,0.9208514534218359
1682104737457557,0.4511177233539332,0.09539940489814569,0.9076676585030903
1682104737473553,0.4452582589456018,0.10724040588998207,0.9363546196688795
1682104737489549,0.44037537193865894,0.08673228046082215,0.9352559700923173
1682104737505545,0.43659113450827824,0.09308003356984784,0.9185320820935381
1682104737521541,0.44965285725185034,0.09112687876707071,0.9702906843671322
1682104737537537,0.45429159990844603,0.07489127946898577,1.008743419546807
1682104737553533,0.45038529030289176,0.041565575646600905,1.0045929655909056
1682104737569529,0.3704280155642019,0.16815442130159486,1.1391165026321817
1682104737585525,0.34503700312809915,0.17364766918440555,1.147295338368811
1682104737601521,0.35602349889372054,0.15558098725871705,1.0595254444190125
1682104737617517,0.34467078660257844,0.1537499046311135,1.064774547951476
1682104737633513,0.36481269550621764,0.13531700617990428,1.0238803692683298
1682104737649414,0.3645685511558705,0.1394674601358057,0.9716334782940415
1682104737665409,0.39459830624856984,0.14520485236896352,1.024124513618677
1682104737681405,0.38483253223468417,0.15143053330281564,0.934767681391623
1682104737697400,0.3875181200885027,0.14251926451514496,0.9519798580910965
1682104737713396,0.388860914015412,0.13678187228198713,0.9505149919890137
1682104737729391,0.3779964904249642,0.11053635461966849,0.9461203936827651
1682104737745387,0.37775234607461705,0.09515526054779855,0.9529564354924851
1682104737761382,0.3747005416952769,0.09466697184710426,0.9076676585030903
1682104737777378,0.38239108873121275,0.11358815899900776,0.8920424200808732
1682104737793373,0.39923704890516554,0.09161516746776499,0.8942397192339975
1682104737809369,0.41181048294804334,0.09320210574502141,0.8858167391470211
1682104737825364,0.3793392843518735,0.09002822919050857,0.9269550621805145
1682104737841360,0.383733882658122,0.09442282749675712,0.9591821164263372
1682104737857355,0.37824063477531134,0.08245975432974717,0.9934843976501107
1682104737873351,0.36639963378347407,0.06280613412680225,1.027542534523537
1682104737889346,0.3716487373159376,0.0567025253681237,1.016433966582742
1682104737905342,0.37409018081940903,0.049378194857709445,0.9920195315480278
1682104737921337,0.3670099946593419,0.023498893720912406,0.9829861905851836
1682104737937333,0.35761043717097696,0.019104295414663852,0.9579613946746015
1682104737953328,0.35797665369649767,0.027649347676813818,0.9745632104982072
1682104737969024,0.34625772487983486,0.02801556420233453,0.9848172732127871
1682104737985019,0.34674601358052914,0.017029068436713146,0.9879911497673
1682104738001013,0.35382619974059626,0.00848401617456318,0.9846952010376135
1682104738017008,0.35297169451438126,0.004455634393835339,0.9403830014496073
1682104738033002,0.34503700312809915,-0.013855191882200302,0.949294270237278
1682104738048997,0.3323414969100478,0.0018921187151903496,0.9358663309681852
1682104738064992,0.3432059205004956,0.00982681010147246,0.9523460746166172
1682104738080986,0.3414969100480656,0.02923628595407024,0.9489280537117573
1682104738096981,0.3461356527046613,0.015320057984283153,0.9479514763103687
1682104738112975,0.34039826047150346,0.019104295414663852,0.946730754558633
1682104738128970,0.34332799267566916,0.02423132677195383,0.9514915693904022
1682104738144964,0.3444266422522313,0.03826962691691449,0.9655298695353629
1682104738160959,0.3687190051117719,0.0567025253681237,0.9831082627603571
1682104738176953,0.37897306782635276,0.08929579613946714,0.9969024185549706
1682104738192948,0.3712825207904169,0.12176699473563701,1.0160677500572213
1682104738208943,0.3556572823681998,0.14032196536202068,1.0012970168612192
1682104738224937,0.3485770962081327,0.1544823376821549,0.9463645380331123
1682104738240932,0.34210727092393345,0.13458457312886285,0.9163347829404138
1682104738256926,0.33246356908522134,0.12494087129014986,0.869947356374456
1682104738272921,0.3258716716258485,0.11322194247348705,0.8549324788281067
1682104738288635,0.30646219577325073,0.10553139543755208,0.8374761577782861
1682104738304628,0.2905928130006865,0.07061875333791079,0.7978027008468755
1682104738320621,0.28412298771648725,0.055970092317082276,0.7670405127031357
1682104738336614,0.27277027542534515,0.022400244144350268,0.7685053788052185
1682104738352607,0.2641031509880216,-0.021789883268482413,0.8177004654001676
1682104738368600,0.2747234302281223,-0.027527275501640247,0.8776379034103918
1682104738384594,0.2893720912489508,-0.041443503471427334,0.9145037003128103
1682104738400587,0.3082932784008543,-0.03546196688792236,0.9629663538567179
1682104738416580,0.34332799267566916,4.272526131074983E-4,0.9855497062638285
1682104738432573,0.3734798199435412,-6.713969634546402E-4,0.9635767147325858
1682104738448566,0.40167849240863696,0.023498893720912406,0.9596704051270315
1682104738464559,0.4057068741893648,0.0499885557335773,1.0108186465247577
1682104738480552,0.4079041733424891,0.07806515602349862,1.0659952697032118
1682104738496545,0.40338750286106695,0.09332417792019498,1.0644083314259554
1682104738512539,0.423285267414359,0.10138094148165067,1.0166781109330891
1682104738528532,0.4299992370489054,0.09613183794918712,1.0117952239261463
1682104738544525,0.4141298542763412,0.08294804303044145,1.0449988555733576
1682104738560518,0.39996948195620696,0.06854352635996008,1.0425574120698862
1682104738576511,0.3876401922636763,0.09051651789120285,1.0487830930037383
1682104738592504,0.36847486076142477,0.10760662241550278,1.048294804303044
1682104738608215,0.3700617990386812,0.10382238498512208,1.0357213702601662
1682104738624207,0.3793392843518735,0.10455481803616351,1.0094758525978484
1682104738640199,0.3812924391546506,0.10821698329137064,0.9948271915770199
1682104738656191,0.3881284809643706,0.11895933470664488,0.9634546425574122
1682104738672184,0.39044785229266843,0.12921339742122573,0.9579613946746015
1682104738688176,0.393133440146487,0.12298771648737272,0.9561303120469979
1682104738704168,0.4003356984817277,0.13141069657435,0.9633325703822386
1682104738720160,0.38825055313954415,0.13336385137712714,0.9953154802777142
1682104738736152,0.38995956359197415,0.1461814297703521,0.9783474479285879
1682104738752144,0.4022888532845048,0.1284809643701843,0.9495384145876251
1682104738768137,0.386297398336767,0.12420843823910843,0.9406271457999544
1682104738784129,0.38690775921263487,0.13116655222400286,0.9301289387350273
1682104738800121,0.38202487220569203,0.14984359502555922,0.9470969710841537
1682104738816113,0.3884946974898913,0.1579003585870149,0.9573510337987337
1682104738832105,0.39032578011749486,0.16241702906843702,0.9676050965133136
1682104738848097,0.38666361486228773,0.18512245365072122,0.9611352712291144
1682104738864090,0.3889829861905856,0.18133821622034052,0.9582055390249486
1682104738880082,0.38788433661402344,0.20172426947432687,0.9253681239032581
1682104738896074,0.4043640802624555,0.20050354772259116,0.9247577630273902
1682104738912066,0.41058976119630763,0.19122606240939977,0.9116960402838181
1682104738927826,0.41815823605706903,0.19085984588387905,0.9179217212176702
1682104738943817,0.4279240100709547,0.1876859693293662,0.8493171587701225
1682104738959808,0.4003356984817277,0.18927290760662263,0.9564965285725187
1682104738975799,0.38580910963607273,0.17376974135957912,0.9258564126039524
1682104738991790,0.38324559395742774,0.18316929884794408,0.9582055390249486
1682104739007782,0.3950865949492641,0.17535667963683554,0.9655298695353629
1682104739023773,0.40546272983901765,0.16473640039673487,0.9243915465018695
1682104739039764,0.39496452277409055,0.15484855420767563,0.9232928969253074
1682104739055755,0.38190280003051846,0.1427634088654921,0.9049820706492717
1682104739071746,0.38287937743190703,0.13739223315785498,0.8849622339208061
1682104739087738,0.37640955214770777,0.13458457312886285,0.8965590905622953
1682104739103729,0.3628595407034405,0.17084000915541342,0.8999771114671553
1682104739119720,0.40289921416037267,0.13629358358129284,0.7610589761196307
1682104739135711,0.3255054551003278,0.17645532921339768,0.9857938506141757
1682104739151703,0.3175707637140457,0.15545891508354348,0.9350118257419702
1682104739167694,0.3285572594796671,0.16693369954985915,0.8758068207827883
1682104739183685,0.3380788891432056,0.20025940337224402,0.9355001144426645
1682104739199676,0.3394216830701149,0.20990310521095612,0.985427634088655
1682104739215667,0.352483405813687,0.22735942626077676,0.9696803234912643
1682104739231659,0.3671320668345155,0.19562066071564832,0.9125505455100331
1682104739247436,0.38324559395742774,0.1931792172121769,0.9448996719310294
1682104739263426,0.4347600518806747,0.2482337682154574,0.8701915007248031
1682104739279417,0.43231860837720326,0.23236438544289317,1.0935835812924388
1682104739295407,0.462836652170596,0.23419546807049674,0.9638208590829329
1682104739311397,0.4822461280231938,0.24542610818646526,0.8876478217746246
1682104739327387,0.45636682688639674,0.2537270160982681,0.9022964827954532
1682104739343378,0.46393530174715814,0.238956282902266,0.8428473334859232
1682104739359368,0.4149843595025562,0.25421530479896237,0.8783703364614333
1682104739375358,0.4093690394445719,0.21490806439307253,0.8373540856031125
1682104739391348,0.41303120469977905,0.2339513237201496,0.8001220721751734
1682104739407339,0.3952086671244377,0.2284580758373389,0.8137941557946133
1682104739423329,0.3917906462195777,0.20416571297779829,0.8744640268558781
1682104739439319,0.3821469443808656,0.24042114900434886,0.9015640497444117
1682104739455309,0.37860685130083205,0.2296787975890746,0.8750743877317468
1682104739471300,0.38947127489127986,0.2516517891203174,0.8333257038223847
1682104739487290,0.3972838941023884,0.2638590066376745,0.8510261692225525
1682104739503280,0.388860914015412,0.2713054093232623,0.8366216525520711
1682104739519271,0.3950865949492641,0.27606622415503157,0.8377203021286332
1682104739535261,0.41339742122529977,0.28961623559929794,0.8180666819256883
1682104739551251,0.4079041733424891,0.2855878538185701,0.8611581597619589
1682104739567016,0.40460822461280266,0.2890058747234301,0.9019302662699324
1682104739583006,0.431830319676509,0.3058518348973829,0.8953383688105596
1682104739598995,0.459418631265736,0.32819104295414636,0.9026626993209739
1682104739614984,0.5033646143282215,0.3486991683833063,0.8886243991760132
1682104739630973,0.5365682459754328,0.35590142671854696,0.919142442969406
1682104739646963,0.5672083619439992,0.36688792248416835,0.8987563897154196
1682104739662952,0.5847867551689934,0.37775234607461705,0.9104753185320824
1682104739678941,0.5822232394903484,0.3855649652857256,0.9290302891584652
1682104739694931,0.5912565804531926,0.394842450598917,0.8655527580682074
1682104739710920,0.6043183031967647,0.3733577477683676,0.789135576409552
1682104739726909,0.566964217593652,0.3947203784237434,0.7487296864271
1682104739742899,0.5514610513466085,0.341374837872892,0.7398184176394293
1682104739758888,0.5467002365148392,0.34418249790188415,0.6561989776455333
1682104739774877,0.46552224002441456,0.3457694361791406,0.6594949263752197
1682104739790866,0.5416952773327228,0.3646906233310441,0.8428473334859232
1682104739806856,0.5126420996414129,0.36847486076142477,0.7282215609979401
1682104739822845,0.5659876401922634,0.797680628671702,0.5965056839856562
1682104739838834,0.4506294346532389,0.3707942320897226,0.8118410009918362
1682104739854824,0.5386434729533836,0.19513237201495404,0.9289082169832916
1682104739870813,0.5189898527504386,0.17071793698023985,0.8915541313801789
1682104739886627,0.42438391699092115,0.2540932326237888,0.9817654688334478
1682104739902616,0.3808041504539563,0.27777523460746156,0.9529564354924851
1682104739918604,0.3980163271534298,0.3246509498741128,0.9292744335088123
1682104739934593,0.4225528343633176,0.3427176317998013,0.8985122453650725
1682104739950582,0.4372014953841461,0.32538338292515423,0.8750743877317468
1682104739966571,0.3889829861905856,0.28168154421301583,0.857984283207446
1682104739982560,0.4476997024490732,0.32941176470588207,0.8402838178072782
1682104739998549,0.46894026092927454,0.3200122072175171,0.7799801632715342
1682104740014537,0.4595407034409096,0.3325856412603949,0.8068360418097198
1682104740030526,0.461982146944381,0.3889829861905856,0.7266346227206837
1682104740046515,0.4762645914396888,0.3279468986037992,0.7661860074769207
1682104740062504,0.4795605401693752,0.34345006485084273,0.787426565957122
1682104740078493,0.5062943465323873,0.3554131380178527,0.7664301518272678
1682104740094482,0.5355916685740443,0.37030594338902834,0.7374990463111315
1682104740110470,0.52484931715877,0.39166857404440414,0.7244373235675594
1682104740126459,0.5130083161669337,0.3976501106279091,0.7364003967345694
1682104740142448,0.5026321812771801,0.37238117036697904,0.7182116426337073
1682104740158437,0.501533531700618,0.3666437781338212,0.686717021438926
1682104740174426,0.48822766460669875,0.35468070496681126,0.6775616083009082
1682104740190415,0.46381322957198456,0.3368581673914699,0.6549782558937975
1682104740206207,0.4829785610742352,0.35138475623712484,0.5984588387884333
1682104740222195,0.40131227588311624,0.4234073395895326,0.6566872663462275
1682104740238183,0.49542992294193944,0.4237735561150533,0.5524376287479971
1682104740254171,0.5893034256504155,0.38202487220569203,0.5836881055924312
1682104740270158,0.47260242618448167,0.4007019150072484,0.5437705043106735
1682104740286146,0.46723125047684455,0.43024338139925256,0.6220187685969325
1682104740302134,0.47992675669489593,0.47394522011139095,0.6839093614099339
1682104740318122,0.36725413900968906,0.5375448233768214,0.6720683604180975
1682104740334110,0.5095902952620737,0.6234836346990154,0.5933318074311433
1682104740350098,0.502388036926833,0.795117112993057,0.34381628137636344
1682104740366086,0.500679026474403,0.5855191882200348,0.7162584878309302
1682104740382074,0.45343709468223103,0.7703364614328221,0.6250705729762727
1682104740398061,0.5150835431448844,0.7503166247043564,0.6770733196002139
1682104740414049,0.4313420309758147,0.6897688258182653,0.603952086671244
1682104740430037,0.3308766308079649,0.8448004882887004,0.3562676432440677
1682104740446025,0.38532082093537845,0.744457160296025,0.42194247348744973
1682104740462013,0.4434271763179982,0.7280994888227665,0.3201342793926907
1682104740478001,0.5221637293049515,0.7112535286488137,0.24310673685816742
1682104740493989,0.4469672693980318,0.8573739223315782,0.3666437781338212
1682104740509976,0.2960860608834972,0.8906996261539639,0.6503395132372018
1682104740525817,0.29010452429999223,1.0153353170061798,0.7267566948958573
1682104740541805,0.22540627145799963,1.011306935225452,0.6558327611200125
1682104740557792,0.3289234760051878,0.9027847714961474,0.7157701991302359
1682104740573780,0.5279011215381093,0.9314717326619366,0.5775844968337527
1682104740589767,0.679026474402991,0.9035172045471889,0.30646219577325073
1682104740605754,0.6570534828717483,0.8510261692225525,0.26935225452048517
1682104740621742,0.5810025177386127,0.8573739223315782,0.6171358815899897
1682104740637729,0.6175020981155104,0.933058670939193,0.6840314335851074
1682104740653717,0.43317311360341826,0.9328145265888459,0.8817883573662932
1682104740669704,0.30609597924773,0.8480964370183868,0.9186541542687117
1682104740685691,0.31732661936369855,0.7954833295185777,0.868238345922026
1682104740701679,0.3784847791256585,0.7704585336079957,0.7639887083237964
1682104740717666,0.4064393072404062,0.7660639353017471,0.6474097810330361
1682104740733654,0.4196231021591519,0.6690165560387582,0.5825894560158691
1682104740749641,0.33405050736247777,0.6575417715724425,0.5773403524834055
1682104740765628,0.272526131074998,0.6259250782024877,0.5397421225299457
1682104740781616,0.3128099488822764,0.6166475928892954,0.43109788662546755
1682104740797603,0.3585870145723655,0.644602121004044,0.5283894102388036
1682104740813591,0.37860685130083205,0.6870832379644467,0.53681239032578
1682104740829578,0.37531090257114563,0.6644998855573361,0.54023041123064
1682104740845428,0.3676203555352098,0.6203097581445025,0.532539864194705
1682104740861415,0.3045090409704736,0.5977264057373919,0.641184100099184
1682104740877402,0.34296177615014845,0.6101777676050961,0.6900129701686124
1682104740893389,0.3671320668345155,0.6421606775005726,0.7793698023956663
1682104740909376,0.45123979552910676,0.6646219577325096,0.6870832379644467
1682104740925363,0.4225528343633176,0.7165026321812773,0.7475089646753643
1682104740941350,0.47064927138170454,0.6222629129472796,0.6640115968566418
1682104740957337,0.4368352788586254,0.5708705271992063,0.7034409094377052
1682104740973323,0.41388570992599405,0.6156710154879068,0.8020752269779505
1682104740989310,0.42682536049439257,0.6416723887998783,0.8565194171053632
1682104741005297,0.42096589608606116,0.6499732967116811,0.8572518501564046
1682104741021284,0.44879835202563534,0.6283665217059591,0.8869153887235832
1682104741037271,0.49164568551155874,0.6638895246814682,0.7970702677958341
1682104741053258,0.5405966277561607,0.6643778133821625,0.7677729457541771
1682104741069245,0.5664759288929577,0.7082017242694745,0.8679942015716788
1682104741085232,0.5513389791714349,0.7165026321812773,0.8976577401388575
1682104741101219,0.5493858243686578,0.687571526665141,0.9116960402838181
1682104741117206,0.5330281528953993,0.6466773479819947,0.9201190203707945
1682104741133193,0.5156939040207522,0.5750209811551077,0.9619897764553293
1682104741149180,0.48493171587701234,0.4791943236438545,1.017288471808957
1682104741165008,0.4564888990615703,0.4418402380407418,1.0166781109330891
1682104741180994,0.43244068055237683,0.3919127183947513,0.9923857480735485
1682104741196980,0.4312199588006411,0.34296177615014845,0.9853055619134814
1682104741212966,0.45209430075532175,0.3314869916838328,0.9177996490424967
1682104741228952,0.4549019607843139,0.3377126726176849,0.794262607766842
1682104741244938,0.4603952086671246,0.3812924391546506,0.7273670557717251
1682104741260924,0.42902265964751685,0.4043640802624555,0.6546120393682768
1682104741276910,0.26984054322117945,0.4148622873273826,0.8102540627145798
1682104741292896,0.25177386129549095,0.39618524452582626,0.866529335469596
1682104741308882,0.16815442130159486,0.3062180514229036,0.940749217975128
1682104741324868,0.13739223315785498,0.16791027695124772,0.9352559700923173
1682104741340854,0.14422827496757495,0.13263141832608571,0.779736018921187
1682104741356840,0.1788967727168691,0.1491111619745178,0.7250476844434273
1682104741372826,0.21905851834897394,0.2153963530937668,0.6768291752498667
1682104741388812,0.1646143282215613,0.18890669108110192,0.694407568474861
1682104741404798,0.1680323491264213,0.18316929884794408,0.7428702220187686
1682104741420784,0.19098191805905262,0.19391165026321833,0.7691157396810864
1682104741436770,0.19134813458457334,0.18707560845349835,0.783154039826047
1682104741452756,0.27777523460746156,0.280216678110933,0.7832761120012206
1682104741468742,0.30182345311665504,0.3523613336385134,0.7655756466010528
1682104741484619,0.31635004196231,0.38959334706645343,0.6243381399252304
1682104741500604,0.2943770504310672,0.3045090409704736,0.6607156481269554
1682104741516590,0.23407339589532317,0.24408331425955598,0.817578393224994
1682104741532575,0.2797283894102387,0.344792858777752,1.0166781109330891
1682104741548561,0.388860914015412,0.48493171587701234,1.0131380178530556
1682104741564546,0.3998474097810334,0.4282902265964754,0.9462424658579387
1682104741580532,0.44574654764629607,0.3976501106279091,0.938185702296483
1682104741596517,0.6001678492408633,0.573800259403372,0.7462882429236286
1682104741612503,1.2647287708857862,1.4903181506065462,0.0394903486686502
1682104741628488,0.47443350881208524,1.465903715571832,0.9279316395819031
1682104741644474,0.1301899748226143,1.1938048371099415,0.8773937590600447
1682104741660459,0.3158617532616157,0.8433356221866175,0.8432135500114439
1682104741676445,0.396551461051347,0.42694743266956614,0.7584954604409857
1682104741692430,0.1334859235523007,0.1167620355535206,0.7897459372854199
1682104741708416,0.18573281452658907,0.19354543373769761,1.0872358281834131
1682104741724401,0.1343404287785157,0.2628824292362859,1.1270313572899981
1682104741740387,0.012146181429770309,0.2667887388418402,1.1442435339894717
1682104741756372,-0.04315251392385733,0.07879758907454004,1.079301136797131
1682104741772358,0.0823376821545736,0.2533607995727474,0.8948500801098653
1682104741788343,0.22442969405661106,0.46515602349889384,0.7426260776684215
1682104741804229,0.31769283588921926,0.5139848935683222,0.651438162813764
1682104741820214,0.3309987029831385,0.7853513389791713,0.7923094529640649
1682104741836199,0.4069275959411005,0.7866941329060806,0.6780498970016025
1682104741852184,0.2726482032501716,0.5515831235217821,0.747875181200885
1682104741868169,0.13128862439917643,0.5553673609521628,1.0911421377889674
1682104741884154,0.034973678187228074,0.5443808651865414,1.1872129396505686
1682104741900139,0.15692378118562633,0.37018387121385476,0.9638208590829329
1682104741916124,0.22882429236285962,0.4986037994964523,0.9669947356374458
1682104741932109,0.2246738384069582,0.5799038681620505,0.9500267032883194
1682104741948094,0.22613870450904106,0.5543907835507742,1.0075226977950713
1682104741964079,0.24090943770504314,0.593698023956664,1.0511024643320361
1682104741980064,0.27692072938124657,0.6363012130922412,0.9085221637293053
1682104741996050,0.22796978713664462,0.6387426565957126,0.9062027924010074
1682104742012035,0.2196688792248418,0.5929655909056226,0.8080567635614555
1682104742028020,0.16729991607537986,0.5144731822690165,0.8172121766994733
1682104742044005,0.07244983596551435,0.5619592584115356,0.749584191653315
1682104742059990,0.08636606393530144,0.6295872434576948,0.9668726634622722
1682104742075975,0.09857328145265853,0.7030746929121845,0.9672388799877929
1682104742091960,0.07244983596551435,0.6353246356908526,0.7614251926451514
1682104742107945,-0.05389486533913157,0.5161821927214465,0.751293202105745
1682104742123809,-0.10418860151064324,0.4476997024490732,0.7893797207598992
1682104742139794,-0.08465705348287189,0.37994964522774133,0.8448004882887004
1682104742155779,0.0689097428854808,0.6262912947280084,0.46295872434576957
1682104742171763,0.18585488670176264,0.644602121004044,0.6286106660563062
1682104742187748,0.055848020141908705,0.581490806439307,0.6988021667811095
1682104742203732,-0.0319218738078888,0.47309071488517596,0.7267566948958573
1682104742219717,-0.050720988784618726,0.5861295490959026,0.7344472419317922
1682104742235701,-0.0018921187151903496,0.6706034943160146,0.7423819333180743
1682104742251686,-0.054627298390172996,0.7162584878309302,0.7779049362935835
1682104742267670,-0.1308003356984817,0.6304417486839098,0.7764400701915006
1682104742283655,-0.12396429388876173,0.6151827267872125,0.7077134355687802
1682104742299639,-0.16241702906843658,0.7541008621347371,0.5966277561608297
1682104742315624,-0.12762645914396886,0.8485847257190811,0.4612497138933396
1682104742331608,-0.14361791409170666,0.9268329900053409,0.3704280155642019
1682104742347593,-0.16998550392919798,1.0663614862287325,0.3985046158541241
1682104742363577,-0.1957427328908219,1.1001754787518117,0.46100556954299243
1682104742379562,-0.3261158159761961,0.9745632104982072,0.6378881513694976
1682104742395547,-0.32806897077897323,0.8920424200808732,0.6568093385214011
1682104742411531,-0.25726710917830165,0.9057145037003131,0.7473868925001907
1682104742427516,-0.22540627145799963,0.7689936675059128,1.0421911955443655
1682104742443420,-0.277653162432288,0.8015869382772562,0.41815823605706903
1682104742459405,-0.20379949645227757,0.606515602349889,0.24420538643472955
1682104742475389,-0.271671625848783,0.34540321965361986,0.4279240100709547
1682104742491374,-0.2368810559243153,0.48664072632944233,0.611642633707179
1682104742507358,-0.12176699473563746,0.6015106431677726,0.5557335774776835
1682104742523343,-0.03973449301899734,0.6863508049134053,0.4599069199664303
1682104742539327,-0.054383154039825854,0.691844052796216,0.47443350881208524
1682104742555312,-0.10443274586099038,0.6845197222858017,0.6295872434576948
1682104742571296,-0.08892957961394687,0.7392080567635615,0.6128633554589147
1682104742587281,-0.09137102311741829,0.7849851224536506,0.7344472419317922
1682104742603265,-0.09112687876707115,0.7648432135500114,0.7819333180743113
1682104742619250,-0.0774547951476312,0.7810788128480963,0.8135500114442662
1682104742635234,-0.10321202410925467,0.7294422827496758,0.9355001144426645
1682104742651219,-0.1433737697413595,0.6232394903486682,0.9945830472266728
1682104742667204,-0.12079041733424889,0.6516823071641111,0.8620126649881739
1682104742683188,-0.10577553978789966,0.7648432135500114,0.8758068207827883
1682104742699173,-0.08368047608148332,0.787426565957122,0.9027847714961474
1682104742715157,-0.10174715800717182,0.7595941100175478,0.7931639581902798
1682104742731142,-0.12945754177157243,0.7101548790722516,0.8128175783932248
1682104742747126,-0.14410620279240094,0.6712138551918825,0.8360112916762032
1682104742763000,-0.14813458457312878,0.6435034714274819,0.8467536430914775
1682104742778984,-0.14190890363927666,0.6444800488288704,0.866529335469596
1682104742794968,-0.16437018387121372,0.6320286869611662,0.8861829556725418
1682104742810952,-0.16119630731670087,0.6248264286259246,0.9355001144426645
1682104742826936,-0.13238727397573813,0.6521705958648054,0.8025635156786448
1682104742842920,-0.15082017242694734,0.6749980926222632,0.8311284046692604
1682104742858904,-0.1669336995498587,0.6992904554818038,0.9707789730678265
1682104742874889,-0.18219272144655507,0.6518043793392847,1.0480506599526969
1682104742890873,-0.06646829938200982,0.6383764400701919,0.9866483558403907
1682104742906857,-0.2251621271076525,0.6585183489738311,0.8992446784161139
1682104742922841,-0.12066834515907532,0.7099107347219045,0.8567635614557103
1682104742938825,-0.055848020141908705,0.7896238651102463,0.7454337376974136
1682104742954809,-0.03741512169069949,0.7438467994201572,0.7758297093156328
1682104742970793,-0.11639581902800034,0.7639887083237964,0.7249256122682537
1682104742986777,-0.1607080186160066,0.7154039826047152,0.9256122682536052
1682104743002761,-0.12323186083772031,0.6819562066071567,0.8212405584802012
1682104743018745,-0.09039444571602973,0.6192111085679404,0.671335927367056
1682104743034729,-0.08038452735179691,0.6162813763637747,0.6658426794842454
1682104743050713,-0.0875867856870376,0.6248264286259246,0.6577859159227897
1682104743066697,-0.10943770504310679,0.6529030289158468,0.6797589074540324
1682104743082580,-0.13116655222400242,0.6258030060273141,0.7259021896696423
1682104743098564,-0.1572899977111466,0.640329594872969,0.7691157396810864
1682104743114547,-0.14203097581445023,0.7025864042114902,0.5238727397573815
1682104743130531,-0.1467917906462195,0.6322728313115134,0.7818112458991378
1682104743146515,-0.1342183566033417,0.645456626230259,0.6614480811779968
1682104743162498,-0.12335393301289388,0.6458228427557797,0.6836652170595867
1682104743178482,-0.11969176775768675,0.651438162813764,0.6392309452964069
1682104743194465,-0.11126878767071036,0.6765850308995196,0.6367895017929355
1682104743210449,-0.11541924162661177,0.6602273594262611,0.74360265506981
1682104743226432,-0.12005798428320746,0.6483863584344247,0.7593499656672007
1682104743242416,-0.11590753032730605,0.655710688944839,0.8169680323491262
1682104743258400,-0.11383230334935535,0.6847638666361489,0.7970702677958341
1682104743274383,-0.06683451590753053,0.6737773708705275,0.7855954833295185
1682104743290367,-0.045471885252155175,0.697825589379721,0.8090333409628441
1682104743306350,-0.037537193865873064,0.7138170443274587,0.7500724803540093
1682104743322334,-0.033875028610665936,0.6819562066071567,0.8163576714732583
1682104743338317,-0.036194399938963784,0.6546120393682768,0.8097657740138855
1682104743354301,-0.025696192874036683,0.6610818646524761,0.75727473868925
1682104743370285,-0.013122758831158876,0.6614480811779968,0.7500724803540093
1682104743386268,-0.028137636377508102,0.6461890592813004,0.7621576256961928
1682104743402160,-0.07391470206759765,0.674753948271916,0.7539787899595636
1682104743418143,-0.03607232776379021,0.6627908751049061,0.7290760662241551
1682104743434126,-0.045471885252155175,0.6651102464332039,0.7291981383993287
1682104743450110,-0.06182955672541368,0.647165636682689,0.7354238193331808
1682104743466093,-0.06659037155718339,0.6432593270771347,0.7278553444724194
1682104743482076,-0.0724498359655148,0.6349584191653319,0.7338368810559244
1682104743498059,-0.0736705577172505,0.6331273365377283,0.7310292210269322
1682104743514042,-0.07098496986343195,0.6350804913405055,0.7199206530861373
1682104743530025,-0.062439917601281536,0.639475089646754,0.6959945067521174
1682104743546008,-0.057068741893644415,0.6486305027847719,0.6886701762417031
1682104743561991,-0.055848020141908705,0.6549782558937975,0.7030746929121845
1682104743577974,-0.0669565880827041,0.6702372777904939,0.7373769741359579
1682104743593958,-0.05096513313496587,0.6768291752498667,0.7178454261081866
1682104743609941,-0.05889982452124798,0.6692607003891053,0.7186999313344016
1682104743625924,-0.05804531929503298,0.676462958724346,0.74360265506981
1682104743641907,-0.06060883497367797,0.6840314335851074,0.7660639353017471
1682104743657890,-0.06671244373235696,0.6687724116884111,0.7790035858701456
1682104743673873,-0.06732280460822482,0.6592507820248725,0.7946288242923627
1682104743689856,-0.09991607537956826,0.6660868238345925,0.8640878919661246
1682104743705839,-0.04315251392385733,0.6624246585793854,0.7406729228656443
1682104743721740,-0.03167772945754166,0.6913557640955217,0.7055161364156559
1682104743737723,-0.02020294499122599,0.6830548561837189,0.7200427252613109
1682104743753707,-0.023743038071259548,0.6829327840085453,0.7282215609979401
1682104743769690,-0.028503852903028815,0.6594949263752197,0.7390859845883879
1682104743785673,-0.04095521477073305,0.6419165331502255,0.742748149843595
1682104743801656,-0.03692683299000521,0.6529030289158468,0.7619134813458457
1682104743817639,-0.028870069428549527,0.6642557412069889,0.7476310368505379
1682104743833622,-0.036316472114137355,0.6636453803311211,0.7548332951857786
1682104743849605,-0.027405203326466676,0.6602273594262611,0.7560540169375143
1682104743865588,-0.0021362630655374915,0.6835431448844131,0.7251697566186008
1682104743881571,-0.015686274509803866,0.6720683604180975,0.7736324101625085
1682104743897554,-0.03155565728236809,0.6568093385214011,0.7835202563515677
1682104743913538,-0.0319218738078888,0.6782940413519496,0.795117112993057
1682104743929521,-0.036438544289310926,0.6913557640955217,0.8247806515602347
1682104743945504,-0.024841687647821686,0.6963607232776381,0.803662165255207
1682104743961487,-0.020691233691920274,0.6991683833066302,0.7642328526741435
1682104743977470,-0.03814755474174092,0.7073472190432595,0.7570305943389029
1682104743993453,-0.046814679179064456,0.6923323414969103,0.784863050278477
1682104744009436,-0.03216601815823594,0.6717021438925768,0.7320057984283208
1682104744025419,-0.03729304951552592,0.6736552986953539,0.7333485923552301
1682104744041351,-0.060852979324025114,0.6590066376745254,0.789990081635767
1682104744057334,-0.05157549401083372,0.6671854734111546,0.7799801632715342
1682104744073316,-0.035217822537575216,0.6864728770885788,0.7372549019607844
1682104744089299,-0.041565575646600905,0.692698558022431,0.7215075913633937
1682104744105281,-0.06414892805371197,0.6741435873960482,0.7384756237125201
1682104744121264,-0.0783093003738462,0.6714579995422296,0.728831921873808
1682104744137247,-0.07171740291447337,0.6637674525062947,0.7532463569085222
1682104744153229,-0.0678110933089191,0.6793926909285117,0.7274891279468987
1682104744169212,-0.06732280460822482,0.689280537117571,0.7268787670710308
1682104744185195,-0.06610208285648911,0.6986800946059359,0.6925764858472574
1682104744201177,-0.07879758907454049,0.6948958571755552,0.7195544365606166
1682104744217160,-0.10247959105821325,0.6966048676279852,0.742748149843595
1682104744233142,-0.11285572594796678,0.6872053101396203,0.7486076142519265
1682104744249125,-0.1068741893644618,0.6906233310444803,0.7144274052033266
1682104744265108,-0.10797283894102394,0.694407568474861,0.7084458686198216
1682104744281090,-0.11078049897001607,0.6894026092927446,0.7013656824597545
1682104744297073,-0.10431067368581681,0.6894026092927446,0.7105210955977723
1682104744313056,-0.09991607537956826,0.6928206301976045,0.7252918287937744
1682104744329038,-0.09332417792019543,0.710032806897078,0.7425040054932479
1682104744345021,-0.08599984740978117,0.7200427252613109,0.7471427481498436
1682104744360931,-0.07965209430075548,0.7238269626916916,0.7451895933470665
1682104744376913,-0.07904173342488763,0.7217517357137408,0.7487296864271
1682104744392895,-0.08111696040283833,0.7201647974364844,0.7426260776684215
1682104744408877,-0.08355840390630975,0.7183337148088809,0.7349355306324865
1682104744424860,-0.08136110475318548,0.7114976729991609,0.721995880064088
1682104744440842,-0.08526741435873975,0.7041733424887466,0.7072251468680859
1682104744456824,-0.09369039444571614,0.6959945067521174,0.7249256122682537
1682104744472806,-0.08819714656290545,0.6913557640955217,0.7132066834515909
1682104744488788,-0.08917372396429402,0.6891584649423974,0.7121080338750287
1682104744504770,-0.0980849927519647,0.6834210727092396,0.7205310139620051
1682104744520753,-0.1010147249561304,0.6912336919203481,0.7201647974364844
1682104744536735,-0.10272373540856039,0.6819562066071567,0.6543678950179297
1682104744552717,-0.11126878767071036,0.6907454032196538,0.7229724574654766
1682104744568699,-0.10504310673685824,0.6859845883878846,0.707469291218433
1682104744584681,-0.10370031280994896,0.690989547570001,0.7040512703135731
1682104744600663,-0.11187914854657821,0.6951400015259024,0.7199206530861373
1682104744616645,-0.10882734416723894,0.7106431677729459,0.7218738078889144
1682104744632628,-0.09942778667887398,0.7188220035095751,0.7052719920653088
1682104744648610,-0.1010147249561304,0.7267566948958573,0.7130846112764173
1682104744664592,-0.11102464332036321,0.7216296635385673,0.7261463340199894
1682104744680511,-0.11139085984588393,0.7224841687647823,0.7172350652323187
1682104744696493,-0.11456473640039677,0.7167467765316244,0.7145494773785002
1682104744712475,-0.11322194247348749,0.7201647974364844,0.7078355077439538
1682104744728458,-0.11090257114518964,0.7180895704585337,0.7011215381094074
1682104744744440,-0.11383230334935535,0.7130846112764173,0.7053940642404823
1682104744760422,-0.11285572594796678,0.7123521782253759,0.7149156939040209
1682104744776404,-0.10870527199206537,0.7128404669260702,0.7040512703135731
1682104744792386,-0.10955977721828036,0.7116197451743345,0.7055161364156559
1682104744808368,-0.11053635461966893,0.7089341573205159,0.6853742275120167
1682104744824350,-0.10919356069275965,0.7094224460212102,0.6863508049134053
1682104744840333,-0.11395437552452892,0.7064927138170445,0.7040512703135731
1682104744856315,-0.11407644769970249,0.7025864042114902,0.7261463340199894
1682104744872297,-0.11212329289692535,0.707469291218433,0.7345693141069658
1682104744888279,-0.11017013809414822,0.7210193026626994,0.7260242618448158
1682104744904261,-0.09954985885404755,0.7344472419317922,0.7145494773785002
1682104744920243,-0.09881742580300612,0.7329823758297094,0.7096665903715573
1682104744936226,-0.1030899519340811,0.7272449835965515,0.7150377660791944
1682104744952208,-0.10357824063477539,0.7238269626916916,0.7172350652323187
1682104744968190,-0.10345616845960182,0.7176012817578394,0.7112535286488137
1682104744984172,-0.10431067368581681,0.7140611886778059,0.7069810025177388
1682104745000122,-0.10614175631342038,0.7121080338750287,0.7097886625467309
1682104745016104,-0.1039444571602961,0.7107652399481195,0.6984359502555888
1682104745032086,-0.10504310673685824,0.7136949721522852,0.706614785992218
1682104745048068,-0.10626382848859395,0.7110093842984666,0.7062485694666973
1682104745064050,-0.10675211718928823,0.7147936217288473,0.6957503624017702
1682104745080032,-0.11602960250247962,0.7156481269550623,0.697825589379721
1682104745096015,-0.1190814068818189,0.7138170443274587,0.6874494544899674
1682104745111997,-0.11493095292591748,0.7166247043564509,0.690989547570001
1682104745127979,-0.11468680857557034,0.719432364385443,0.6999008163576717
1682104745143961,-0.11419851987487606,0.7182116426337073,0.7031967650873581
1682104745159943,-0.1144426642252232,0.7206530861371787,0.715159838254368
1682104745175925,-0.11017013809414822,0.7244373235675594,0.6973373006790267
1682104745191908,-0.11041428244449536,0.7300526436255437,0.6964827954528117
1682104745207890,-0.1152971694514382,0.7291981383993287,0.6920881971465631
1682104745223872,-0.14203097581445023,0.7591058213168536,0.6093232623788811
1682104745239854,-0.12274357213702602,0.7506828412298772,0.732249942778668
1682104745255836,-0.11663996337834748,0.7703364614328221,0.7320057984283208
1682104745271818,-0.10614175631342038,0.7965819790951398,0.7337148088807508
1682104745287800,-0.09442282749675757,0.837232013427939,0.7370107576104372
1682104745303783,-0.08465705348287189,0.8576180666819253,0.7216296635385673
1682104745319702,-0.09784084840161755,0.8660410467689017,0.715159838254368
1682104745335683,-0.10455481803616395,0.8592050049591817,0.7173571374074923
1682104745351665,-0.11114671549553679,0.8474860761425189,0.7103990234225988
1682104745367647,-0.12213321126115817,0.8362554360265504,0.690989547570001
1682104745383628,-0.1275043869687953,0.8385748073548482,0.6594949263752197
1682104745399610,-0.11712825207904176,0.8245365072098876,0.6515602349889376
1682104745415592,-0.09600976577401399,0.8089112687876705,0.6607156481269554
1682104745431573,-0.1018692301823454,0.7689936675059128,0.7002670328831924
1682104745447555,-0.1085831998168918,0.7337148088807508,0.672190432593271
1682104745463537,-0.09161516746776543,0.7261463340199894,0.5617151140611885
1682104745479519,-0.05511558709086728,0.6782940413519496,0.6973373006790267
1682104745495500,-0.08599984740978117,0.6419165331502255,0.6717021438925768
1682104745511482,-0.09332417792019543,0.618478675516899,0.6848859388113224
1682104745527464,-0.0707408255130848,0.671335927367056,0.6220187685969325
1682104745543445,-0.03668268863965807,0.7246814679179066,0.5684290836957349
1682104745559427,-0.045471885252155175,0.727977416647593,0.5656214236667427
1682104745575409,-0.06366063935301769,0.7447013046463722,0.5144731822690165
1682104745591390,-0.06976424811169624,0.7771725032425421,0.5064164187075608
1682104745607372,-0.07672236209658978,0.8009765774013884,0.5077592126344701
1682104745623354,-0.062317845426107965,0.8042725261310748,0.5188677805752651
1682104745639282,-0.0669565880827041,0.8366216525520711,0.5602502479591056
1682104745655264,-0.05242999923704872,0.8736095216296631,0.5371786068513007
1682104745671245,-0.07049668116273766,0.9016861219195853,0.5213092240787365
1682104745687227,-0.06353856717784412,0.879591058213169,0.5331502250705729
1682104745703209,-0.0888075074387733,0.8864271000228889,0.5543907835507742
1682104745719190,-0.11847104600595104,0.8335698481727318,0.6164034485389482
1682104745735172,-0.11432059205004963,0.7719233997100785,0.5901579308766305
1682104745751154,-0.09869535362783255,0.7510490577553979,0.582345311665522
1682104745767135,-0.09393453879606328,0.751293202105745,0.5390096894789043
1682104745783117,-0.12164492256046389,0.7699702449073014,0.5523155565728235
1682104745799099,-0.14410620279240094,0.7620355535210193,0.5580529488059813
1682104745815080,-0.15790035858701446,0.7652094300755321,0.5492637521934842
1682104745831062,-0.14862287327382306,0.7948729686427098,0.5281452658884564
1682104745847044,-0.15252918287937733,0.8272220950637061,0.4791943236438545
1682104745863025,-0.1749904631113144,0.8581063553826196,0.45087357900358604
1682104745879007,-0.18573281452658863,0.8466315709163039,0.5021438925764858
1682104745894989,-0.15570305943389018,0.879591058213169,0.5228961623559929
1682104745910970,-0.12310978866254674,0.9008316166933703,0.5142290379186694
1682104745926952,-0.11200122072175178,0.9073014419775696,0.5145952544441901
1682104745942934,-0.10174715800717182,0.9168230716411081,0.542793926909285
1682104745958862,-0.0963759822995347,0.9173113603418024,0.5314412146181429
1682104745974843,-0.08429083695735118,0.8828870069428554,0.5790493629358355
1682104745990824,-0.07196154726482051,0.8805676356145575,0.5991912718394747
1682104746006806,-0.06121919584954583,0.8590829327840082,0.6221408407721061
1682104746022787,-0.054505226214999425,0.8267338063630119,0.6223849851224532
1682104746038768,-0.05023270008392444,0.8004882887006941,0.6438696879530026
1682104746054749,-0.042786297398336615,0.792553597314412,0.6370336461432826
1682104746070730,-0.04583810177767589,0.7738765545128556,0.6768291752498667
1682104746086712,-0.05108720531013944,0.7465323872739758,0.7205310139620051
1682104746102693,-0.03057907988097952,0.7575188830395971,0.6895246814679181
1682104746118674,-0.0016479743648432077,0.7937743190661477,0.6478980697337304
1682104746134655,0.013488975356679589,0.8145265888456548,0.6319066147859926
1682104746150636,0.011535820553902454,0.8074464026855876,0.6258030060273141
1682104746166617,0.001037613488975353,0.7760738536659799,0.638620584420539
1682104746182599,1.831082627603564E-4,0.7614251926451514,0.6535133897917147
1682104746198580,-6.713969634546402E-4,0.7365224689097429,0.6399633783474483
1682104746214561,-0.0040894178683146265,0.7166247043564509,0.6139620050354768
1682104746230542,-0.0061646448462653325,0.7145494773785002,0.616769665064469
1682104746246523,-0.010803387502861028,0.7063706416418709,0.6060273136491947
1682104746262505,-0.017029068436713146,0.7103990234225988,0.6093232623788811
1682104746278473,-0.011657892729076025,0.7082017242694745,0.5946746013580526
1682104746294454,-0.00970473792629889,0.7090562294956895,0.6301976043335626
1682104746310435,-0.005920500495918191,0.6988021667811095,0.6493629358358133
1682104746326416,-0.003479056992446772,0.6950179293507288,0.6763408865491725
1682104746342397,-0.0015259021896696368,0.6814679179064624,0.7013656824597545
1682104746358379,1.831082627603564E-4,0.6629129472800797,0.7456778820477608
1682104746374360,0.0038452735179674846,0.6564431219958804,0.7060044251163502
1682104746390341,0.0018921187151903496,0.6830548561837189,0.7293202105745022
1682104746406322,-0.008117799649042468,0.6983138780804152,0.7041733424887466
1682104746422303,-0.015564202334630295,0.7061264972915238,0.6588845654993518
1682104746438284,-0.027405203326466676,0.7395742732890822,0.6378881513694976
1682104746454266,-0.039002059967955915,0.7605706874189364,0.693553063248646
1682104746470247,-0.038879987792782345,0.7685053788052185,0.678171969176776
1682104746486228,-0.025085831998168828,0.7820553902494849,0.710887312123293
1682104746502209,-0.001037613488975353,0.8004882887006941,0.7084458686198216
1682104746518190,0.020569161516746703,0.8114747844663155,0.724559395742733
1682104746534172,0.03179980163271523,0.8118410009918362,0.7368886854352636
1682104746550153,0.036438544289310926,0.8091554131380176,0.728831921873808
1682104746566134,0.0470588235294116,0.795117112993057,0.7468986037994965
1682104746582115,0.06182955672541368,0.7736324101625085,0.7409170672159915
1682104746598053,0.0634164950026701,0.7517814908064393,0.7014877546349281
1682104746614034,0.04486152437628732,0.7210193026626994,0.6482642862592511
1682104746630015,0.023620965896085977,0.690135042343786,0.625558861676967
1682104746645996,0.01617456321049815,0.6753643091477839,0.6414282444495312
1682104746661977,0.004333562218661768,0.6676737621118489,0.6577859159227897
1682104746677959,-0.004821850919356052,0.6640115968566418,0.6536354619668883
1682104746693940,0.004455634393835339,0.6630350194552532,0.6729228656443125
1682104746709921,0.00982681010147246,0.685862516212711,0.6541237506675825
1682104746725902,0.028503852903028815,0.7052719920653088,0.6627908751049061
1682104746741883,0.03582818341344307,0.7060044251163502,0.710887312123293
1682104746757865,0.02801556420233453,0.7085679407949952,0.7467765316243229
1682104746773846,0.023376821545738835,0.7155260547798887,0.799389639124132
1682104746789827,0.04364080262455161,0.7152819104295416,0.792553597314412
1682104746805808,0.04962233920805659,0.7299305714503701,0.7743648432135499
1682104746821789,0.04693675135423803,0.7215075913633937,0.75385671778439
1682104746837771,0.05365072098878443,0.7246814679179066,0.7575188830395971
1682104746853752,0.04876783398184159,0.6999008163576717,0.7522697795071336
1682104746869733,0.04461738002594018,0.6765850308995196,0.7412832837415122
1682104746885714,0.05035477225909801,0.6624246585793854,0.7438467994201572
1682104746901695,0.05535973144121442,0.6570534828717483,0.7621576256961928
1682104746917663,0.06451514457923224,0.6670634012359811,0.763256275272755
1682104746933644,0.06414892805371153,0.6597390707255668,0.7625238422217135
1682104746949625,0.06536964980544724,0.6740215152208746,0.7459220263981079
1682104746965605,0.06549172198062081,0.6834210727092396,0.7389639124132144
1682104746981586,0.05938811322194226,0.6920881971465631,0.7244373235675594
1682104746997567,0.0470588235294116,0.6906233310444803,0.7318837262531472
1682104747013548,0.02423132677195383,0.7040512703135731,0.7713130388342107
1682104747029528,0.02264438849469741,0.7259021896696423,0.758129243915465
1682104747045509,0.017273212787060288,0.7383535515373465,0.7487296864271
1682104747061490,0.007385366598001042,0.7406729228656443,0.74531166552224
1682104747077470,0.0018921187151903496,0.7588616769665064,0.7543450064850843
1682104747093451,-0.005920500495918191,0.756420233463035,0.7324940871290151
1682104747109432,-0.025818265049210254,0.7294422827496758,0.74360265506981
1682104747125413,-0.038757915617608774,0.7217517357137408,0.7506828412298772
1682104747141393,-0.0357061112382695,0.7316395819028001,0.7372549019607844
1682104747157374,-0.029480430304417382,0.732249942778668,0.7189440756847487
1682104747173355,-0.03302052338445094,0.7259021896696423,0.7124742504005495
1682104747189335,-0.037659266041046635,0.7163805600061037,0.7186999313344016
1682104747205316,-0.0462043183031966,0.7210193026626994,0.7361562523842222
1682104747221297,-0.05279621576256943,0.7204089417868316,0.7364003967345694
1682104747237243,-0.054383154039825854,0.7041733424887466,0.7167467765316244
1682104747253224,-0.049378194857709445,0.6963607232776381,0.6876935988403146
1682104747269205,-0.046570534828717314,0.6933089188982988,0.6802471961547267
1682104747285185,-0.049500267032883016,0.6795147631036853,0.6896467536430917
1682104747301166,-0.05389486533913157,0.6579079880979632,0.7213855191882201
1682104747317147,-0.05352864881361086,0.6602273594262611,0.7320057984283208
1682104747333128,-0.04596017395284946,0.6757305256733046,0.7367666132600901
1682104747349108,-0.045471885252155175,0.686717021438926,0.7222400244144351
1682104747365089,-0.04901197833218873,0.6842755779354546,0.7029526207370109
1682104747381070,-0.06744487678339839,0.6734111543450068,0.7230945296406501
1682104747397050,-0.07196154726482051,0.6652323186083775,0.708323796444648
1682104747413031,-0.06805523765926624,0.6464332036316476,0.7116197451743345
1682104747429012,-0.08624399176012831,0.6408178835736633,0.7272449835965515
1682104747444993,-0.09503318837262542,0.6450904097047383,0.7500724803540093
1682104747460973,-0.07855344472419334,0.6702372777904939,0.7438467994201572
1682104747476954,-0.06756694895857196,0.6861066605630581,0.7467765316243229
1682104747492935,-0.059876401922636546,0.6953841458762495,0.7785152971694513
1682104747508916,-0.04754711223010588,0.7122301060502023,0.814160372320134
1682104747524896,-0.033630884260318794,0.7155260547798887,0.8574959945067517
1682104747540877,-0.008972304875257464,0.7301747158007172,0.8523689631494618
1682104747556823,0.0037232013427939137,0.7586175326161593,0.8317387655451283
1682104747572804,-0.013855191882200302,0.7626459143968871,0.8256351567864497
1682104747588785,-0.03411917296101308,0.7440909437705043,0.8462653543907832
1682104747604766,-0.02679484245059882,0.7409170672159915,0.8279545281147476
1682104747620746,-0.021911955443655984,0.724559395742733,0.8076905470359348
1682104747636727,-0.03704890516517878,0.6911116197451745,0.8147707331960019
1682104747652708,-0.05487144274052014,0.6533913176165411,0.8018310826276034
1682104747668688,-0.05096513313496587,0.6275120164797441,0.7747310597390706
1682104747684669,-0.049256122682535874,0.618478675516899,0.7700923170824749
1682104747700650,-0.055970092317082276,0.5973601892118712,0.7588616769665064
1682104747716631,-0.045471885252155175,0.5943083848325319,0.7428702220187686
1682104747732611,-0.047913328755626594,0.5847867551689934,0.7412832837415122
1682104747748592,-0.049256122682535874,0.5828336003662162,0.7539787899595636
1682104747764573,-0.045593957427328746,0.5940642404821848,0.7642328526741435
1682104747780553,-0.03167772945754166,0.6160372320134275,0.7661860074769207
1682104747796534,-0.030945296406500233,0.6354467078660262,0.7609369039444571
1682104747812515,-0.03717097734035235,0.6402075226977955,0.756420233463035
1682104747828496,-0.04058899824521234,0.6398413061722747,0.7638666361486228
1682104747844476,-0.04827954528114731,0.6455786984054326,0.784863050278477
1682104747860457,-0.041687647821774476,0.6592507820248725,0.8004882887006941
1682104747876403,-0.02935835812924381,0.6724345769436182,0.798535133897917
1682104747892384,-0.03460746166170736,0.6930647745479517,0.7973144121461813
1682104747908365,-0.03729304951552592,0.6874494544899674,0.8026855878538184
1682104747924346,-0.031189440756847375,0.7052719920653088,0.8024414435034712
1682104747940326,-0.033630884260318794,0.6951400015259024,0.7986572060730905
1682104747956307,-0.04461738002594018,0.6868390936140996,0.8080567635614555
1682104747972288,-0.042664225223163044,0.6714579995422296,0.8074464026855876
1682104747988268,-0.03826962691691449,0.6583962767986575,0.8064698252841991
1682104748004249,-0.03448538948653379,0.6424048218509197,0.7991454947737848
1682104748020230,-0.029480430304417382,0.6201876859693289,0.7906004425116349
1682104748036211,-0.02532997634851597,0.6033417257953761,0.789135576409552
1682104748052191,-0.021057450217440987,0.5840543221179519,0.7779049362935835
1682104748068172,-0.017639429312581,0.5663538567177842,0.7731441214618142
1682104748084153,-0.02154573891813527,0.5617151140611885,0.7747310597390706
1682104748100134,-0.02410925459678026,0.559273670557717,0.7819333180743113
1682104748116114,-0.025085831998168828,0.5779507133592734,0.7843747615777827
1682104748132095,-0.01104753185320817,0.5707484550240327,0.7813229571984435
1682104748148076,-0.01873807888914314,0.5691615167467763,0.8191653315022505
1682104748164056,-0.007019150072480329,0.5830777447165634,0.7886472877088577
1682104748180037,-0.026306553749904538,0.5955291065842676,0.8191653315022505
1682104748195984,6.103608758678547E-5,0.6049286640726326,0.8098878461890591
1682104748211964,-6.713969634546402E-4,0.6084687571526661,0.8255130846112761
1682104748227944,-0.002990768291752488,0.6294651712825212,0.8208743419546805
1682104748243924,-0.003479056992446772,0.6287327382314798,0.8220950637064162
1682104748259904,0.00970473792629889,0.641184100099184,0.8180666819256883
1682104748275885,0.007263294422827471,0.6283665217059591,0.8271000228885326
1682104748291865,-0.01226825360494388,0.6226291294728004,0.8314946211947811
1682104748307845,-0.018493934538795997,0.6261692225528348,0.8247806515602347
1682104748323825,-0.023498893720912406,0.6250705729762727,0.8130617227435719
1682104748339806,-0.02667277027542525,0.6194552529182875,0.8032959487296862
1682104748355786,-0.035217822537575216,0.6098115510795754,0.7975585564965284
1682104748371766,-0.04901197833218873,0.599679560540169,0.784008545052262
1682104748387746,-0.060852979324025114,0.5884489204242005,0.7593499656672007
1682104748403727,-0.07440299076829193,0.5802700846875712,0.7510490577553979
1682104748419707,-0.09222552834363329,0.5808804455634391,0.7472648203250172
1682104748435687,-0.1047989623865111,0.5821011673151748,0.7600823987182421
1682104748451667,-0.09967193102922112,0.6010223544670783,0.784863050278477
1682104748467648,-0.10199130235751896,0.6237277790493625,0.7920653086137177
1682104748483628,-0.0972304875257497,0.6475318532082097,0.7836423285267413
1682104748499608,-0.1001602197299154,0.6597390707255668,0.7809567406729228
1682104748515564,-0.11346608682383463,0.6593728542000461,0.7892576485847256
1682104748531544,-0.11554131380178534,0.6486305027847719,0.7871824216067749
1682104748547524,-0.1068741893644618,0.6461890592813004,0.7761959258411535
1682104748563504,-0.10894941634241251,0.6432593270771347,0.7667963683527885
1682104748579485,-0.12079041733424889,0.6384985122453655,0.7664301518272678
1682104748595465,-0.13311970702677955,0.6330052643625548,0.7704585336079957
1682104748611445,-0.1299458304722667,0.6464332036316476,0.7726558327611199
1682104748627425,-0.12225528343633174,0.6432593270771347,0.7859616998550392
1682104748643406,-0.11126878767071036,0.6402075226977955,0.7960936903944456
1682104748659386,-0.1085831998168918,0.6226291294728004,0.801098649576562
1682104748675366,-0.11297779812314035,0.6419165331502255,0.8169680323491262
1682104748691346,-0.13482871747920955,0.6248264286259246,0.8119630731670098
1682104748707327,-0.1447165636682688,0.6181124589913782,0.832104982070649
1682104748723307,-0.15204089417868305,0.610788128480964,0.8253910124361026
1682104748739287,-0.12469672693980316,0.638620584420539,0.822705424582284
1682104748755267,-0.1505760280766002,0.6419165331502255,0.8195315480277712
1682104748771247,-0.16473640039673443,0.641184100099184,0.8178225375753412
1682104748787228,-0.15509269855802232,0.6398413061722747,0.8247806515602347
1682104748803208,-0.14483863584344236,0.6332494087129019,0.840650034332799
1682104748819188,-0.14447241931792165,0.6170138094148161,0.856275272755016
1682104748835144,-0.13360799572747384,0.6214084077210646,0.8544441901274125
1682104748851124,-0.13604943923094526,0.6218966964217589,0.8466315709163039
1682104748867104,-0.15387197680628661,0.6217746242465854,0.8480964370183868
1682104748883084,-0.17608911268787653,0.6146944380865182,0.8469977874418246
1682104748899065,-0.18304722667277007,0.6204318303196761,0.8296635385671776
1682104748915045,-0.1952544441901276,0.6417944609750519,0.7964599069199663
1682104748931025,-0.16620126649881728,0.6273899443045705,0.7787594415197985
1682104748947005,-0.19342336156252404,0.6182345311665518,0.7711909666590371
1682104748962986,-0.19085984588387905,0.6131074998092618,0.7653315022507057
1682104748978966,-0.16839856565194156,0.600534065766384,0.7809567406729228
1682104748994946,-0.15960936903944445,0.5963836118104826,0.8220950637064162
1682104749010926,-0.13934538796063167,0.6074921797512776,0.8125734340428776
1682104749026907,-0.10138094148165111,0.6571755550469218,0.7741206988632028
1682104749042887,-0.1366598001068131,0.605661097123674,0.8164797436484319
1682104749058867,-0.12823682001983672,0.6041962310215911,0.7984130617227434
1682104749074847,-0.1275043869687953,0.605661097123674,0.7765621423666742
1682104749090828,-0.13580529488059812,0.573800259403372,0.7608148317692836
1682104749106808,-0.15374990463111304,0.5750209811551077,0.7511711299305714
1682104749122788,-0.15912108033875016,0.5689173723964291,0.7445792324711986
1682104749138768,-0.17889677271686866,0.580636301213092,0.756420233463035
1682104749154724,-0.18255893797207579,0.595407034409094,0.7553215838864729
1682104749170704,-0.1712062256809337,0.6087129015030133,0.7593499656672007
1682104749186684,-0.16961928740367727,0.617624170290684,0.7595941100175478
1682104749202664,-0.16546883344777585,0.6223849851224532,0.7645990691996642
1682104749218645,-0.16302738994430443,0.6205539024948497,0.7696040283817807
1682104749234625,-0.15497062638284875,0.6131074998092618,0.7752193484397649
1682104749250605,-0.15118638895246805,0.6162813763637747,0.7841306172274356
1682104749266585,-0.1514305333028152,0.6282444495307855,0.7893797207598992
1682104749282566,-0.1509422446021209,0.6358129243915469,0.7910887312123291
1682104749298546,-0.15033188372625306,0.636911573968109,0.7970702677958341
1682104749314526,-0.14911116197451735,0.6459449149309533,0.7920653086137177
1682104749330506,-0.14447241931792165,0.6508278019378961,0.7843747615777827
1682104749346487,-0.14349584191653308,0.6464332036316476,0.7804684519722285
1682104749362467,-0.14752422369726093,0.6300755321583891,0.7798580910963606
1682104749378447,-0.14959945067521163,0.6171358815899897,0.7796139467460135
1682104749394427,-0.15753414206149374,0.6034637979705497,0.7761959258411535
1682104749410408,-0.16473640039673443,0.603097581445029,0.7710688944838635
1682104749426388,-0.16058594644083302,0.6027313649195083,0.7614251926451514
1682104749442368,-0.15912108033875016,0.6051728084229797,0.7467765316243229
1682104749458348,-0.16595712214847014,0.5994354161898219,0.7350576028076601
1682104749474334,-0.17254901960784297,0.5917448691538869,0.7199206530861373
1682104749490315,-0.1832913710231172,0.5835660334172577,0.7084458686198216
1682104749506295,-0.20416571297779829,0.5927214465552755,0.6868390936140996
1682104749522275,-0.2100251773861297,0.6023651483939876,0.688426031891356
1682104749538255,-0.20001525902189687,0.6333714808880755,0.6701152056153203
1682104749554236,-0.21564049744411395,0.6786602578774703,0.6238498512245361
1682104749570216,-0.19879453727016116,0.6856183718623639,0.6157930876630804
1682104749586196,-0.22394140535591678,0.7677729457541771,0.6402075226977955
1682104749602176,-0.23419546807049674,0.8004882887006941,0.6310521095597776
1682104749618157,-0.23468375677119102,0.8360112916762032,0.6698710612649732
1682104749634137,-0.23004501411459533,0.8710460059510181,0.6793926909285117
1682104749650117,-0.22772564278629748,0.9103532463569088,0.6981918059052417
1682104749666097,-0.22015716792553608,0.932204165712978,0.7009994659342338
1682104749682078,-0.20965896086060898,0.9405050736247809,0.711741817349508
1682104749698058,-0.1973296711680783,0.9236591134508281,0.7141832608529795
1682104749714038,-0.18109407186999293,0.8932631418326089,0.7257801174944687
1682104749730018,-0.16644541084916442,0.8474860761425189,0.7024643320363166
1682104749745998,-0.16351567864499872,0.7962157625696191,0.6979476615548945
1682104749761979,-0.1698634317540244,0.7466544594491493,0.7057602807660031
1682104749777959,-0.16473640039673443,0.7033188372625316,0.715159838254368
1682104749793914,-0.14666971847104593,0.6736552986953539,0.7077134355687802
1682104749809895,-0.12164492256046389,0.6566872663462275,0.6887922484168767
1682104749825875,-0.09869535362783255,0.6503395132372018,0.6767071030746932
1682104749841855,-0.08575570305943403,0.6393530174715805,0.6649881742580304
1682104749857835,-0.08245975432974761,0.6328831921873812,0.6673075455863282
1682104749873816,-0.0888075074387733,0.6226291294728004,0.6809796292057682
1682104749889796,-0.1060196841382468,0.6277561608300912,0.6984359502555888
1682104749905776,-0.11078049897001607,0.6367895017929355,0.7183337148088809
1682104749921756,-0.12164492256046389,0.6666971847104604,0.7400625619897765
1682104749937737,-0.13641565575646597,0.7005111772335395,0.7401846341649501
1682104749953717,-0.14190890363927666,0.7404287785152972,0.7339589532310979
1682104749969697,-0.14703593499656664,0.7776607919432363,0.7311512932021058
1682104749985677,-0.14947737850003806,0.8013427939269091,0.7265125505455101
1682104750001658,-0.1467917906462195,0.8180666819256883,0.7213855191882201
1682104750017638,-0.1433737697413595,0.815014877546349,0.7182116426337073
1682104750033618,-0.14166475928892952,0.8162355992980848,0.715159838254368
1682104750049598,-0.14142061493858238,0.8003662165255205,0.7079575799191273
1682104750065579,-0.1493553063248645,0.7901121538109406,0.7051499198901352
1682104750081559,-0.15716792553597303,0.7681391622796978,0.6937972075989931
1682104750097539,-0.1712062256809337,0.7399404898146029,0.6703593499656675
1682104750113494,-0.17889677271686866,0.719432364385443,0.6659647516594189
1682104750129474,-0.18536659800106792,0.7016098268101016,0.6516823071641111
1682104750145454,-0.19830624856946688,0.688426031891356,0.6433813992523083
1682104750161434,-0.20794995040817899,0.6804913405050739,0.6258030060273141
1682104750177414,-0.21808194094758537,0.6818341344319832,0.6127412832837411
1682104750193393,-0.22076752880140393,0.6920881971465631,0.5866178377965969
1682104750209373,-0.2343175402456703,0.7252918287937744,0.5585412375066756
1682104750225353,-0.21429770351720467,0.7046616311894409,0.44965285725185034
1682104750241333,-0.2456702525368124,0.7295643549248494,0.5681849393453877
1682104750257312,-0.27789730678263513,0.7235828183413444,0.5867399099717705
1682104750273292,-0.27020675974670016,0.709178301670863,0.6161593041886011
1682104750289272,-0.2453040360112917,0.7531242847333486,0.6438696879530026
1682104750305252,-0.21930266269932108,0.7476310368505379,0.5886930647745476
1682104750321231,-0.20941481651026184,0.7371328297856108,0.5790493629358355
1682104750337211,-0.20965896086060898,0.724559395742733,0.6098115510795754
1682104750353191,-0.20587472343022828,0.7327382314793622,0.6210421911955439
1682104750369171,-0.20416571297779829,0.746166170748455,0.6389868009460598
1682104750385151,-0.19842832074464045,0.7656977187762264,0.6207980468451968
1682104750401130,-0.20062561989776473,0.7725337605859464,0.6044403753719383
1682104750417110,-0.21173418783855968,0.7635004196231021,0.6035858701457233
1682104750433075,-0.21942473487449465,0.7677729457541771,0.5921110856794076
1682104750449054,-0.22162203402761893,0.7654535744258792,0.5791714351110091
1682104750465034,-0.22394140535591678,0.75727473868925,0.5906462195773248
1682104750481014,-0.22650492103456177,0.7605706874189364,0.613351644159609
1682104750496994,-0.2284580758373389,0.7639887083237964,0.625558861676967
1682104750512973,-0.22272068360418107,0.7663080796520942,0.6243381399252304
1682104750528953,-0.22162203402761893,0.7687495231555657,0.6033417257953761
1682104750544933,-0.2191805905241475,0.76923781185626,0.6041962310215911
1682104750560913,-0.2188143739986268,0.7628900587472343,0.5929655909056226
1682104750576892,-0.22577248798352034,0.7536125734340429,0.5968719005111769
1682104750592872,-0.22796978713664462,0.764965285725185,0.6077363241016247
1682104750608852,-0.23553826199740602,0.7655756466010528,0.612497138933394
1682104750624832,-0.24005493247882814,0.7757076371404592,0.6372777904936298
1682104750640812,-0.24664682993820097,0.7837644007019149,0.6417944609750519
1682104750656791,-0.24896620126649882,0.7803463797970549,0.6182345311665518
1682104750672771,-0.2477454795147631,0.7876707103074692,0.6050507362478061
1682104750688751,-0.24982070649271382,0.7825436789501792,0.5993133440146483
1682104750704731,-0.2565346761272602,0.7696040283817807,0.6160372320134275
1682104750720710,-0.25348287174792095,0.7754634927901121,0.6282444495307855
1682104750736690,-0.24896620126649882,0.7710688944838635,0.6175020981155104
1682104750752655,-0.24713511863889526,0.7708247501335164,0.6483863584344247
1682104750768634,-0.24872205691615168,0.7650873579003585,0.6342259861142905
1682104750784614,-0.2587319752803845,0.7638666361486228,0.6287327382314798
1682104750800594,-0.2633707179369802,0.7570305943389029,0.6405737392233162
1682104750816574,-0.25970855268177306,0.7636224917982757,0.6312962539101248
1682104750832553,-0.2578774700541695,0.7702143892576485,0.6229953459983211
1682104750848533,-0.2612954909590295,0.7637445639734493,0.6244602121004039
1682104750864513,-0.26861982146944374,0.7620355535210193,0.6189669642175932
1682104750880493,-0.2796063172350651,0.7671625848783092,0.6256809338521405
1682104750896473,-0.2833905546654458,0.7671625848783092,0.6284885938811327
1682104750912452,-0.28705271992065295,0.7678950179293507,0.6298313878080419
1682104750928432,-0.2910811017013808,0.7697261005569542,0.6293430991073476
1682104750944412,-0.2936446173800258,0.7678950179293507,0.6149385824368654
1682104750960392,-0.2936446173800258,0.7807125963225756,0.6179903868162047
1682104750976371,-0.28070496681162727,0.7962157625696191,0.5977264057373919
1682104750992351,-0.2764324406805523,0.7990234225986113,0.5912565804531926
1682104751008331,-0.28448920424200796,0.7869382772564277,0.5955291065842676
1682104751024311,-0.28827344167238866,0.7719233997100785,0.600534065766384
1682104751040290,-0.2843671320668344,0.7752193484397649,0.5923552300297548
1682104751056270,-0.2840009155413137,0.7798580910963606,0.5803921568627448
1682104751072265,-0.314763103685054,0.7903562981612877,0.5768520637827113
1682104751088245,-0.3024338139925229,0.7707026779583428,0.5900358587014569
1682104751104225,-0.29925993743801005,0.7718013275349049,0.54535744258793
1682104751120205,-0.3081712062256807,0.7511711299305714,0.5636682688639656
1682104751136184,-0.3107347219043257,0.7473868925001907,0.5571984435797663
1682104751152164,-0.3142748149843597,0.7383535515373465,0.5541466392004271
1682104751168144,-0.3148851758602276,0.7395742732890822,0.5537804226749063
1682104751184124,-0.3161058976119633,0.7457999542229343,0.49994659342336156
1682104751200103,-0.31622796978713685,0.7545891508354314,0.5573205157549399
1682104751216083,-0.3125658045319297,0.7580071717402914,0.5651331349660484
1682104751232063,-0.30218966964217575,0.7531242847333486,0.5663538567177842
1682104751248043,-0.3015793087663079,0.7558098725871671,0.5576867322804606
1682104751264022,-0.29877164873731576,0.7626459143968871,0.5580529488059813
1682104751280002,-0.3028000305180436,0.7625238422217135,0.5696498054474706
1682104751295982,-0.29803921568627434,0.7724116884107728,0.5808804455634391
1682104751311962,-0.28790722514686795,0.7804684519722285,0.5850308995193405
1682104751327942,-0.28534370946822296,0.7842526894026092,0.5790493629358355
1682104751343921,-0.27313649195086587,0.7904783703364613,0.5856412603952084
1682104751359901,-0.2638590066376745,0.7880369268329899,0.5728236820019834
1682104751375881,-0.25506981002517737,0.7832761120012206,0.567818722819867
1682104751391845,-0.2630045014114595,0.7742427710383764,0.5980926222629126
1682104751407825,-0.26483558403906304,0.7663080796520942,0.6160372320134275
1682104751423805,-0.2632486457618066,0.7685053788052185,0.6126192111085675
1682104751439785,-0.25140764476997024,0.7711909666590371,0.6034637979705497
1682104751455764,-0.23700312809948887,0.7803463797970549,0.5812466620889598
1682104751471744,-0.23639276722362101,0.7758297093156328,0.5748989089799341
1682104751487724,-0.24029907682917528,0.7645990691996642,0.5867399099717705
1682104751503704,-0.24225223163195242,0.751293202105745,0.5944304570077055
1682104751519683,-0.24505989166094455,0.7520256351567864,0.606515602349889
1682104751535663,-0.2477454795147631,0.7584954604409857,0.6183566033417254
1682104751551643,-0.24798962386511025,0.7702143892576485,0.6131074998092618
1682104751567623,-0.24933241779201953,0.7754634927901121,0.5972381170366976
1682104751583603,-0.24982070649271382,0.7813229571984435,0.5808804455634391
1682104751599582,-0.25848783093003735,0.7849851224536506,0.6060273136491947
1682104751615562,-0.2625162127107652,0.7728999771114671,0.5990691996643012
1682104751631542,-0.2525062943465324,0.7798580910963606,0.5842984664682991
1682104751647522,-0.2507972838941024,0.7835202563515677,0.5885709925993741
1682104751663501,-0.2490882734416724,0.7818112458991378,0.5925993743801019
1682104751679481,-0.2545815213244831,0.7761959258411535,0.6088349736781868
1682104751695461,-0.26434729533836876,0.7758297093156328,0.6115205615320054
1682104751711425,-0.2637369344625009,0.7792477302204928,0.5990691996643012
1682104751727405,-0.26434729533836876,0.7783932249942778,0.5867399099717705
1682104751743385,-0.2713054093232623,0.7791256580453192,0.5958953231097883
1682104751759365,-0.2653238727397573,0.7812008850232699,0.5943083848325319
1682104751775344,-0.24762340733958954,0.7847409781033035,0.5779507133592734
1682104751791324,-0.2544594491493095,0.7832761120012206,0.5944304570077055
1682104751807304,-0.2609292744335088,0.7752193484397649,0.6170138094148161
1682104751823284,-0.2528725108720531,0.7732661936369878,0.592843518730449
1682104751839264,-0.2571450370031281,0.7744869153887235,0.5733119707026777
1682104751855243,-0.26727702754253446,0.7682612344548714,0.6087129015030133
1682104751871223,-0.2623941405355916,0.7638666361486228,0.6024872205691612
1682104751887203,-0.24786755168993668,0.76923781185626,0.5813687342641334
1682104751903183,-0.25433737697413594,0.7711909666590371,0.5779507133592734
1682104751919162,-0.26825360494392303,0.7691157396810864,0.6225070572976268
1682104751935142,-0.2645914396887159,0.7763179980163271,0.6070038910505833
1682104751951122,-0.2533607995727474,0.7802243076218813,0.5725795376516363
1682104751967102,-0.25677882047760736,0.7769283588921949,0.5689173723964291
1682104751983081,-0.2667887388418402,0.7681391622796978,0.5985809109636069
1682104751999061,-0.26361486228732733,0.7665522240024414,0.5912565804531926
1682104752015041,-0.2587319752803845,0.7680170901045242,0.5888151369497212
1682104752031005,-0.25641260395208665,0.7796139467460135,0.596261539635309
1682104752046985,-0.25506981002517737,0.7791256580453192,0.5951628900587469
1682104752062965,-0.25690089265278093,0.7794918745708399,0.5927214465552755
1682104752078945,-0.25177386129549095,0.786572060730907,0.6009002822919047
1682104752094925,-0.24750133516441597,0.7819333180743113,0.5940642404821848
1682104752110904,-0.24591439688715955,0.7764400701915006,0.5902800030518041
1682104752126884,-0.24835584039063097,0.7700923170824749,0.5841763942931255
1682104752142864,-0.2520180056458381,0.7654535744258792,0.5922331578545812
1682104752158844,-0.25214007782101167,0.7625238422217135,0.593698023956664
1682104752174823,-0.24786755168993668,0.7592278934920271,0.5918669413290605
1682104752190803,-0.24493781948577098,0.75385671778439,0.5883268482490269
1682104752206783,-0.2556801709010452,0.76923781185626,0.5886930647745476
1682104752222763,-0.2561684596017395,0.7549553673609521,0.600534065766384
1682104752238742,-0.2494544899671931,0.7600823987182421,0.5963836118104826
1682104752254722,-0.2485999847409781,0.7728999771114671,0.5893034256504155
1682104752270702,-0.25433737697413594,0.7854734111543449,0.5812466620889598
1682104752286682,-0.25726710917830165,0.785717555504692,0.595407034409094
1682104752302662,-0.2578774700541695,0.7813229571984435,0.5973601892118712
1682104752318641,-0.2599526970321202,0.7866941329060806,0.6045624475471119
1682104752334621,-0.25970855268177306,0.7881589990081634,0.5957732509346148
1682104752350586,-0.2653238727397573,0.7964599069199663,0.5861295490959026
1682104752366565,-0.27069504844739445,0.7991454947737848,0.5825894560158691
1682104752382545,-0.27106126497291516,0.7964599069199663,0.5719691767757684
1682104752398525,-0.2721599145494773,0.7969481956206605,0.570382238498512
1682104752414505,-0.27582207980468443,0.7869382772564277,0.5829556725413898
1682104752430484,-0.2797283894102387,0.784863050278477,0.5905241474021512
1682104752446464,-0.281925688563363,0.7810788128480963,0.5856412603952084
1682104752462444,-0.2847333485923551,0.7807125963225756,0.5724574654764627
1682104752478424,-0.28925001907377723,0.778027008468757,0.562691691462577
1682104752494403,-0.29254596780346365,0.7711909666590371,0.560982681010147
1682104752510383,-0.29877164873731576,0.7616693369954985,0.5757534142061491
1682104752526363,-0.29803921568627434,0.7689936675059128,0.5838101777676048
1682104752542343,-0.2981612878614479,0.7720454718852521,0.5796597238117034
1682104752558323,-0.3014572365911343,0.7742427710383764,0.5622034027618827
1682104752574302,-0.29840543221179505,0.7830319676508735,0.5586633096818492
1682104752590282,-0.28326848249027226,0.8125734340428776,0.5515831235217821
1682104752606262,-0.2833905546654458,0.8106202792401005,0.5581750209811549
1682104752622242,-0.28754100862134724,0.7887693598840313,0.5625696192874035
1682104752638221,-0.2842450598916608,0.7798580910963606,0.566109712367437
1682104752654201,-0.2780193789578087,0.7749752040894178,0.5723353933012891
1682104752670166,-0.27740901808194085,0.7713130388342107,0.5740444037537191
1682104752686145,-0.2775310902571144,0.7758297093156328,0.5731898985275041
1682104752702124,-0.2766765850308994,0.7785152971694513,0.5674525062943463
1682104752718104,-0.27655451285572585,0.7764400701915006,0.5722133211261156
1682104752734083,-0.2835126268406194,0.7719233997100785,0.5662317845426106
1682104752750062,-0.28448920424200796,0.7654535744258792,0.5757534142061491
1682104752766041,-0.2789959563591973,0.76240177004654,0.5664759288929577
1682104752782021,-0.27447928587777515,0.7687495231555657,0.5648889906157013
1682104752798000,-0.2752117189288166,0.7791256580453192,0.572945754177157
1682104752813979,-0.279362172884718,0.7844968337529563,0.5819790951400012
1682104752829959,-0.28632028686961153,0.7842526894026092,0.5880827038986798
1682104752845938,-0.2893720912489508,0.780590524147402,0.5696498054474706
1682104752861917,-0.2905928130006865,0.7809567406729228,0.5707484550240327
1682104752877896,-0.28827344167238866,0.7758297093156328,0.5536583504997328
1682104752893876,-0.2944991226062408,0.7689936675059128,0.5642786297398334
1682104752909855,-0.29547570000762935,0.7699702449073014,0.5612268253604942
1682104752925834,-0.2985275043869686,0.7719233997100785,0.564400701915007
1682104752941814,-0.30218966964217575,0.7700923170824749,0.557564660105287
1682104752957793,-0.3040207522697793,0.766674296177615,0.562691691462577
1682104752973772,-0.3065842679484243,0.7592278934920271,0.560982681010147
1682104752989776,-0.3029221026932172,0.7567864499885557,0.5519493400473028
1682104753005756,-0.29681849393453863,0.756420233463035,0.5629358358129242
1682104753021736,-0.2926680399786372,0.7664301518272678,0.5645227740901806
1682104753037716,-0.28632028686961153,0.7700923170824749,0.5708705271992063
1682104753053695,-0.2780193789578087,0.7696040283817807,0.5613488975356677
1682104753069675,-0.2792401007095444,0.7610589761196307,0.5600061036087585
1682104753085655,-0.28741893644617367,0.7523918516823072,0.572945754177157
1682104753101635,-0.29205767910276936,0.7584954604409857,0.5679407949950406
1682104753117614,-0.2995040817883572,0.7680170901045242,0.5794155794613562
1682104753133594,-0.29974822613870433,0.7808346684977492,0.5856412603952084
1682104753149574,-0.29791714351110077,0.7897459372854199,0.5856412603952084
1682104753165554,-0.29510948348210864,0.7957274738689248,0.5900358587014569
1682104753181533,-0.2962081330586708,0.7975585564965284,0.575509269855802
1682104753197513,-0.29510948348210864,0.7935301747158006,0.5762417029068434
1682104753213493,-0.29974822613870433,0.7871824216067749,0.5867399099717705
1682104753229473,-0.29681849393453863,0.7888914320592049,0.5816128786144805
1682104753245453,-0.2857099259937437,0.786572060730907,0.5825894560158691
1682104753261432,-0.2859540703440908,0.7815671015487906,0.573800259403372
1682104753277412,-0.2871747920958265,0.7739986266880292,0.5897917143511098
1682104753293392,-0.28741893644617367,0.7720454718852521,0.5984588387884333
1682104753309356,-0.2796063172350651,0.7696040283817807,0.5750209811551077
1682104753325336,-0.2713054093232623,0.7725337605859464,0.5794155794613562
1682104753341316,-0.272526131074998,0.7665522240024414,0.5924773022049283
1682104753357296,-0.270817120622568,0.76411078049897,0.5965056839856562
1682104753373275,-0.26691081101701375,0.7635004196231021,0.5831998168917369
1682104753389255,-0.2728923476005187,0.7593499656672007,0.5846646829938198
1682104753405235,-0.277653162432288,0.7551995117112993,0.6006561379415576
1682104753421215,-0.269108110170138,0.7604486152437628,0.5886930647745476
1682104753437194,-0.26141756313420306,0.7644769970244907,0.5827115281910427
1682104753453174,-0.25848783093003735,0.7739986266880292,0.5969939726863505
1682104753469154,-0.26153963530937663,0.7730220492866406,0.6121309224078733
1682104753485134,-0.25970855268177306,0.7783932249942778,0.6193331807431139
1682104753501114,-0.2548256656748302,0.7769283588921949,0.5907682917524983
1682104753517093,-0.2553139543755245,0.7713130388342107,0.5917448691538869
1682104753533073,-0.25934233615625235,0.7648432135500114,0.5880827038986798
1682104753549053,-0.2654459449149309,0.7748531319142442,0.5896696421759362
1682104753565033,-0.2562905317769131,0.7652094300755321,0.5939421683070112
1682104753581012,-0.25897611963073164,0.7725337605859464,0.6059052414740211
1682104753596992,-0.2561684596017395,0.7777828641184099,0.6018768596932933
1682104753612972,-0.24969863431754025,0.7758297093156328,0.6016327153429462
1682104753628967,-0.2506752117189288,0.7746089875638971,0.5976043335622183
1682104753644947,-0.2592202639810788,0.7888914320592049,0.6026092927443347
1682104753660926,-0.26861982146944374,0.7863279163805599,0.6063935301747154
1682104753676906,-0.27399099717708086,0.7771725032425421,0.5868619821469441
1682104753692886,-0.26898603799496446,0.7733882658121614,0.5731898985275041
1682104753708866,-0.27118333714808873,0.7687495231555657,0.5739223315785456
1682104753724846,-0.27533379110399014,0.7655756466010528,0.5925993743801019
1682104753740825,-0.274235141527428,0.76923781185626,0.5869840543221176
1682104753756805,-0.2771648737315937,0.7738765545128556,0.5873502708476384
1682104753772785,-0.280216678110933,0.7685053788052185,0.5966277561608297
1682104753788765,-0.2775310902571144,0.7653315022507057,0.5995574883649955
1682104753804744,-0.2697184710460059,0.7688715953307392,0.5800259403372241
1682104753820724,-0.2692301823453116,0.7661860074769207,0.5882047760738534
1682104753836704,-0.26312657358663305,0.7664301518272678,0.5983367666132597
1682104753852684,-0.25690089265278093,0.76752880140383,0.5983367666132597
1682104753868663,-0.2533607995727474,0.7676508735790035,0.6050507362478061
1682104753884643,-0.2590981918059052,0.7674067292286564,0.6128633554589147
1682104753900623,-0.25799954222934307,0.764965285725185,0.607370107576104
1682104753916603,-0.2616617074845502,0.7619134813458457,0.5940642404821848
1682104753932582,-0.2717936980239566,0.7445792324711986,0.5989471274891276
1682104753948547,-0.2809491111619744,0.7368886854352636,0.606515602349889
1682104753964527,-0.281071183337148,0.7528801403830014,0.6166475928892954
1682104753980507,-0.2641031509880216,0.7912108033875027,0.5880827038986798
1682104753996486,-0.25262836652170595,0.8191653315022505,0.6085908293278397
1682104754012466,-0.25555809872587165,0.8292973220416568,0.6096894789044018
1682104754028446,-0.26520180056458376,0.8136720836194398,0.6287327382314798
1682104754044426,-0.27154955367360945,0.7886472877088577,0.6027313649195083
1682104754060405,-0.2780193789578087,0.7781490806439306,0.5822232394903484
1682104754076385,-0.2809491111619744,0.7715571831845578,0.5623254749370563
1682104754092365,-0.2893720912489508,0.7451895933470665,0.5700160219729913
1682104754108345,-0.3098802166781107,0.7372549019607844,0.5745326924544134
1682104754124324,-0.3230640115968568,0.7416495002670329,0.6233615625238418
1682104754140304,-0.31708247501335185,0.7447013046463722,0.5858854047455555
1682104754156284,-0.30609597924773,0.74702067597467,0.5647669184405277
1682104754172264,-0.306950484473945,0.7409170672159915,0.5471885252155335
1682104754188243,-0.30597390707255645,0.7373769741359579,0.5625696192874035
1682104754204223,-0.30255588616769646,0.7449454489967193,0.5725795376516363
1682104754220203,-0.3082932784008543,0.7510490577553979,0.5912565804531926
1682104754236183,-0.3032883192187379,0.7628900587472343,0.6135957885099561
1682104754252163,-0.2924238956282901,0.7653315022507057,0.5863736934462498
1682104754268127,-0.28998245212481866,0.7617914091706721,0.5701380941481649
1682104754284106,-0.2986495765621422,0.7584954604409857,0.5774624246585791
1682104754300086,-0.3049973296711679,0.7588616769665064,0.5974822613870447
1682104754316065,-0.30682841229877145,0.7595941100175478,0.6170138094148161
1682104754332044,-0.2977950713359272,0.7810788128480963,0.6122529945830468
1682104754348024,-0.29303425650415793,0.785717555504692,0.5930876630807962
1682104754364003,-0.28632028686961153,0.7887693598840313,0.5984588387884333
1682104754379982,-0.28583199816891725,0.7766842145418478,0.5993133440146483
1682104754395961,-0.28546578164339653,0.761547264820325,0.601388570992599
1682104754411941,-0.2880292973220415,0.7509269855802243,0.5861295490959026
1682104754427920,-0.29962615396353076,0.7299305714503701,0.5665980010681313
1682104754443899,-0.30511940184634145,0.7265125505455101,0.5824673838406955
1682104754459879,-0.30255588616769646,0.729686427100023,0.5801480125123977
1682104754475858,-0.3003585870145722,0.7356679636835279,0.5825894560158691
1682104754491837,-0.3031662470435643,0.7476310368505379,0.5900358587014569
1682104754507816,-0.2957198443579765,0.7498283360036622,0.5991912718394747
1682104754523796,-0.2991378652628365,0.75214770733196,0.5994354161898219
1682104754539775,-0.29889372091248934,0.7527580682078279,0.5879606317235062
1682104754555754,-0.3049973296711679,0.7527580682078279,0.594552529182879
1682104754571734,-0.30560769054703574,0.7526359960326543,0.6109102006561375
1682104754587707,-0.2999923704890515,0.7616693369954985,0.6095674067292283
1682104754603686,-0.2919356069275958,0.7730220492866406,0.6033417257953761
1682104754619666,-0.28754100862134724,0.7790035858701456,0.5995574883649955
1682104754635645,-0.2872968642710001,0.7732661936369878,0.6071259632257568
1682104754651624,-0.28741893644617367,0.7622796978713664,0.592843518730449
1682104754667604,-0.2962081330586708,0.7500724803540093,0.6000457770656897
1682104754683583,-0.3019455252918286,0.7449454489967193,0.5841763942931255
1682104754699562,-0.2991378652628365,0.7439688715953308,0.5849088273441669
1682104754715541,-0.29462119478141435,0.7489738307774472,0.5987029831387805
1682104754731521,-0.2876630807965208,0.7571526665140764,0.6026092927443347
1682104754747500,-0.28583199816891725,0.7597161821927214,0.6228732738231475
1682104754763479,-0.28998245212481866,0.7567864499885557,0.6093232623788811
1682104754779459,-0.29303425650415793,0.7604486152437628,0.5924773022049283
1682104754795438,-0.29718471046005934,0.7580071717402914,0.5941863126573583
1682104754811417,-0.2931563286793315,0.7543450064850843,0.5879606317235062
1682104754827396,-0.2909590295262072,0.7545891508354314,0.5905241474021512
1682104754843376,-0.2952315556572822,0.7498283360036622,0.5940642404821848
1682104754859355,-0.2957198443579765,0.7520256351567864,0.5913786526283662
1682104754875334,-0.30060273136491933,0.7489738307774472,0.6074921797512776
1682104754891314,-0.2985275043869686,0.7544670786602579,0.6027313649195083
1682104754907287,-0.2926680399786372,0.753002212558175,0.5900358587014569
1682104754923267,-0.2947432669565879,0.75385671778439,0.5983367666132597
1682104754939246,-0.2962081330586708,0.7498283360036622,0.6087129015030133
1682104754955225,-0.2886396581979094,0.7527580682078279,0.5932097352559698
1682104754971204,-0.2859540703440908,0.7522697795071336,0.5818570229648277
1682104754987184,-0.2871747920958265,0.7499504081788357,0.5972381170366976
1682104755003163,-0.28705271992065295,0.7425040054932479,0.6004119935912104
1682104755019142,-0.2894941634241244,0.7433585107194629,0.6074921797512776
1682104755035122,-0.29376668955519936,0.7506828412298772,0.6137178606851297
1682104755051101,-0.28754100862134724,0.7536125734340429,0.5984588387884333
1682104755067080,-0.2888838025482565,0.7545891508354314,0.597116044861524
1682104755083059,-0.2955977721828029,0.75043869687953,0.6100556954299226
1682104755099039,-0.2915693904020751,0.7531242847333486,0.6016327153429462
1682104755115018,-0.28912794689860366,0.7533684290836957,0.5944304570077055
1682104755130997,-0.29047074082551294,0.7562981612878614,0.5947966735332262
1682104755146977,-0.2924238956282901,0.7556878004119936,0.5976043335622183
1682104755162956,-0.2918135347524222,0.7548332951857786,0.6027313649195083
1682104755178935,-0.28632028686961153,0.7525139238574807,0.6012664988174254
1682104755194914,-0.2876630807965208,0.754711223010605,0.6054169527733269
1682104755210894,-0.2897383077744715,0.7556878004119936,0.5946746013580526
1682104755226867,-0.2938887617303729,0.7567864499885557,0.5932097352559698
1682104755242847,-0.29962615396353076,0.7549553673609521,0.5941863126573583
1682104755258826,-0.30353246356908503,0.7499504081788357,0.6045624475471119
1682104755274805,-0.3049973296711679,0.7477531090257115,0.6002899214160369
1682104755290784,-0.3037766079194322,0.7566643778133821,0.6162813763637747
1682104755306764,-0.2973067826352329,0.764965285725185,0.5939421683070112
1682104755322743,-0.29510948348210864,0.7670405127031357,0.5930876630807962
1682104755338722,-0.29791714351110077,0.7707026779583428,0.5941863126573583
1682104755354702,-0.2957198443579765,0.7667963683527885,0.6057831692988476
1682104755370681,-0.2976729991607536,0.7626459143968871,0.5976043335622183
1682104755386660,-0.3019455252918286,0.7613031204699778,0.6129854276340883
1682104755402639,-0.30170138094148147,0.75898374914168,0.6096894789044018
1682104755418619,-0.2964522774090179,0.7578850995651178,0.6004119935912104
1682104755434598,-0.29413290608072007,0.7599603265430686,0.609933623254749
1682104755450577,-0.30182345311665504,0.7482413977264057,0.603097581445029
1682104755466557,-0.30170138094148147,0.747875181200885,0.5921110856794076
1682104755482536,-0.3065842679484243,0.7486076142519265,0.5888151369497212
1682104755498515,-0.3079270618753336,0.75214770733196,0.5961394674601355
1682104755514495,-0.30609597924773,0.7550774395361257,0.6007782101167312
1682104755530474,-0.30011444266422505,0.7614251926451514,0.606515602349889
1682104755546447,-0.29425497825589364,0.7631342030975814,0.607370107576104
1682104755562427,-0.28827344167238866,0.7638666361486228,0.603097581445029
1682104755578406,-0.2935225452048522,0.7633783474479285,0.6072480354009304
1682104755594385,-0.2985275043869686,0.7609369039444571,0.6076142519264511
1682104755610365,-0.2974288548104065,0.7604486152437628,0.5995574883649955
1682104755626344,-0.2952315556572822,0.7663080796520942,0.601388570992599
1682104755642323,-0.2914473182269015,0.7628900587472343,0.6006561379415576
1682104755658302,-0.2909590295262072,0.7587396047913328,0.6038300144960704
1682104755674282,-0.2880292973220415,0.7526359960326543,0.6071259632257568
1682104755690261,-0.2872968642710001,0.7486076142519265,0.5893034256504155
1682104755706240,-0.2907148851758601,0.7425040054932479,0.6101777676050961
1682104755722220,-0.28656443121995867,0.7425040054932479,0.6021210040436404
1682104755738199,-0.28546578164339653,0.7487296864271,0.5922331578545812
1682104755754178,-0.26153963530937663,0.7172350652323187,0.609933623254749
1682104755770157,-0.28912794689860366,0.7462882429236286,0.6146944380865182
1682104755786137,-0.28497749294270225,0.74360265506981,0.6348363469901583
1682104755802116,-0.27875181200885013,0.7528801403830014,0.6290989547570005
1682104755818095,-0.27655451285572585,0.7630121309224078,0.6035858701457233
1682104755834075,-0.279362172884718,0.7682612344548714,0.6033417257953761
1682104755850054,-0.28656443121995867,0.7638666361486228,0.591134508278019
1682104755866027,-0.29132524605172794,0.7549553673609521,0.609933623254749
1682104755882007,-0.2898603799496451,0.7505607690547036,0.5999237048905162
1682104755897986,-0.2859540703440908,0.7451895933470665,0.6015106431677726
1682104755913965,-0.28278019378957797,0.7475089646753643,0.596261539635309
1682104755929945,-0.28448920424200796,0.7543450064850843,0.5893034256504155
1682104755945924,-0.2893720912489508,0.7522697795071336,0.6070038910505833
1682104755961903,-0.2893720912489508,0.75214770733196,0.6006561379415576
1682104755977882,-0.28754100862134724,0.7514152742809186,0.615915159838254
1682104755993862,-0.28168154421301583,0.7550774395361257,0.6063935301747154
1682104756009841,-0.277653162432288,0.7580071717402914,0.599679560540169
1682104756025820,-0.27985046158541227,0.75214770733196,0.606515602349889
1682104756041800,-0.28326848249027226,0.7497062638284886,0.6081025406271454
1682104756057779,-0.2831464103150987,0.7499504081788357,0.6000457770656897
1682104756073758,-0.2800946059357594,0.7561760891126879,0.5934538796063169
1682104756089738,-0.2822919050888837,0.7584954604409857,0.6017547875181197
1682104756105717,-0.28155947203784226,0.7621576256961928,0.6105439841306168
1682104756121696,-0.2821698329137101,0.75727473868925,0.6160372320134275
1682104756137675,-0.2818036163881894,0.7536125734340429,0.6068818188754097
1682104756153655,-0.28839551384756223,0.7493400473029679,0.6063935301747154
1682104756169634,-0.2926680399786372,0.7472648203250172,0.6110322728313111
1682104756185608,-0.2855878538185701,0.7476310368505379,0.5916227969787133
1682104756201587,-0.2868085755703058,0.7457999542229343,0.5869840543221176
1682104756217566,-0.2919356069275958,0.7420157167925536,0.5861295490959026
1682104756233545,-0.29755092698558006,0.7403067063401236,0.6115205615320054
1682104756249525,-0.2964522774090179,0.7429922941939422,0.6054169527733269
1682104756265504,-0.29413290608072007,0.7460440985732815,0.6026092927443347
1682104756281483,-0.29498741130693507,0.746166170748455,0.5972381170366976
1682104756297463,-0.29840543221179505,0.7503166247043564,0.607370107576104
1682104756313442,-0.2974288548104065,0.75556572823682,0.6111543450064847
1682104756329421,-0.29169146257724865,0.75727473868925,0.6004119935912104
1682104756345400,-0.2893720912489508,0.7543450064850843,0.5923552300297548
1682104756361380,-0.29510948348210864,0.7483634699015793,0.5980926222629126
1682104756377359,-0.3015793087663079,0.744457160296025,0.6062714579995419
1682104756393338,-0.2999923704890515,0.7410391393911651,0.6004119935912104
1682104756409318,-0.29669642175936506,0.7420157167925536,0.5935759517814905
1682104756425297,-0.29169146257724865,0.749584191653315,0.5951628900587469
1682104756441276,-0.2926680399786372,0.753002212558175,0.6011444266422519
1682104756457255,-0.2976729991607536,0.7484855420767529,0.6140840772106504
1682104756473235,-0.29974822613870433,0.7494621194781415,0.6144502937361711
1682104756489214,-0.2943770504310672,0.7519035629816129,0.6041962310215911
1682104756505188,-0.2880292973220415,0.7532463569085222,0.5906462195773248
1682104756521167,-0.28497749294270225,0.7602044708934157,0.5912565804531926
1682104756537146,-0.2847333485923551,0.7617914091706721,0.6007782101167312
1682104756553125,-0.28741893644617367,0.7611810482948043,0.6059052414740211
1682104756569105,-0.29132524605172794,0.75898374914168,0.6139620050354768
1682104756585084,-0.29889372091248934,0.7580071717402914,0.6032196536202026
1682104756601063,-0.29584191653315006,0.7551995117112993,0.6051728084229797
1682104756617043,-0.2869306477454794,0.753002212558175,0.5957732509346148
1682104756633022,-0.27655451285572585,0.7653315022507057,0.5900358587014569
1682104756649001,-0.2766765850308994,0.7561760891126879,0.6087129015030133
1682104756664981,-0.27496757457846943,0.75898374914168,0.6038300144960704
1682104756680960,-0.2850995651178758,0.7522697795071336,0.6033417257953761
1682104756696939,-0.2923018234531165,0.7525139238574807,0.6076142519264511
1682104756712918,-0.29462119478141435,0.7548332951857786,0.5891813534752419
1682104756728898,-0.29120317387655437,0.7608148317692836,0.5762417029068434
1682104756744877,-0.2877851529716944,0.7677729457541771,0.5747768368047605
1682104756760856,-0.2918135347524222,0.7754634927901121,0.5845426108186462
1682104756776836,-0.30060273136491933,0.7758297093156328,0.6146944380865182
1682104756792815,-0.30548561837186217,0.7765621423666742,0.6172579537651632
1682104756808794,-0.30389868009460574,0.7859616998550392,0.606515602349889
1682104756824768,-0.30682841229877145,0.7935301747158006,0.5913786526283662
1682104756840747,-0.31146715495536714,0.7971923399710077,0.6117647058823525
1682104756856726,-0.31146715495536714,0.7969481956206605,0.609933623254749
1682104756872706,-0.3075608453498129,0.7938963912413213,0.6278782330052648
1682104756888685,-0.3032883192187379,0.787426565957122,0.6408178835736633
1682104756904664,-0.2991378652628365,0.7802243076218813,0.6422827496757462
1682104756920643,-0.2915693904020751,0.7815671015487906,0.6083466849774926
1682104756936623,-0.29669642175936506,0.779736018921187,0.5960173952849619
1682104756952602,-0.3176928358892197,0.761547264820325,0.6026092927443347
1682104756968581,-0.32587167162584896,0.7484855420767529,0.609079118028534
1682104756984561,-0.32343022812237754,0.7459220263981079,0.5963836118104826
1682104757000540,-0.3202563515678647,0.7428702220187686,0.5976043335622183
1682104757016519,-0.31793698023956685,0.7407949950408179,0.6243381399252304
1682104757032498,-0.30890363927672215,0.7438467994201572,0.618478675516899
1682104757048478,-0.3010910200656136,0.7567864499885557,0.6146944380865182
1682104757064457,-0.30011444266422505,0.7440909437705043,0.6269016556038762
1682104757080436,-0.29669642175936506,0.7356679636835279,0.6316624704356455
1682104757096416,-0.28961623559929794,0.7244373235675594,0.6325169756618605
1682104757112395,-0.27997253376058584,0.7317616540779737,0.6510719462882433
1682104757128374,-0.276798657206073,0.7266346227206837,0.6720683604180975
1682104757144348,-0.2728923476005187,0.7218738078889144,0.6823224231326774
1682104757160327,-0.2704509040970473,0.7396963454642558,0.654001678492409
1682104757176306,-0.2766765850308994,0.7367666132600901,0.6398413061722747
1682104757192286,-0.2860761425192644,0.7277332722972458,0.6631570916304268
1682104757208265,-0.2833905546654458,0.7234607461661708,0.684153505760281
1682104757224244,-0.27484550240329586,0.7183337148088809,0.6349584191653319
1682104757240224,-0.25604638742656594,0.7577630273899443,0.6894026092927446
1682104757256203,-0.24750133516441597,0.7645990691996642,0.7259021896696423
1682104757272182,-0.19806210421911974,0.7760738536659799,0.7178454261081866
1682104757288161,-0.2208896009765775,0.7150377660791944,0.7503166247043564
1682104757304141,-0.22357518883039607,0.7017318989852752,0.7462882429236286
1682104757320120,-0.2418860151064317,0.6525368123903261,0.7464103150988022
1682104757336099,-0.24542610818646526,0.6272678721293969,0.7079575799191273
1682104757352079,-0.2632486457618066,0.602243076218814,0.7000228885328452
1682104757368058,-0.27069504844739445,0.5889372091248948,0.6929427023727781
1682104757384037,-0.2666666666666666,0.5873502708476384,0.6768291752498667
1682104757400016,-0.27618829633020514,0.5884489204242005,0.6623025864042118
1682104757415996,-0.28839551384756223,0.606515602349889,0.6541237506675825
1682104757431975,-0.29510948348210864,0.6306858930342569,0.6485084306095983
1682104757447954,-0.27777523460746156,0.693553063248646,0.6304417486839098
1682104757463928,-0.25091935606927596,0.7101548790722516,0.6426489662012669
1682104757479907,-0.2638590066376745,0.7154039826047152,0.6837872892347603
1682104757495886,-0.2556801709010452,0.6638895246814682,0.7082017242694745
1682104757511866,-0.26349279011215376,0.573800259403372,0.7508049134050507
1682104757527845,-0.2752117189288166,0.5480430304417485,0.7289539940489815
1682104757543824,-0.2578774700541695,0.5934538796063169,0.6986800946059359
1682104757559804,-0.25641260395208665,0.6175020981155104,0.6637674525062947
1682104757575783,-0.2658121614404516,0.6171358815899897,0.6586404211490047
1682104757591762,-0.26434729533836876,0.6220187685969325,0.6563210498207068
1682104757607741,-0.2620279240100709,0.6225070572976268,0.649729152361334
1682104757623721,-0.2650797283894102,0.6062714579995419,0.6601052872510875
1682104757639700,-0.27228198672465087,0.6243381399252304,0.6690165560387582
1682104757655679,-0.27862973983367656,0.6542458228427561,0.6740215152208746
1682104757671659,-0.27655451285572585,0.6878156710154881,0.6825665674830246
1682104757687638,-0.26434729533836876,0.7207751583123523,0.6774395361257346
1682104757703617,-0.2594644083314259,0.7299305714503701,0.6822003509575039
1682104757719596,-0.25690089265278093,0.7320057984283208,0.6863508049134053
1682104757735576,-0.2582436865796902,0.7239490348668651,0.7086900129701688
1682104757751555,-0.2444495307850767,0.7343251697566187,0.7013656824597545
1682104757767534,-0.22284275577935464,0.7609369039444571,0.712596322575723
1682104757783508,-0.19769588769359903,0.7554436560616464,0.683299000534066
1682104757799487,-0.17987335011825722,0.7381094071869994,0.7224841687647823
1682104757815467,-0.17462424658579367,0.7171129930571452,0.7860837720302127
1682104757831446,-0.15277332722972448,0.7528801403830014,0.8185549706263826
1682104757847425,-0.09893949797817969,0.8043945983062484,0.7517814908064393
1682104757863404,-0.09747463187609684,0.7725337605859464,0.8039063096055541
1682104757879384,-0.13177691309987027,0.727122911421378,0.7554436560616464
1682104757895363,-0.16437018387121372,0.7149156939040209,0.7643549248493171
1682104757911342,-0.16668955519951156,0.7276112001220723,0.7204089417868316
1682104757927322,-0.1677882047760737,0.7372549019607844,0.6967269398031588
1682104757943301,-0.1727931639581901,0.7570305943389029,0.6776836804760817
1682104757959280,-0.17010757610437155,0.7323720149538415,0.6897688258182653
1682104757975259,-0.1719386587319751,0.6953841458762495,0.6851300831616696
1682104757991239,-0.1870756084534979,0.6768291752498667,0.7042954146639202
1682104758007218,-0.1779201953154801,0.6800030518043796,0.6891584649423974
1682104758023197,-0.1564354924849316,0.6690165560387582,0.6864728770885788
1682104758039177,-0.14398413061722737,0.6579079880979632,0.6886701762417031
1682104758055156,-0.14288548104066523,0.6502174410620283,0.6811017013809417
1682104758071135,-0.1585107194628823,0.6619363698786911,0.6806134126802474
1682104758087114,-0.17145037003128083,0.6580300602731368,0.6836652170595867
1682104758103119,-0.1619287403677423,0.6734111543450068,0.6748760204470896
1682104758119098,-0.14923323414969092,0.6929427023727781,0.6413061722743576
1682104758135077,-0.14789044022278164,0.6919661249713895,0.6343480582894641
1682104758151056,-0.15082017242694734,0.7060044251163502,0.6476539253833833
1682104758167036,-0.15680170901045232,0.7274891279468987,0.6741435873960482
1682104758183015,-0.15594720378423732,0.7434805828946365,0.6657206073090718
1682104758198994,-0.161440451667048,0.7392080567635615,0.6504615854123754
1682104758214974,-0.17022964827954512,0.7320057984283208,0.6520485236896318
1682104758230953,-0.18390173189898507,0.727977416647593,0.6776836804760817
1682104758246932,-0.19464408331425975,0.7165026321812773,0.6994125276569774
1682104758262911,-0.20587472343022828,0.716014343480583,0.6859845883878846
1682104758278891,-0.20880445563439398,0.7107652399481195,0.6724345769436182
1682104758294870,-0.22125581750209822,0.7188220035095751,0.6012664988174254
1682104758310849,-0.21307698176546896,0.6906233310444803,0.6364232852674148
1682104758326829,-0.21441977569237824,0.7113756008239873,0.6017547875181197
1682104758342808,-0.22711528191042962,0.6903791866941331,0.6366674296177619
1682104758358787,-0.2461585412375067,0.6999008163576717,0.6298313878080419
1682104758374766,-0.24835584039063097,0.7287098496986344,0.6365453574425883
1682104758390746,-0.2339513237201496,0.7686274509803921,0.636911573968109
1682104758406725,-0.21014724956130326,0.7761959258411535,0.6690165560387582
1682104758422699,-0.19293507286182976,0.7648432135500114,0.7261463340199894
1682104758438678,-0.1846341649500265,0.7482413977264057,0.74360265506981
1682104758454657,-0.1867093919279772,0.7542229343099107,0.714305333028153
1682104758470636,-0.1973296711680783,0.7429922941939422,0.6870832379644467
1682104758486616,-0.2057526512550547,0.727977416647593,0.6789044022278174
1682104758502595,-0.21612878614480824,0.7123521782253759,0.6984359502555888
1682104758518574,-0.21698329137102323,0.7053940642404823,0.7057602807660031
1682104758534554,-0.21393148699168396,0.6992904554818038,0.7082017242694745
1682104758550533,-0.21747158007171752,0.7052719920653088,0.7072251468680859
1682104758566512,-0.22272068360418107,0.7030746929121845,0.7232166018158237
1682104758582491,-0.21893644617380037,0.7140611886778059,0.6887922484168767
1682104758598471,-0.21747158007171752,0.7071030746929123,0.688426031891356
1682104758614450,-0.21405355916685753,0.7003891050583659,0.6948958571755552
1682104758630429,-0.204531929503319,0.6951400015259024,0.7107652399481195
1682104758646409,-0.201968413824674,0.694407568474861,0.7025864042114902
1682104758662388,-0.2057526512550547,0.6997787441824981,0.7038071259632259
1682104758678367,-0.21356527046616325,0.7029526207370109,0.7096665903715573
1682104758694347,-0.21344319829098968,0.7060044251163502,0.7075913633936066
1682104758710326,-0.2112458991378654,0.712596322575723,0.7338368810559244
1682104758726305,-0.21014724956130326,0.7183337148088809,0.7439688715953308
1682104758742279,-0.20392156862745114,0.7345693141069658,0.7644769970244907
1682104758758258,-0.1965972381170369,0.7447013046463722,0.751293202105745
1682104758774237,-0.1961089494163426,0.7799801632715342,0.7199206530861373
1682104758790217,-0.20892652780956755,0.8231937132829783,0.6900129701686124
1682104758806196,-0.18475623712520006,0.8344243533989468,0.7212634470130466
1682104758822175,-0.18097199969481936,0.8054932478828105,0.7854734111543449
1682104758838154,-0.18597695887693577,0.783154039826047,0.74531166552224
1682104758854134,-0.1757228961623558,0.7460440985732815,0.7685053788052185
1682104758870113,-0.164858472571908,0.7188220035095751,0.7005111772335395
1682104758886092,-0.166567483024338,0.6879377431906617,0.690989547570001
1682104758902072,-0.19269092851148262,0.6375219348439769,0.7106431677729459
1682104758918051,-0.20306706340123615,0.6209201190203704,0.7111314564736402
1682104758934030,-0.20514229037918685,0.6306858930342569,0.7266346227206837
1682104758950009,-0.21844815747310609,0.618478675516899,0.6873273823147938
1682104758965989,-0.22247653925383393,0.6253147173266198,0.6715800717174032
1682104758981968,-0.21454184786755182,0.6499732967116811,0.6735332265201803
1682104758997947,-0.22540627145799963,0.6466773479819947,0.6674296177615018
1682104759013927,-0.2272373540856032,0.6339818417639433,0.6729228656443125
1682104759029906,-0.21490806439307253,0.642038605325399,0.6787823300526439
1682104759045885,-0.21820401312275894,0.6491187914854661,0.6780498970016025
1682104759061859,-0.22858014801251247,0.646311131456474,0.6902571145189595
1682104759077838,-0.22504005493247892,0.6703593499656675,0.6968490119783324
1682104759093817,-0.21600671396963467,0.6812237735561153,0.7133287556267645
1682104759109797,-0.21429770351720467,0.6861066605630581,0.7110093842984666
1682104759125776,-0.2171053635461968,0.6983138780804152,0.7075913633936066
1682104759141755,-0.22064545662623036,0.6997787441824981,0.6972152285038531
1682104759157734,-0.22284275577935464,0.6988021667811095,0.7030746929121845
1682104759173714,-0.2213778896772718,0.7044174868390938,0.7144274052033266
1682104759189693,-0.2179598687724118,0.7036850537880524,0.7246814679179066
1682104759205672,-0.20819409475852613,0.7012436102845809,0.7326161593041887
1682104759221652,-0.19708552681773117,0.7064927138170445,0.7277332722972458
1682104759237631,-0.19891660944533474,0.7039291981383995,0.7339589532310979
1682104759253610,-0.19623102159151617,0.6981918059052417,0.7302967879758908
1682104759269590,-0.19098191805905262,0.6924544136720838,0.7316395819028001
1682104759285569,-0.1943999389639126,0.6796368352788589,0.7366445410849165
1682104759301548,-0.19684138246738403,0.6736552986953539,0.7440909437705043
1682104759317527,-0.19305714503700333,0.6767071030746932,0.7374990463111315
1682104759333507,-0.1923247119859619,0.673044937819486,0.7282215609979401
1682104759349486,-0.19049362935835834,0.6668192568856339,0.7261463340199894
1682104759365465,-0.19293507286182976,0.6642557412069889,0.7290760662241551
1682104759381439,-0.19708552681773117,0.6555886167696654,0.7301747158007172
1682104759397418,-0.19891660944533474,0.6653543907835511,0.7274891279468987
1682104759413397,-0.20440985732814543,0.6715800717174032,0.7244373235675594
1682104759429377,-0.21026932173647683,0.672190432593271,0.7267566948958573
1682104759445356,-0.20941481651026184,0.6803692683299003,0.7241931792172123
1682104759461335,-0.21051346608682397,0.6828107118333717,0.7140611886778059
1682104759477315,-0.21783779659723823,0.6786602578774703,0.7118638895246816
1682104759493294,-0.21954680704966822,0.683299000534066,0.7162584878309302
1682104759509273,-0.21893644617380037,0.6974593728542002,0.7235828183413444
1682104759525252,-0.22235446707866036,0.6957503624017702,0.7249256122682537
1682104759541232,-0.22491798275730535,0.6981918059052417,0.7179674982833602
1682104759557211,-0.22796978713664462,0.6913557640955217,0.7173571374074923
1682104759573190,-0.22687113756008248,0.6881818875410088,0.7039291981383995
1682104759589170,-0.23212024109254603,0.6879377431906617,0.6955062180514231
1682104759605149,-0.23712520027466244,0.6950179293507288,0.7039291981383995
1682104759621128,-0.22919050888838033,0.6970931563286795,0.7051499198901352
1682104759637107,-0.22076752880140393,0.6907454032196538,0.7050278477149616
1682104759653087,-0.22308690012970178,0.6823224231326774,0.7031967650873581
1682104759669066,-0.23358510719462888,0.6717021438925768,0.7058823529411766
1682104759685045,-0.23749141680018315,0.6665751125352868,0.7068589303425652
1682104759701019,-0.23260852979324032,0.6692607003891053,0.6942854962996874
1682104759716998,-0.23504997329671173,0.6674296177615018,0.6947737850003817
1682104759732977,-0.24139772640573742,0.6664530403601132,0.7031967650873581
1682104759748957,-0.24115358205539028,0.676462958724346,0.7102769512474252
1682104759764936,-0.2322423132677196,0.6870832379644467,0.6996566720073245
1682104759780915,-0.2322423132677196,0.6857404440375374,0.6946517128252081
1682104759796895,-0.23651483939879459,0.6792706187533382,0.6986800946059359
1682104759812874,-0.23663691157396816,0.6813458457312889,0.7007553215838866
1682104759828853,-0.23041123064011604,0.6836652170595867,0.7006332494087131
1682104759844833,-0.23419546807049674,0.6900129701686124,0.7034409094377052
1682104759860812,-0.24042114900434886,0.6894026092927446,0.7113756008239873
1682104759876791,-0.24213015945677885,0.6856183718623639,0.7090562294956895
1682104759892770,-0.23578240634775316,0.6797589074540324,0.7003891050583659
1682104759908750,-0.23675898374914173,0.6708476386663618,0.7020981155107959
1682104759924729,-0.2410315098802167,0.6636453803311211,0.7062485694666973
1682104759940708,-0.24249637598229956,0.6676737621118489,0.7122301060502023
1682104759956688,-0.23627069504844744,0.6793926909285117,0.713450827801938
1682104759972667,-0.23468375677119102,0.6814679179064624,0.7138170443274587
1682104759988646,-0.24005493247882814,0.675608453498131,0.7205310139620051
1682104760004625,-0.24176394293125814,0.6691386282139318,0.7210193026626994
1682104760020599,-0.24286259250782027,0.6657206073090718,0.7233386739909973
1682104760036578,-0.2456702525368124,0.6690165560387582,0.7178454261081866
1682104760052558,-0.24200808728160528,0.6782940413519496,0.7116197451743345
1682104760068537,-0.2385900663767453,0.6782940413519496,0.6990463111314567
1682104760084516,-0.24603646906233312,0.6734111543450068,0.7114976729991609
1682104760100495,-0.2439612420843824,0.6602273594262611,0.7287098496986344
1682104760116475,-0.23797970550087744,0.6474097810330361,0.7434805828946365
1682104760132454,-0.22858014801251247,0.6491187914854661,0.7534905012588693
1682104760148433,-0.21405355916685753,0.6594949263752197,0.7486076142519265
1682104760164413,-0.21441977569237824,0.6712138551918825,0.7365224689097429
1682104760180392,-0.21576256961928753,0.6835431448844131,0.7339589532310979
1682104760196371,-0.20233463035019472,0.6791485465781646,0.7655756466010528
1682104760212350,-0.14032196536202024,0.6728007934691389,0.7986572060730905
1682104760228330,-0.11663996337834748,0.6988021667811095,0.8736095216296631
1682104760244309,-0.10516517891203181,0.6740215152208746,0.8910658426794846
1682104760260288,-0.06756694895857196,0.8134279392690926,0.9715114061188679
1682104760276268,-0.04046692607003877,0.8399176012817575,1.0132600900282291
1682104760292247,0.0042114900434881974,0.896070801861601,1.0490272373540854
1682104760308226,-0.046570534828717314,0.8856946669718475,1.0625772487983518
1682104760324206,-0.09234760051880686,0.8460212100404361,1.0757610437170975
1682104760340179,-0.1030899519340811,0.754711223010605,1.0943160143434802
1682104760356158,-0.08661020828564903,0.6865949492637524,1.067948424505989
1682104760372138,-0.07904173342488763,0.5839322499427784,1.0060578316929885
1682104760388117,-0.06256198977645555,0.5034866865033951,0.9395284962233923
1682104760404096,-0.07501335164415979,0.4149843595025562,0.8603036545357439
1682104760420076,-0.0879530022125583,0.3872739757381556,0.8225833524071104
1682104760436055,-0.08014038300144977,0.346501869230182,0.7652094300755321
1682104760452034,-0.07183947508964694,0.3301441977569235,0.7294422827496758
1682104760468013,-0.054627298390172996,0.32147707331959996,0.697825589379721
1682104760483993,-0.036194399938963784,0.3402761882963299,0.6953841458762495
1682104760499972,-0.02020294499122599,0.3902037079423213,0.715159838254368
1682104760515951,0.019470511940184565,0.4573434042877853,0.7766842145418478
1682104760531931,0.04876783398184159,0.5314412146181429,0.8517586022735939
1682104760547910,0.042664225223163044,0.595407034409094,0.8845960173952854
1682104760563889,0.023743038071259548,0.658274204623484,0.8847180895704589
1682104760579868,0.031311512932020946,0.6980697337300681,0.8853284504463268
1682104760595848,0.05401693751430514,0.7080796520943009,0.9098649576562146
1682104760611827,0.04986648355840373,0.6566872663462275,0.9232928969253074
1682104760627806,0.009460593575951748,0.6839093614099339,0.9363546196688795
1682104760643786,0.07684443427176291,0.6195773250934611,0.8996108949416346
1682104760659759,0.07696650644693648,0.5725795376516363,0.8284428168154419
1682104760675738,0.008117799649042468,0.5326619363698786,0.781445029373617
1682104760691718,0.06378271152819082,0.4397650110627911,0.7527580682078279
1682104760707697,0.07037460898756365,0.4158388647287712,0.721141374837873
1682104760723676,0.09015030136568214,0.4053406576638441,0.6851300831616696
1682104760739656,0.124330510414282,0.4099794003204398,0.6852521553368431
1682104760755635,0.1289692530708786,0.4237735561150533,0.744457160296025
1682104760771614,0.1100480659189742,0.4107118333714812,0.7971923399710077
1682104760787593,0.1289692530708786,0.4303654535744261,0.7904783703364613
1682104760803573,0.15594720378423776,0.4624704356450753,0.7737544823376821
1682104760819552,0.14691386282139351,0.5053177691309987,0.7370107576104372
1682104760835531,0.09845120927748496,0.4330510414282447,0.7051499198901352
1682104760851511,0.10553139543755208,0.4149843595025562,0.7372549019607844
1682104760867490,0.10516517891203137,0.40424200808728195,0.7770504310673685
1682104760883469,0.10235751888303923,0.4177920195315483,0.8308842603189133
1682104760899448,0.11163500419623062,0.44708934157320535,0.8568856336308839
1682104760915428,0.12286564431219915,0.4719920653086138,0.8814221408407725
1682104760931407,0.12384222171358772,0.4236514839398797,0.9328145265888459
1682104760947386,0.10174715800717138,0.5054398413061723,0.9267109178301673
1682104760963366,0.11261158159761919,0.5280231937132829,0.9212176699473567
1682104760979370,0.11444266422522276,0.5803921568627448,0.953566796368353
1682104760995349,0.11969176775768631,0.5836881055924312,0.9590600442511636
1682104761011328,0.11224536507209848,0.5606164644846263,0.9875028610666057
1682104761027308,0.0701304646372165,0.5252155336842907,0.9953154802777142
1682104761043287,0.029480430304417382,0.5128862439917601,0.9733424887464714
1682104761059266,0.02154573891813527,0.48480964370183877,0.9604028381780729
1682104761075245,0.042786297398336615,0.5501182574196992,0.9569848172732129
1682104761091225,0.09991607537956781,0.6957503624017702,0.8603036545357439
1682104761107204,0.07550164034485363,0.6789044022278174,0.8174563210498205
1682104761123183,0.06036469062333083,0.494697489890898,0.8516365300984203
1682104761139163,0.010315098802166744,0.6585183489738311,0.7473868925001907
1682104761155142,-0.020813305867093845,0.6084687571526661,0.6986800946059359
1682104761171121,-0.02288853284504455,0.5833218890669105,0.6814679179064624
1682104761187101,-0.03460746166170736,0.8518806744487675,0.4375677119096668
1682104761203080,0.04095521477073305,1.0623331044480047,0.2504310673685817
1682104761219059,0.050720988784618726,1.1011520561532002,0.3440604257267106
1682104761235038,-0.031067368581673804,0.9677271686884872,0.48651865415426876
1682104761251018,-0.07428091859311836,0.9303730830853745,0.6089570458533604
1682104761266997,-0.05279621576256943,0.9198748760204474,0.6198214694438082
1682104761282976,-0.028503852903028815,0.9269550621805145,0.6199435416189818
1682104761298950,-0.03350881208514522,0.8957045853360803,0.6499732967116811
1682104761314929,-0.040222781719691625,0.9062027924010074,0.6698710612649732
1682104761330908,-0.03143358510719452,0.9092545967803467,0.6797589074540324
1682104761346888,-0.020569161516746703,0.8772716868848711,0.6857404440375374
1682104761362867,-0.027405203326466676,0.8284428168154419,0.6857404440375374
1682104761378846,-0.030945296406500233,0.795117112993057,0.6774395361257346
1682104761394826,-0.044251163500419466,0.7844968337529563,0.6200656137941554
1682104761410805,-0.03936827649347663,0.7948729686427098,0.5298542763408864
1682104761426784,-0.04315251392385733,0.7642328526741435,0.48957045853360803
1682104761442763,-0.07269398031586194,0.7344472419317922,0.5011673151750973
1682104761458743,-0.08233768215457404,0.7038071259632259,0.51972228580148
1682104761474722,-0.08050659952697048,0.6847638666361489,0.5296101319905393
1682104761490701,-0.07879758907454049,0.6974593728542002,0.5371786068513007
1682104761506681,-0.07953002212558191,0.727977416647593,0.5447470817120621
1682104761522660,-0.08831921873807902,0.7687495231555657,0.546211947814145
1682104761538639,-0.07904173342488763,0.7875486381322956,0.5501182574196992
1682104761554618,-0.0875867856870376,0.7920653086137177,0.575509269855802
1682104761570598,-0.09954985885404755,0.7758297093156328,0.6160372320134275
1682104761586577,-0.09308003356984829,0.7693598840314335,0.6492408636606397
1682104761602556,-0.08514534218356618,0.7763179980163271,0.6493629358358133
1682104761618530,-0.08307011520561547,0.7946288242923627,0.6375219348439769
1682104761634509,-0.07818722819867263,0.803662165255207,0.6240939955748832
1682104761650488,-0.09393453879606328,0.7980468451972227,0.6211642633707175
1682104761666468,-0.0896620126649883,0.7907225146868084,0.6278782330052648
1682104761682447,-0.08624399176012831,0.798535133897917,0.6364232852674148
1682104761698426,-0.09100480659189758,0.8130617227435719,0.6542458228427561
1682104761714406,-0.09625391012436113,0.8283207446402683,0.6543678950179297
1682104761730385,-0.09832913710231184,0.8435797665369646,0.6467994201571683
1682104761746364,-0.09967193102922112,0.840650034332799,0.6334935530632491
1682104761762344,-0.1077286945906768,0.8301518272678718,0.6189669642175932
1682104761778323,-0.11761654077973605,0.8037842374303805,0.6088349736781868
1682104761794302,-0.11810482948043033,0.7846189059281299,0.6066376745250626
1682104761810281,-0.11920347905699247,0.7887693598840313,0.6071259632257568
1682104761826261,-0.11688410772869462,0.8035400930800334,0.6143282215609975
1682104761842240,-0.11224536507209892,0.8114747844663155,0.6226291294728004
1682104761858219,-0.11541924162661177,0.8109864957656212,0.6270237277790498
1682104761874199,-0.11663996337834748,0.8069581139848934,0.6221408407721061
1682104761890178,-0.11395437552452892,0.8003662165255205,0.612497138933394
1682104761906157,-0.11676203555352105,0.7870603494316013,0.6062714579995419
1682104761922136,-0.12152285038529032,0.7907225146868084,0.5883268482490269
1682104761938110,-0.12433051041428245,0.8070801861600669,0.5799038681620505
1682104761954089,-0.13482871747920955,0.8173342488746469,0.5692835889219499
1682104761970069,-0.13873502708476382,0.8031738765545127,0.5888151369497212
1682104761986048,-0.14410620279240094,0.8187991149767297,0.5747768368047605
1682104762002027,-0.1547264820325016,0.796826123445487,0.5938200961318376
1682104762018006,-0.15167467765316234,0.798535133897917,0.6129854276340883
1682104762033986,-0.14117647058823524,0.8229495689326312,0.6034637979705497
1682104762049965,-0.1375143053330281,0.8362554360265504,0.6017547875181197
1682104762065944,-0.12884718089570457,0.8432135500114439,0.6037079423208969
1682104762081924,-0.12188906691081103,0.8347905699244675,0.606515602349889
1682104762097903,-0.11602960250247962,0.8196536202029447,0.6173800259403368
1682104762113882,-0.10199130235751896,0.8093995574883648,0.6168917372396425
1682104762129861,-0.09710841535057613,0.8037842374303805,0.6077363241016247
1682104762145841,-0.09466697184710471,0.7979247730220491,0.5933318074311433
1682104762161820,-0.09918364232852683,0.793408102540627,0.5697718776226441
1682104762177799,-0.10003814755474183,0.789135576409552,0.5607385366597999
1682104762193779,-0.09381246662088971,0.7776607919432363,0.5597619592584113
1682104762209758,-0.09393453879606328,0.76069275959411,0.5659876401922634
1682104762225737,-0.09246967269398043,0.7553215838864729,0.5683070115205613
1682104762241716,-0.09356832227054257,0.7595941100175478,0.5730678263523306
1682104762257690,-0.08648813611047546,0.7621576256961928,0.5769741359578848
1682104762273669,-0.08636606393530188,0.76923781185626,0.5856412603952084
1682104762289649,-0.08636606393530188,0.7816891737239642,0.5800259403372241
1682104762305628,-0.08514534218356618,0.7986572060730905,0.568673228046082
1682104762321607,-0.08477912565804546,0.8021972991531241,0.5623254749370563
1682104762337587,-0.0955214770733197,0.7971923399710077,0.5680628671702141
1682104762353566,-0.1060196841382468,0.8004882887006941,0.5779507133592734
1682104762369545,-0.1190814068818189,0.8162355992980848,0.5927214465552755
1682104762385524,-0.11639581902800034,0.8296635385671776,0.6109102006561375
1682104762401504,-0.10492103456168467,0.8328374151216904,0.6178683146410311
1682104762417483,-0.09588769359884042,0.8416266117341875,0.6072480354009304
