Timestamp (microseconds),Gyro X (°/s),Gyro Y (°/s),Gyro Z (°/s)
1682104737009674,-11.490043488212336,-4.440375371938671,24.82642862592502
1682104737025670,5.416952773327239,-5.50850690470736,20.004577706568966
1682104737041666,10.574502174410554,-4.470893415732007,16.952773327229693
1682104737057662,8.163576714732585,-5.2338445105668825,13.962005035477205
1682104737073658,2.1210040436408235,-10.208285648889841,12.375066758220783
1682104737089654,6.179903868162,-16.128786144808146,10.910200656137931
1682104737105650,5.050736247806526,-14.480811779964824,9.201190203707938
1682104737121646,7.003891050583661,-16.037232013428024,6.240939955748786
1682104737137642,0.1373311970702389,-13.260090028229115,5.1117723353933116
1682104737153638,-1.8158236057068962,-10.63553826199734,3.4027618829633184
1682104737169633,0.8087281605248791,-8.438239108873063,-0.93080033569845
1682104737185629,6.393530174715806,-7.339589532310924,-4.86762798504617
1682104737201625,5.53902494850081,-6.0578316929884295,-7.156481269550568
1682104737217621,2.0294499122605885,-5.600061036087595,-8.865491721980561
1682104737233617,3.250171663996298,-6.485084306095928,-9.536888685435201
1682104737249613,0.6866559853513081,-3.341725795376533,-9.628442816815436
1682104737265609,-8.682383459220205,4.257267109178315,-10.574502174410554
1682104737281605,-11.764705882352928,9.140154116121153,-11.520561532005786
1682104737297601,-6.668192568856284,11.093308918898288,-12.710765239948046
1682104737313597,-5.416952773327239,11.367971313038765,-13.015945677881973
1682104737329589,-2.3956664377813013,9.9641412985427,-13.138017853055544
1682104737345585,-0.19836728465702436,11.062790875104838,-13.565270466163042
1682104737361581,2.1515220874341594,12.832837415121617,-14.877546349278987
1682104737377577,4.715037766079149,13.260090028229115,-16.830701152056236
1682104737393573,8.468757152666512,8.865491721980561,-18.417639429312658
1682104737409569,10.574502174410554,5.9357595178148586,-20.035095750362416
1682104737425565,12.191958495460426,1.968413824673803,-21.927214465552765
1682104737441561,12.069886320286855,-1.8158236057068962,-23.453116655222402
1682104737457557,15.609979400320412,-3.4943160143434397,-22.842755779354547
1682104737473553,14.847028305485537,-2.5177386129548722,-19.363698786907776
1682104737489549,12.13092240787364,-3.0365453574426056,-17.31898985275052
1682104737505545,11.459525444419,0.1373311970702389,-17.28847180895707
1682104737521541,7.217517357137353,5.691615167467717,-17.624170290684447
1682104737537537,11.825741969939713,10.269321736476627,-17.56313420309766
1682104737553533,27.969787136644527,17.441062027923977,-20.065613794155865
1682104737569529,39.78027008468757,28.15289539940477,-22.262912947280142
1682104737585525,29.190508888380236,18.539711604486115,-17.86831464103159
1682104737601521,17.80727855344469,2.761882963302014,-13.3211261158159
1682104737617517,7.919432364385443,0.7782101167315432,-10.391393911650198
1682104737633513,7.1869993133440175,-7.339589532310924,-9.56740672922865
1682104737649414,4.776073853665935,-13.962005035477205,-10.696574349584125
1682104737665409,0.93080033569845,-12.52765697718769,-10.543984130617218
1682104737681405,4.135194934004744,-19.516289005874796,-10.940718699931267
1682104737697400,0.22888532845047393,-17.53261615930421,-6.607156481269499
1682104737713396,-0.2594033722438098,-17.86831464103159,-3.006027313649156
1682104737729391,-3.555352101930225,-18.265049210345637,-1.3580529488059483
1682104737745387,-3.9520866712443876,-18.478675516899443,-0.93080033569845
1682104737761382,-2.30411230640118,-20.12664988174265,-2.1515220874341594
1682104737777378,-10.177767605096506,-15.030136568245894,-2.9449912260623705
1682104737793373,-24.46021210040442,-6.118867780575215,-2.731364919508678
1682104737809369,-25.833524071107036,5.50850690470736,-1.846341649500232
1682104737825364,-23.78881513694978,18.35660334172576,0.8087281605248791
1682104737841360,-25.314717326619416,23.45311665522229,2.426184481574751
1682104737857355,-32.0897230487526,24.399176012817406,3.097581445029391
1682104737873351,-36.54535744258794,24.216067750057164,2.731364919508678
1682104737889346,-35.84344243533985,19.91302357518873,1.8768596932936816
1682104737905342,-32.05920500495915,18.47867551689933,3.219653620202962
1682104737921337,-30.838483253223444,19.54680704966802,4.684519722285813
1682104737937333,-26.71854734111548,20.737010757610392,4.379339284351886
1682104737953328,-24.612802319371326,22.964827954528005,3.891050583657602
1682104737969024,-24.734874494544897,22.23239490348658,5.386434729533789
1682104737985019,-25.162127107652395,17.868314641031475,6.332494087129021
1682104738001013,-24.03295948729692,12.954909590295188,5.966277561608308
1682104738017008,-20.065613794155865,8.77393759060044,5.355916685740453
1682104738033002,-17.28847180895707,7.217517357137353,4.745555809872599
1682104738048997,-10.08621347371627,3.4332799267566543,2.7924010070954637
1682104738064992,-8.22461280231937,0.6866559853513081,1.968413824673803
1682104738080986,-6.088349736781879,-0.38147554741738077,2.7008468757152286
1682104738096981,-6.9733730067902115,-1.5411612115663047,4.470893415732007
1682104738112975,-3.921568627450938,-3.0670634012359415,4.83710994125272
1682104738128970,0.22888532845047393,-3.8300144960708167,5.477988860914024
1682104738144964,3.799496452277367,-6.424048218509142,5.1117723353933116
1682104738160959,8.041504539559014,-11.245899137865194,4.86762798504617
1682104738176953,13.656824597543277,-14.084077210650776,4.715037766079149
1682104738192948,18.295567254138973,-14.511329823758274,6.332494087129021
1682104738208943,20.767528801403728,-17.1663996337835,8.255130846112706
1682104738224937,20.431830319676465,-20.492866407263364,10.238803692683291
1682104738240932,14.419775692378039,-20.614938582436935,11.764705882352928
1682104738256926,14.450293736171488,-19.699397268635153,12.832837415121617
1682104738272921,15.579461356526963,-19.943541618982294,14.297703517204468
1682104738288635,16.952773327229693,-18.966964217593727,16.281376363775053
1682104738304628,17.34950789654374,-16.525520714122308,17.34950789654374
1682104738320621,17.80727855344469,-10.75761043717091,16.31189440756839
1682104738336614,17.044327458609814,-2.1210040436408235,15.976195925841125
1682104738352607,17.1053635461966,6.637674525062948,12.863355458915066
1682104738368600,20.096131837949088,12.283512626840547,6.424048218509142
1682104738384594,24.88746471351169,12.191958495460426,0.3509575036240449
1682104738400587,28.58014801251238,11.947814145113284,-6.454566262302592
1682104738416580,30.991073472190237,11.367971313038765,-11.97833218890662
1682104738432573,29.221026932173572,10.696574349584125,-15.457389181353392
1682104738448566,27.75616083009072,13.809414816510184,-18.265049210345637
1682104738464559,27.2373540856031,16.220340276188267,-19.33318074311444
1682104738480552,28.610666056305718,13.90096894789042,-22.53757534142062
1682104738496545,28.73273823147929,7.522697795071281,-25.589379720759894
1682104738512539,24.55176623178454,0.5645838101777372,-28.793774319066188
1682104738528532,18.87541008621338,3.0365453574426056,-29.068436713206665
1682104738544525,16.31189440756839,7.766842145418423,-27.389944304570122
1682104738560518,16.58655680170898,7.705806057831637,-26.44388494697489
1682104738576511,16.98329137102303,7.461661707484495,-25.741969939726914
1682104738592504,12.405584802014118,4.745555809872599,-23.63622491798276
1682104738608215,2.212558175020945,0.07629510948345342,-21.255817502098125
1682104738624207,-2.8229190508887996,-3.5248340581368893,-20.035095750362416
1682104738640199,-2.2735942626077303,-5.203326466773433,-18.265049210345637
1682104738656191,-1.5716792553597543,-6.454566262302592,-16.86121919584957
1682104738672184,-2.97550926985582,-6.1493858243686645,-15.152208743419465
1682104738688176,-5.081254291599862,-5.722133211261166,-14.236667429617683
1682104738704168,-4.86762798504617,-7.3090714885175885,-14.145113298237561
1682104738720160,-5.294880598153668,-8.957045853360796,-13.656824597543277
1682104738736152,-4.776073853665935,-15.2437628747997,-12.68024719615471
1682104738752144,-4.745555809872599,-18.90592813000694,-11.184863050278409
1682104738768137,-4.226749065384865,-15.884641794461004,-11.947814145113284
1682104738784129,-0.4730296787976158,-14.450293736171488,-13.076981765468759
1682104738800121,1.4801251239795192,-11.825741969939713,-13.595788509956492
1682104738816113,2.059967956054038,-11.85626001373305,-12.863355458915066
1682104738832105,3.006027313649156,-12.405584802014118,-12.13092240787364
1682104738848097,3.4943160143434397,-12.771801327534831,-11.215381094071859
1682104738864090,0.6866559853513081,-14.328221560997918,-10.299839780270077
1682104738880082,0.015259021896667946,-15.671015487907312,-9.842069123369129
1682104738896074,-4.409857328145222,-14.999618524452558,-7.583733882658066
1682104738912066,-5.081254291599862,-14.602883955138395,-5.630579079880931
1682104738927826,-2.731364919508678,-12.64972915236126,-4.074158846417959
1682104738943817,0.19836728465702436,-8.377203021286277,-1.9073777370870175
1682104738959808,-0.3204394598305953,1.8158236057068962,2.7008468757152286
1682104738975799,7.492179751277945,-0.44251163500416624,6.912336919203426
1682104738991790,4.440375371938671,-4.226749065384865,7.125963225757232
1682104739007782,3.250171663996298,-7.461661707484495,8.560311284046634
1682104739023773,3.8300144960708167,-11.520561532005786,9.140154116121153
1682104739039764,5.752651255054502,-7.339589532310924,10.513466086823769
1682104739055755,11.001754787518053,-5.813687342641288,10.78812848096436
1682104739071746,16.70862897688255,-4.501411459525457,9.689478904402222
1682104739087738,22.3849851224536,-2.1210040436408235,9.079118028534367
1682104739103729,29.465171282520714,-0.7171740291447577,9.201190203707938
1682104739119720,35.29411764705901,3.6469062333104603,12.710765239948046
1682104739135711,26.260776684214534,21.9577325093461,15.2437628747997
1682104739151703,29.55672541390095,16.189822232394818,16.00671396963446
1682104739167694,27.75616083009072,18.936446173800164,15.976195925841125
1682104739183685,21.469443808651818,26.626993209735247,13.839932860303634
1682104739199676,18.142977035171953,24.093995574883593,12.13092240787364
1682104739215667,12.619211108567924,18.6007476920729,9.689478904402222
1682104739231659,6.454566262302592,15.609979400320412,10.177767605096506
1682104739247436,3.891050583657602,18.02090485999838,8.285648889906156
1682104739263426,10.849164568551146,14.084077210650776,9.29274433508806
1682104739279417,1.2970168612191628,14.358739604791253,13.076981765468759
1682104739295407,8.865491721980561,1.4801251239795192,11.795223926146264
1682104739311397,14.145113298237561,-5.386434729533789,10.08621347371627
1682104739327387,14.084077210650776,-7.370107576104374,9.719996948195558
1682104739343378,15.732051575493983,-11.276417181658644,8.560311284046634
1682104739359368,15.121690699626129,-8.62134737163342,10.269321736476627
1682104739375358,15.76256961928732,-12.924391546501852,11.764705882352928
1682104739391348,13.107499809262208,-10.11673151750972,10.78812848096436
1682104739407339,6.851300831616641,-1.5716792553597543,8.682383459220205
1682104739423329,2.212558175020945,-3.4027618829633184,6.790264744029855
1682104739439319,9.933623254749364,-4.898146028839506,6.790264744029855
1682104739455309,9.536888685435201,-6.820782787823305,7.339589532310924
1682104739471300,11.947814145113284,-8.07202258335235,6.088349736781879
1682104739487290,11.123826962691624,-6.088349736781879,5.661097123674381
1682104739503280,9.170672159914488,-4.501411459525457,5.264362554360218
1682104739519271,3.463797970550104,-3.891050583657602,3.4332799267566543
1682104739535261,0.16784924086368846,-3.8300144960708167,2.182040131227609
1682104739551251,-2.6703288319218927,0.7782101167315432,3.677424277103796
1682104739567016,-4.959182116426291,1.1749446860455919,4.440375371938671
1682104739583006,-4.348821240558436,-0.5645838101777372,4.074158846417959
1682104739598995,-2.4872205691615363,0.5951018539711868,5.53902494850081
1682104739614984,2.853437094682249,-1.2970168612191628,7.644769970244852
1682104739630973,6.301976043335571,0.8392462043183286,10.177767605096506
1682104739646963,13.626306553749828,4.623483634699028,11.459525444419
1682104739662952,19.333180743114326,9.506370641641865,12.893873502708402
1682104739678941,27.908751049057628,11.154345006485073,15.457389181353392
1682104739694931,35.62981612878616,4.776073853665935,18.05142290379183
1682104739710920,39.01731898985281,-0.6561379415579722,20.21820401312266
1682104739726909,40.05493247882828,-3.6469062333104603,19.82146944380861
1682104739742899,35.99603265430687,-5.783169298847952,22.201876859693243
1682104739758888,31.631952391851883,-4.074158846417959,17.532616159304098
1682104739774877,25.833524071106922,2.7008468757152286,18.173495078965402
1682104739790866,7.003891050583661,7.339589532310924,25.497825589379545
1682104739806856,30.44174868390928,0.1373311970702389,17.593652246890883
1682104739822845,48.538948653391344,-1.5716792553597543,25.314717326619302
1682104739838834,36.423285267414485,10.818646524757696,115.28191042954154
1682104739854824,42.4353398947128,20.401312275883015,152.57495994506735
1682104739870813,57.90798809796297,2.426184481574751,106.21805142290395
1682104739886627,45.24299992370493,1.6327153429465397,50.705729762722285
1682104739902616,47.16563668268873,-0.07629510948345342,29.37361715114048
1682104739918604,46.76890211337468,-3.219653620202962,21.469443808651818
1682104739934593,42.86259250782041,-6.72922865644307,20.49286640726325
1682104739950582,39.505607690547095,-5.752651255054502,23.30052643625538
1682104739966571,33.27992675669498,-0.5340657663844013,22.079804684519672
1682104739982560,27.939269092850964,0.5035477225909517,16.220340276188267
1682104739998549,36.63691157396829,3.372243839169869,15.2437628747997
1682104740014537,38.406958113984956,10.727092393377575,14.908064393072323
1682104740030526,43.80865186541541,13.504234378576257,15.121690699626129
1682104740046515,36.7895017929352,22.50705729762717,16.861219195849458
1682104740062504,39.749752040894236,26.077668421454064,10.299839780270077
1682104740078493,45.85336079957278,23.361562523842167,6.72922865644307
1682104740094482,49.54604409857325,19.516289005874683,3.4332799267566543
1682104740110470,51.65178912031752,19.577325093461468,1.0833905546654705
1682104740126459,47.98962386511039,22.293430991073365,1.1749446860455919
1682104740142448,44.5105668726635,22.415503166246936,2.1210040436408235
1682104740158437,44.14435034714279,22.537575341420506,1.144426642252256
1682104740174426,42.191195544365655,25.436789501792873,-0.015259021896667946
1682104740190415,39.29198138399329,25.375753414205974,-1.5716792553597543
1682104740206207,36.63691157396829,19.302662699320877,-8.1025406271458
1682104740222195,33.0052643625545,8.987563897154132,-20.40131227588313
1682104740238183,35.721370260166395,-10.849164568551146,-5.50850690470736
1682104740254171,46.921492332341586,-9.201190203707938,3.768978408484031
1682104740270158,60.19684138246748,-12.619211108567924,-15.030136568245894
1682104740286146,62.119478141451054,2.6703288319218927,-22.56809338521407
1682104740302134,62.97398336766605,2.334630350194516,-29.770351720454755
1682104740318122,67.85687037460889,-21.530479896238717,-48.111696040283846
1682104740334110,87.4189364461738,-49.11879148546586,-62.546730754558666
1682104740350098,108.17120622568109,-62.60776684214545,-69.50484473945221
1682104740366086,94.40756847486091,-49.75967040512705,-47.07408255130849
1682104740382074,103.80712596322587,-71.06126497291518,-37.94918745708401
1682104740398061,72.58716716258482,-112.01647974364846,-17.471580071717426
1682104740414049,48.661020828564915,-148.027771419852,-23.666742961776208
1682104740430037,30.624856946669524,-150.5302510109102,-54.39841306172275
1682104740446025,-5.783169298847952,-113.26771953917762,-64.98817425803009
1682104740462013,-6.668192568856284,-85.16060120546274,-73.99099717708089
1682104740478001,31.296253910124506,-49.54604409857336,-70.96971084153506
1682104740493989,78.47714961470956,-6.607156481269499,-63.82848859388116
1682104740509976,117.57076371404605,15.91515983825434,-56.7177843900206
1682104740525817,116.53315022507059,11.703669794766142,-60.04425116350046
1682104740541805,78.50766765850312,7.431143663691159,-57.20607309071488
1682104740557792,19.485770962081233,22.90379186694122,-41.03150988021662
1682104740573780,-14.602883955138395,28.85481040665286,-28.122377355611548
1682104740589767,-10.66605630579079,28.79377431906596,-11.612115663385907
1682104740605754,7.003891050583661,64.46936751354247,2.9144731822690346
1682104740621742,22.079804684519672,113.42030975814464,21.01167315175087
1682104740637729,42.55741206988637,118.88303959716177,46.799420157168015
1682104740653717,53.51338979171442,108.90363927672252,69.04707408255126
1682104740669704,43.16777294575422,75.33379110399028,77.53109025711456
1682104740685691,21.774624246585745,44.02227817196922,74.63187609674219
1682104740701679,0.19836728465702436,20.401312275883015,72.2209506370641
1682104740717666,-13.99252307927054,1.1749446860455919,70.1457236591134
1682104740733654,-26.87113756008239,0.8697642481116645,68.98603799496459
1682104740749641,-34.68375677119093,15.91515983825434,63.30968184939343
1682104740765628,-41.30617227435721,6.790264744029855,49.51552605477991
1682104740781616,-41.67238879987792,3.097581445029391,38.37644007019162
1682104740797603,-43.350881208514465,25.345235370412638,34.9279011215383
1682104740813591,-46.09750514991981,39.93286030365471,45.94491493095302
1682104740829578,-47.07408255130849,50.03433279926753,63.67589837491414
1682104740845428,-39.68871595330734,70.57297627222101,83.17692835889216
1682104740861415,-18.387121385519208,85.3437094682231,92.63752193484379
1682104740877402,-16.89173723964302,92.75959411001736,91.1421377889676
1682104740893389,-18.020904859998495,94.62119478141472,84.79438467994191
1682104740909376,-25.8030060273137,87.51049057755381,77.40901808194099
1682104740925363,-30.25864042114904,98.43595025558875,77.62264438849456
1682104740941350,-34.04287785152974,88.57862211032261,87.4189364461738
1682104740957337,-16.86121919584957,77.74471656366813,82.5665674830243
1682104740973323,-3.097581445029391,69.26070038910507,69.10811017013816
1682104740989310,2.6703288319218927,50.064850843061095,58.73197528038463
1682104741005297,1.144426642252256,34.775310902571164,53.05561913481347
1682104741021284,-4.3183031967651,24.64332036316455,51.407644769970375
1682104741037271,-5.600061036087595,7.736324101625087,38.590066376745426
1682104741053258,-5.813687342641288,4.1962310215915295,26.29129472800787
1682104741069245,-2.5177386129548722,6.027313649195094,17.22743572137017
1682104741085232,-2.97550926985582,0.7171740291447577,18.47867551689933
1682104741101219,-10.055695429922935,-5.813687342641288,19.302662699320877
1682104741117206,-13.809414816510184,-11.764705882352928,19.24162661173409
1682104741133193,-12.405584802014118,-16.64759288929588,20.279240100709444
1682104741149180,-8.468757152666512,-22.598611429007406,17.959868772411596
1682104741165008,-4.83710994125272,-28.976882581826544,12.344548714427333
1682104741180994,-3.7384603646905816,-33.31044480048831,7.003891050583661
1682104741196980,1.1139085984588064,-36.240177004654015,-5.661097123674381
1682104741212966,17.990386816205046,-43.32036316472113,-17.807278553444803
1682104741228952,39.35301747158019,-39.74975204089412,-27.756160830090835
1682104741244938,56.07690547035941,-18.966964217593727,-30.685893034256537
1682104741260924,64.68299382009604,5.630579079880931,-22.201876859693357
1682104741276910,53.23872739757394,32.516975661860215,-13.778896772716848
1682104741292896,29.465171282520714,23.941405355916572,-5.050736247806526
1682104741308882,2.761882963302014,15.671015487907198,1.4190890363927338
1682104741324868,-11.490043488212336,3.006027313649156,-6.759746700236519
1682104741340854,-16.34241245136195,-12.954909590295188,-33.49355306324867
1682104741356840,-19.790951400015274,-10.299839780270077,-52.99458304722668
1682104741372826,-26.230258640421198,-1.8158236057068962,-59.80010681315332
1682104741388812,-38.04074158846413,14.602883955138395,-51.52971694514383
1682104741404798,-51.98748760204478,31.357289997711177,-50.30899519340812
1682104741420784,-60.959792477302244,40.60425726710923,-55.34447241931798
1682104741436770,-64.13366903181509,49.45448996719324,-65.41542687113758
1682104741452756,-62.943465323872715,59.7085526817732,-81.49843595025561
1682104741468742,-63.18760967421986,69.19966430151817,-84.36713206683453
1682104741484619,-71.45799954222935,77.40901808194099,-75.18120088502326
1682104741500604,-75.70000762951088,84.30609597924763,-61.32600900282296
1682104741516590,-60.379949645227725,81.01014724956121,-58.33524071107047
1682104741532575,-41.03150988021662,74.75394827191576,-68.2841229877165
1682104741548561,-33.43251697566188,65.81216144045175,-70.72556649118792
1682104741564546,-38.681620508125434,70.75608453498126,-59.52544441901273
1682104741580532,-39.90234225986114,68.37567711909674,-46.95201037613492
1682104741596517,-28.549629968719046,65.78164339665818,-29.55672541390095
1682104741612503,-5.996795605401644,65.32387273975746,14.938582436865772
1682104741628488,38.04074158846424,117.02143892576487,90.31815060654594
1682104741644474,90.1350423437857,29.190508888380236,106.79789425497825
1682104741660459,49.82070649271395,20.767528801403728,78.96543831540384
1682104741676445,29.098954757,37.36934462500972,70.1457236591134
1682104741692430,49.1493095292592,46.494239719233974,81.10170138094145
1682104741708416,63.88952468146795,54.18478675516894,60.53253986419463
1682104741724401,74.75394827191576,33.61562523842235,70.1457236591134
1682104741740387,80.15564202334622,15.91515983825434,105.42458228427563
1682104741756372,74.17410543984124,12.100404364080191,109.4834821087968
1682104741772358,66.39200427252604,-11.947814145113284,65.14076447699699
1682104741788343,44.2969405661097,-29.12947280079345,15.640497444113748
1682104741804229,41.33669031815066,-11.245899137865194,-2.4872205691615363
1682104741820214,36.026550698100436,9.262226291294724,-12.405584802014118
1682104741836199,32.73060196841402,14.145113298237561,31.631952391851883
1682104741852184,37.55245288776996,28.488593881132147,65.5680170901046
1682104741868169,61.081864652475815,43.80865186541541,66.2088960097658
1682104741884154,52.26214999618537,27.786678873884057,56.83985656519417
1682104741900139,43.68657969024184,5.142290379186647,32.79163805600069
1682104741916124,49.179827573052535,13.839932860303634,-6.332494087129021
1682104741932109,41.611352712291136,17.502098115510762,-17.44106202792409
1682104741948094,16.00671396963446,22.446021210040385,-23.666742961776208
1682104741964079,-6.515602349889377,29.098954757,-39.26146334019984
1682104741980064,-11.367971313038765,23.910887312123236,-44.20538643472946
1682104741996050,-10.849164568551146,25.162127107652395,-39.78027008468757
1682104742012035,-2.3651483939879654,19.974059662775517,-40.146486610208285
1682104742028020,-0.7476920729380936,32.05920500495927,-52.14007782101169
1682104742044005,-19.241626611734205,52.750438696879655,-78.56870374608991
1682104742059990,-43.228809033340895,73.9299610894941,-87.32738231479368
1682104742075975,-26.56595712214846,59.83062485694677,-80.79652094300764
1682104742091960,4.806591897459384,33.58510719462902,-69.26070038910507
1682104742107945,25.925078202487157,26.901655603875724,-69.44380865186542
1682104742123809,29.37361715114048,17.563134203097547,-90.83695735103379
1682104742139794,49.39345387960634,1.4801251239795192,-122.14847028305485
1682104742155779,72.8618295567253,-11.459525444419,-138.81132219424728
1682104742171763,38.55954833295186,15.701533531700534,-126.60410467689019
1682104742187748,43.35088120851469,25.375753414205974,-100.81635767147327
1682104742203732,38.04074158846424,29.55672541390095,-86.59494926375226
1682104742219717,34.31754024567044,25.925078202487157,-89.52468146791796
1682104742235701,25.65041580834668,29.068436713206665,-73.65529869535362
1682104742251686,19.82146944380861,15.701533531700534,-61.081864652475815
1682104742267670,11.886778057526499,5.50850690470736,-54.39841306172275
1682104742283655,3.891050583657602,4.348821240558436,-57.022964827954524
1682104742299639,11.520561532005786,4.043640802624509,-54.734111543450126
1682104742315624,22.35446707866015,-9.536888685435201,-39.84130617227436
1682104742331608,29.861905851834763,-7.980468451972229,-18.814373998626706
1682104742347593,30.13656824597524,4.715037766079149,5.0202182040130765
1682104742363577,8.1025406271458,27.695124742503822,43.595025558861835
1682104742379562,-11.551079575799122,39.01731898985281,76.34088654917218
1682104742395547,-25.436789501792987,31.876096742199024,92.02716105897593
1682104742411531,-23.514152742809188,13.717860685130063,94.13290608072043
1682104742427516,13.626306553749828,-39.20042725261305,101.33516441596112
1682104742443420,82.07827878233002,-98.10025177386126,111.74181734950798
1682104742459405,11.642633707179357,-39.10887312123293,129.59487296864268
1682104742475389,-31.540398260471534,-0.9613183794918996,101.85397116044874
1682104742491374,-31.937132829785583,13.90096894789042,49.60708018616015
1682104742507358,-31.509880216678084,13.046463721675423,24.399176012817406
1682104742523343,-37.94918745708401,28.427557793545247,21.652552071412174
1682104742539327,-49.51552605477991,53.391317616540846,23.208972304875147
1682104742555312,-55.89379720759905,76.73762111848623,23.14793621728836
1682104742571296,-52.445258258945614,79.66735332265193,18.509193560692665
1682104742587281,-47.50133516441599,82.96330205233835,14.114595254444112
1682104742603265,-42.160677500572206,77.47005416952766,15.121690699626129
1682104742619250,-37.033646143282226,76.76813916227957,17.89883268482481
1682104742635234,-33.09681849393451,77.19539177538718,21.194781414511226
1682104742651219,-29.312581063553807,65.90371557183175,13.748378728923399
1682104742667204,-25.070572976272274,54.45944914930965,-5.050736247806526
1682104742683188,-24.856946669718468,55.8632791638056,-18.448157473105994
1682104742699173,-27.02372777904941,51.95696955825133,-10.818646524757696
1682104742715157,-28.45807583733881,42.374303807126125,1.5411612115663047
1682104742731142,-28.854810406652973,43.411917296101365,8.74341954680699
1682104742747126,-24.826428625925132,42.95414663920042,9.99465934233615
1682104742763000,-18.50919356069278,40.48218509193566,8.041504539559014
1682104742778984,-12.466620889600904,36.27069504844758,4.135194934004744
1682104742794968,-8.041504539559014,29.983978027008334,2.0294499122605885
1682104742810952,-3.0670634012359415,22.23239490348658,0.7476920729380936
1682104742826936,10.177767605096506,14.816510261692201,1.4496070801861833
1682104742842920,3.585870145723675,14.084077210650776,6.393530174715806
1682104742858904,-1.4190890363927338,13.778896772716848,15.609979400320412
1682104742874889,-2.2430762188143945,3.9520866712443876,24.612802319371212
1682104742890873,4.83710994125272,-12.771801327534831,27.695124742503822
1682104742906857,17.624170290684333,-22.354467078660264,9.475852597848416
1682104742922841,11.795223926146264,-38.651102464331984,20.21820401312266
1682104742938825,20.187685969329323,-40.60425726710912,30.59433890287619
1682104742954809,28.15289539940477,-29.922941939421662,42.374303807126125
1682104742970793,34.897383077744735,-24.093995574883706,48.081177996490396
1682104742986777,8.407721065079727,-26.56595712214846,29.67879758907452
1682104743002761,3.250171663996298,-39.07835507743948,13.809414816510184
1682104743018745,3.6163881895170107,-40.36011291676198,12.893873502708402
1682104743034729,7.40062561989771,-30.807965209430108,12.497138933394353
1682104743050713,9.29274433508806,-26.077668421454177,10.849164568551146
1682104743066697,15.91515983825434,-18.722819867246585,8.590829327840083
1682104743082580,21.56099794003194,-14.328221560997918,9.842069123369129
1682104743098564,28.79377431906596,-21.957732509346215,7.278553444724139
1682104743114547,26.35233081559454,-21.255817502098125,6.698710612649734
1682104743130531,-0.015259021896667946,-0.1373311970702389,12.466620889600904
1682104743146515,3.921568627450938,-4.379339284351886,7.736324101625087
1682104743162498,-1.4190890363927338,2.1210040436408235,4.013122758831173
1682104743178482,2.8229190508887996,4.16571297779808,2.059967956054038
1682104743194465,8.1025406271458,8.07202258335235,3.250171663996298
1682104743210449,6.393530174715806,9.719996948195558,8.590829327840083
1682104743226432,10.421911955443647,12.497138933394353,13.90096894789042
1682104743242416,5.50850690470736,13.473716334782921,11.459525444419
1682104743258400,-1.022354467078685,9.872587167162578,6.515602349889377
1682104743274383,-7.461661707484495,6.759746700236519,3.585870145723675
1682104743290367,-8.438239108873063,8.438239108873063,5.722133211261166
1682104743306350,-6.942854962996876,7.431143663691159,11.97833218890662
1682104743322334,-9.323262378881509,8.712901503013654,18.87541008621338
1682104743338317,-6.759746700236519,5.630579079880931,20.553902494850036
1682104743354301,-4.1962310215915295,3.9520866712443876,17.563134203097547
1682104743370285,-1.5411612115663047,4.86762798504617,14.54184786755161
1682104743386268,3.219653620202962,5.50850690470736,12.344548714427333
1682104743402160,8.74341954680699,5.386434729533789,9.628442816815436
1682104743418143,11.093308918898288,5.0202182040130765,9.475852597848416
1682104743434126,11.612115663385907,5.264362554360218,10.879682612344482
1682104743450110,12.344548714427333,4.989700160219741,12.741283283741495
1682104743466093,12.283512626840547,4.654001678492364,12.771801327534831
1682104743482076,11.490043488212336,5.0202182040130765,13.138017853055544
1682104743498059,9.658960860608772,5.661097123674381,13.443198290989471
1682104743514042,7.949950408178779,6.9733730067902115,13.656824597543277
1682104743530025,6.515602349889377,8.926527809567347,13.107499809262208
1682104743546008,6.637674525062948,11.886778057526499,11.917296101319835
1682104743561991,7.1869993133440175,14.755474174105416,10.360875867856862
1682104743577974,6.88181887541009,15.793087663080769,8.010986495765565
1682104743593958,5.50850690470736,16.70862897688255,8.377203021286277
1682104743609941,3.8300144960708167,17.65468833447767,9.506370641641865
1682104743625924,3.768978408484031,18.631265735866236,9.719996948195558
1682104743641907,3.1891355764095124,18.47867551689933,11.734187838559478
1682104743657890,0.7476920729380936,17.624170290684333,14.633401998931845
1682104743673873,-0.1373311970702389,16.495002670328745,13.35164415960935
1682104743689856,-2.3651483939879654,12.588693064774475,11.062790875104838
1682104743705839,-0.9002822919051141,8.74341954680699,12.832837415121617
1682104743721740,-3.0670634012359415,11.917296101319835,8.74341954680699
1682104743737723,-2.853437094682249,14.267185473411132,7.949950408178779
1682104743753707,-1.8768596932936816,14.724956130311966,6.21042191195545
1682104743769690,-2.6703288319218927,13.656824597543277,6.0578316929884295
1682104743785673,-1.4801251239795192,12.405584802014118,5.783169298847952
1682104743801656,-0.4730296787976158,12.039368276493406,3.1891355764095124
1682104743817639,0.5035477225909517,11.642633707179357,1.937895780880467
1682104743833622,0.4730296787976158,12.344548714427333,1.2970168612191628
1682104743849605,0.7171740291447577,11.154345006485073,0.44251163500416624
1682104743865588,2.883955138475585,10.66605630579079,0.106813153276903
1682104743881571,4.470893415732007,11.184863050278409,2.334630350194516
1682104743897554,7.736324101625087,7.278553444724139,2.9144731822690346
1682104743913538,8.010986495765565,4.654001678492364,2.4567025253680868
1682104743929521,5.081254291599862,2.5177386129548722,3.463797970550104
1682104743945504,-0.07629510948345342,0.8087281605248791,3.8300144960708167
1682104743961487,-0.7476920729380936,-0.38147554741738077,3.8605325398641526
1682104743977470,2.0294499122605885,-1.052872510872021,3.6163881895170107
1682104743993453,1.6937514305333252,-0.3509575036240449,3.097581445029391
1682104744009436,3.219653620202962,-2.5177386129548722,1.1139085984588064
1682104744025419,7.3090714885175885,-2.853437094682249,-0.7171740291447577
1682104744041351,9.018081940947582,-2.639810788128443,-1.6327153429465397
1682104744057334,7.766842145418423,-5.203326466773433,-5.050736247806526
1682104744073316,6.851300831616641,-6.668192568856284,-6.912336919203426
1682104744089299,8.987563897154132,-6.546120393682713,-5.874723430228073
1682104744105281,9.170672159914488,-5.630579079880931,-3.9826047150377235
1682104744121264,7.797360189211872,-5.813687342641288,-5.752651255054502
1682104744137247,3.4943160143434397,-5.996795605401644,-10.11673151750972
1682104744153229,8.285648889906156,-5.966277561608308,-11.490043488212336
1682104744169212,7.55321583886473,-5.9357595178148586,-11.367971313038765
1682104744185195,10.940718699931267,-5.1117723353933116,-8.89600976577401
1682104744201177,10.78812848096436,-3.2806897077897474,-7.705806057831637
1682104744217160,11.215381094071859,-1.5411612115663047,-6.027313649195094
1682104744233142,8.499275196459848,-1.052872510872021,-5.569542992294146
1682104744249125,5.600061036087595,-1.968413824673803,-6.72922865644307
1682104744265108,2.5177386129548722,-0.6256198977645226,-8.041504539559014
1682104744281090,1.144426642252256,0.6561379415579722,-8.74341954680699
1682104744297073,0.5951018539711868,1.9989318684672526,-9.536888685435201
1682104744313056,1.5716792553597543,2.761882963302014,-9.719996948195558
1682104744329038,1.6632333867398756,3.463797970550104,-9.323262378881509
1682104744345021,1.266498817425827,3.097581445029391,-8.62134737163342
1682104744360931,1.6327153429465397,2.30411230640118,-8.07202258335235
1682104744376913,2.97550926985582,1.266498817425827,-7.064927138170447
1682104744392895,4.348821240558436,0.015259021896667946,-6.363012130922357
1682104744408877,4.409857328145222,-0.7476920729380936,-5.844205386434737
1682104744424860,4.440375371938671,-1.266498817425827,-5.477988860914024
1682104744440842,5.752651255054502,-1.2054627298390415,-4.806591897459384
1682104744456824,6.179903868162,-0.2899214160372594,-4.928664072632955
1682104744472806,6.88181887541009,-0.7171740291447577,-5.53902494850081
1682104744488788,8.010986495765565,-1.2359807736323773,-5.386434729533789
1682104744504770,8.987563897154132,-1.5411612115663047,-4.470893415732007
1682104744520753,9.41481651026163,-2.4567025253680868,-3.799496452277367
1682104744536735,15.396353093766606,-7.339589532310924,-1.846341649500232
1682104744552717,5.783169298847952,-1.6021972991530902,-4.013122758831173
1682104744568699,4.013122758831173,-2.0294499122605885,-5.142290379186647
1682104744584681,3.6163881895170107,-1.3275349050126124,-5.813687342641288
1682104744600663,4.409857328145222,-1.3275349050126124,-5.874723430228073
1682104744616645,3.6163881895170107,-1.846341649500232,-7.339589532310924
1682104744632628,4.257267109178315,-2.3956664377813013,-7.003891050583661
1682104744648610,5.2338445105668825,-2.30411230640118,-5.783169298847952
1682104744664592,4.654001678492364,-2.3956664377813013,-4.440375371938671
1682104744680511,3.097581445029391,-2.4872205691615363,-4.074158846417959
1682104744696493,1.022354467078685,-2.0294499122605885,-3.891050583657602
1682104744712475,-0.16784924086368846,-1.8768596932936816,-4.287785152971651
1682104744728458,0.015259021896667946,-1.9073777370870175,-4.1046768902112944
1682104744744440,0.1373311970702389,-1.4190890363927338,-3.4943160143434397
1682104744760422,-0.2594033722438098,-1.2359807736323773,-3.2806897077897474
1682104744776404,0.8087281605248791,-1.8158236057068962,-2.5787747005416577
1682104744792386,1.266498817425827,-1.6021972991530902,-1.6327153429465397
1682104744808368,2.334630350194516,-1.6327153429465397,-0.6866559853513081
1682104744824350,2.7008468757152286,-0.5645838101777372,0.4730296787976158
1682104744840333,3.2806897077897474,0.22888532845047393,1.8158236057068962
1682104744856315,3.219653620202962,-0.015259021896667946,2.97550926985582
1682104744872297,2.761882963302014,-1.144426642252256,3.1586175326161765
1682104744888279,0.8697642481116645,-1.6021972991530902,1.5411612115663047
1682104744904261,-1.4801251239795192,-1.7547875181201107,-0.38147554741738077
1682104744920243,-1.144426642252256,-2.0294499122605885,-0.5645838101777372
1682104744936226,0.3509575036240449,-2.1210040436408235,-0.2594033722438098
1682104744952208,1.266498817425827,-2.4872205691615363,0.015259021896667946
1682104744968190,1.3580529488059483,-2.6092927443351073,0.3204394598305953
1682104744984172,0.93080033569845,-2.426184481574751,0.3509575036240449
1682104745000122,0.3204394598305953,-1.7547875181201107,-0.16784924086368846
1682104745016104,0.7171740291447577,-1.6327153429465397,-0.6256198977645226
1682104745032086,1.3885709925993979,-1.2054627298390415,-0.5340657663844013
1682104745048068,1.7853055619134466,-0.9613183794918996,-0.015259021896667946
1682104745064050,1.9989318684672526,-0.4730296787976158,0.44251163500416624
1682104745080032,2.2430762188143945,0.2899214160372594,0.44251163500416624
1682104745096015,2.4567025253680868,1.2970168612191628,-0.2594033722438098
1682104745111997,2.883955138475585,2.4567025253680868,-0.93080033569845
1682104745127979,3.555352101930225,3.1586175326161765,-1.4496070801861833
1682104745143961,3.768978408484031,3.8300144960708167,-1.3275349050126124
1682104745159943,3.097581445029391,4.562447547112242,-1.2970168612191628
1682104745175925,3.7079423208972457,3.9826047150377235,-1.8768596932936816
1682104745191908,5.355916685740453,4.287785152971651,-2.6092927443351073
1682104745207890,8.22461280231937,4.348821240558436,-3.0365453574426056
1682104745223872,21.16426337071789,8.163576714732585,-7.40062561989771
1682104745239854,11.764705882352928,6.21042191195545,-6.2714579995422355
1682104745255836,14.114595254444112,3.799496452277367,-6.454566262302592
1682104745271818,14.328221560997918,2.7008468757152286,-5.569542992294146
1682104745287800,15.671015487907198,1.052872510872021,-3.250171663996298
1682104745303783,15.91515983825434,0.5951018539711868,0.5340657663844013
1682104745319702,14.938582436865772,1.968413824673803,3.2806897077897474
1682104745335683,13.809414816510184,1.937895780880467,4.745555809872599
1682104745351665,13.412680247196135,1.4496070801861833,5.0202182040130765
1682104745367647,13.656824597543277,-0.44251163500416624,4.043640802624509
1682104745383628,16.830701152056122,-2.5787747005416577,2.059967956054038
1682104745399610,21.866178377965866,-4.898146028839506,1.266498817425827
1682104745415592,26.41336690318144,-5.1117723353933116,-1.6327153429465397
1682104745431573,27.298390173189773,-4.928664072632955,-1.7853055619134466
1682104745447555,29.709315632867856,-9.079118028534367,-3.250171663996298
1682104745463537,40.7873655298697,-21.31685358968491,-10.879682612344482
1682104745479519,33.096818493934734,-13.443198290989471,-12.588693064774475
1682104745495500,32.9442282749676,-14.02304112306399,-13.778896772716848
1682104745511482,29.49568932631405,-16.403448538948737,-18.722819867246585
1682104745527464,25.65041580834668,-21.011673151750983,-27.512016479743693
1682104745543445,20.981155107957534,-21.31685358968491,-30.075532158388683
1682104745559427,17.38002594033719,-21.43892576485848,-24.490730144197755
1682104745575409,16.281376363775053,-22.81223773556121,-19.668879224841703
1682104745591390,13.687342641336613,-21.591515983825502,-16.739147020676
1682104745607372,12.832837415121617,-19.21110856794087,-12.375066758220783
1682104745623354,13.19905394064233,-15.94567788204779,-8.194094758525921
1682104745639282,12.80231937132828,-12.771801327534831,-5.569542992294146
1682104745655264,15.854123750667554,-12.436102845807568,0.6561379415579722
1682104745671245,14.511329823758274,-9.201190203707938,7.919432364385443
1682104745687227,13.168535896848994,-5.783169298847952,14.633401998931845
1682104745703209,12.954909590295188,-3.219653620202962,18.265049210345524
1682104745719190,7.736324101625087,-5.783169298847952,22.23239490348658
1682104745735172,4.074158846417959,-13.626306553749828,22.171358815899794
1682104745751154,1.5106431677729688,-17.135881589990163,15.976195925841125
1682104745767135,3.341725795376533,-19.97405966277563,12.619211108567924
1682104745783117,4.409857328145222,-18.020904859998495,11.673151750972693
1682104745799099,4.287785152971651,-19.150072480354083,10.849164568551146
1682104745815080,2.1210040436408235,-20.492866407263364,6.027313649195094
1682104745831062,-1.4190890363927338,-20.279240100709558,-0.07629510948345342
1682104745847044,-3.799496452277367,-17.83779659723814,-2.30411230640118
1682104745863025,2.182040131227609,-13.473716334782921,-5.0202182040130765
1682104745879007,-2.182040131227609,-6.698710612649734,-7.827878233005208
1682104745894989,-4.86762798504617,-2.731364919508678,-10.849164568551146
1682104745910970,-4.409857328145222,-1.1139085984588064,-10.910200656137931
1682104745926952,-4.928664072632955,1.937895780880467,-7.949950408178779
1682104745942934,-4.989700160219741,3.8300144960708167,-6.576638437476163
1682104745958862,-5.081254291599862,5.081254291599862,-3.1586175326161765
1682104745974843,-8.987563897154132,6.942854962996876,0.2594033722438098
1682104745990824,-8.957045853360796,7.431143663691159,1.3580529488059483
1682104746006806,-8.865491721980561,7.797360189211872,5.294880598153668
1682104746022787,-7.858396276798658,7.1869993133440175,9.811551079575793
1682104746038768,-6.790264744029855,7.064927138170447,12.954909590295188
1682104746054749,-4.3183031967651,6.1493858243686645,16.067750057221247
1682104746070730,-4.074158846417959,6.2714579995422355,20.645456626230157
1682104746086712,-5.600061036087595,3.677424277103796,21.28633554589146
1682104746102693,-8.041504539559014,-2.212558175020945,16.495002670328745
1682104746118674,-10.147249561303056,-5.569542992294146,12.497138933394353
1682104746134655,-9.323262378881509,-6.301976043335571,12.64972915236126
1682104746150636,-6.546120393682713,-7.278553444724139,14.480811779964824
1682104746166617,-3.4332799267566543,-7.40062561989771,14.969100480659108
1682104746182599,-1.6021972991530902,-8.133058670939135,13.504234378576257
1682104746198580,-0.16784924086368846,-10.11673151750972,13.138017853055544
1682104746214561,1.8768596932936816,-12.100404364080191,12.00885023270007
1682104746230542,3.8300144960708167,-12.80231937132828,10.11673151750972
1682104746246523,5.661097123674381,-13.534752422369706,8.560311284046634
1682104746262505,5.53902494850081,-12.619211108567924,5.844205386434737
1682104746278473,6.393530174715806,-11.642633707179357,2.8229190508887996
1682104746294454,5.294880598153668,-8.499275196459848,1.3580529488059483
1682104746310435,4.83710994125272,-7.949950408178779,1.937895780880467
1682104746326416,6.027313649195094,-8.987563897154132,3.006027313649156
1682104746342397,4.776073853665935,-8.865491721980561,4.83710994125272
1682104746358379,-0.8697642481116645,-8.529793240253298,6.424048218509142
1682104746374360,-3.2806897077897474,-11.123826962691624,4.83710994125272
1682104746390341,-7.919432364385443,-10.452429999236983,1.1139085984588064
1682104746406322,-9.231708247501274,-10.818646524757696,-0.2899214160372594
1682104746422303,-8.682383459220205,-9.750514991989007,-1.968413824673803
1682104746438284,-5.966277561608308,-4.83710994125272,-3.768978408484031
1682104746454266,-5.874723430228073,1.6632333867398756,-2.731364919508678
1682104746470247,-4.83710994125272,4.623483634699028,-1.9073777370870175
1682104746486228,-9.048599984740918,9.170672159914488,-2.7008468757152286
1682104746502209,-11.917296101319835,12.832837415121617,-3.7384603646905816
1682104746518190,-14.114595254444112,15.854123750667554,-3.097581445029391
1682104746534172,-13.107499809262208,15.945677882047676,-0.7476920729380936
1682104746550153,-11.459525444419,14.389257648584703,2.182040131227609
1682104746566134,-11.734187838559478,13.107499809262208,4.959182116426291
1682104746582115,-12.588693064774475,9.99465934233615,7.492179751277945
1682104746598053,-13.412680247196135,6.027313649195094,10.421911955443647
1682104746614034,-14.053559166857326,3.4943160143434397,13.412680247196135
1682104746630015,-12.80231937132828,2.9144731822690346,15.2437628747997
1682104746645996,-10.910200656137931,2.5177386129548722,15.823605706874105
1682104746661977,-8.77393759060044,2.3651483939879654,17.196917677576835
1682104746677959,-8.89600976577401,3.1891355764095124,18.509193560692665
1682104746693940,-12.466620889600904,5.722133211261166,17.22743572137017
1682104746709921,-12.069886320286855,9.536888685435201,13.19905394064233
1682104746725902,-13.656824597543277,13.656824597543277,9.048599984740918
1682104746741883,-10.421911955443647,17.288471808956956,8.499275196459848
1682104746757865,-6.301976043335571,20.21820401312266,8.590829327840083
1682104746773846,-6.790264744029855,20.675974670023606,8.163576714732585
1682104746789827,-9.44533455405508,17.624170290684333,8.07202258335235
1682104746805808,-11.97833218890662,16.43396658274196,7.644769970244852
1682104746821789,-13.809414816510184,14.54184786755161,7.034409094376997
1682104746837771,-13.229571984435779,14.206149385824347,6.912336919203426
1682104746853752,-15.304798962386485,12.68024719615471,7.705806057831637
1682104746869733,-15.030136568245894,11.184863050278409,6.790264744029855
1682104746885714,-13.931486991683755,10.299839780270077,3.463797970550104
1682104746901695,-13.778896772716848,8.89600976577401,-1.3275349050126124
1682104746917663,-12.314030670633997,5.813687342641288,-5.325398641947004
1682104746933644,-9.811551079575793,2.182040131227609,-8.62134737163342
1682104746949625,-7.644769970244852,-0.6256198977645226,-12.68024719615471
1682104746965605,-5.0202182040130765,-2.4872205691615363,-15.335317006179821
1682104746981586,-0.106813153276903,-3.7384603646905816,-16.18982223239493
1682104746997567,4.684519722285813,-4.257267109178315,-15.823605706874218
1682104747013548,6.240939955748786,-4.592965590905578,-16.678110933089215
1682104747029528,4.348821240558436,-6.027313649195094,-18.2345311665523
1682104747045509,1.968413824673803,-5.264362554360218,-18.020904859998495
1682104747061490,1.7547875181201107,-5.53902494850081,-17.1663996337835
1682104747077470,2.548256656748322,-5.9357595178148586,-16.64759288929588
1682104747093451,4.1046768902112944,-6.485084306095928,-13.534752422369706
1682104747109432,4.470893415732007,-6.088349736781879,-9.99465934233615
1682104747125413,4.684519722285813,-5.447470817120575,-9.56740672922865
1682104747141393,2.7008468757152286,-5.325398641947004,-10.421911955443647
1682104747157374,1.8768596932936816,-5.1117723353933116,-9.719996948195558
1682104747173355,4.043640802624509,-3.7384603646905816,-8.346684977492941
1682104747189335,5.691615167467717,-2.30411230640118,-7.431143663691159
1682104747205316,4.745555809872599,-0.9613183794918996,-6.698710612649734
1682104747221297,-0.07629510948345342,-0.3509575036240449,-4.287785152971651
1682104747237243,-6.118867780575215,0.106813153276903,-1.6632333867398756
1682104747253224,-8.407721065079727,1.4801251239795192,-0.5951018539711868
1682104747269205,-6.118867780575215,3.6469062333104603,-0.19836728465702436
1682104747285185,-2.761882963302014,5.996795605401644,1.5106431677729688
1682104747301166,-1.3885709925993979,6.942854962996876,1.4801251239795192
1682104747317147,-2.3651483939879654,5.630579079880931,-1.7547875181201107
1682104747333128,-5.783169298847952,4.776073853665935,-4.715037766079149
1682104747349108,-9.597924773021987,3.3112077515830833,-7.3090714885175885
1682104747365089,-12.13092240787364,2.5787747005416577,-9.231708247501274
1682104747381070,-14.328221560997918,2.853437094682249,-10.238803692683291
1682104747397050,-17.53261615930421,1.2054627298390415,-10.910200656137931
1682104747413031,-17.776760509651353,0.6561379415579722,-10.299839780270077
1682104747429012,-15.609979400320412,1.4801251239795192,-8.377203021286277
1682104747444993,-15.976195925841239,1.6937514305333252,-8.468757152666512
1682104747460973,-18.53971160448623,2.5177386129548722,-10.08621347371627
1682104747476954,-19.97405966277563,3.4943160143434397,-9.323262378881509
1682104747492935,-18.78385595483337,6.668192568856284,-5.722133211261166
1682104747508916,-17.685206378271232,9.719996948195558,-2.182040131227609
1682104747524896,-17.86831464103159,9.262226291294724,0.9613183794918996
1682104747540877,-18.11245899137873,5.355916685740453,3.6469062333104603
1682104747556823,-15.732051575494097,2.182040131227609,6.942854962996876
1682104747572804,-12.222476539253762,1.266498817425827,12.405584802014118
1682104747588785,-12.558175020981139,-0.045777065690117524,15.548943312733627
1682104747604766,-16.037232013428024,-2.5787747005416577,15.21324483100625
1682104747620746,-14.084077210650776,-4.3183031967651,16.891737239642907
1682104747636727,-6.912336919203426,-5.630579079880931,18.539711604486115
1682104747652708,-1.937895780880467,-7.003891050583661,18.905928130006828
1682104747668688,-1.022354467078685,-7.431143663691159,17.471580071717312
1682104747684669,2.334630350194516,-6.424048218509142,16.098268101014696
1682104747700650,3.3112077515830833,-5.447470817120575,15.121690699626129
1682104747716631,2.182040131227609,-2.883955138475585,13.168535896848994
1682104747732611,5.813687342641288,-0.6256198977645226,11.825741969939713
1682104747748592,8.438239108873063,1.5106431677729688,9.9641412985427
1682104747764573,6.576638437476163,3.555352101930225,7.003891050583661
1682104747780553,3.4027618829633184,6.027313649195094,5.53902494850081
1682104747796534,3.9826047150377235,7.522697795071281,6.485084306095928
1682104747812515,7.675288014038301,8.682383459220205,7.980468451972229
1682104747828496,10.330357824063412,9.719996948195558,8.77393759060044
1682104747844476,9.536888685435201,11.33745326924543,8.041504539559014
1682104747860457,3.585870145723675,14.389257648584703,6.942854962996876
1682104747876403,-0.9002822919051141,16.403448538948624,7.492179751277945
1682104747892384,1.6937514305333252,17.166399633783385,9.048599984740918
1682104747908365,3.9520866712443876,16.830701152056122,11.30693522545198
1682104747924346,4.83710994125272,16.31189440756839,13.229571984435779
1682104747940326,5.600061036087595,15.152208743419465,16.43396658274196
1682104747956307,4.440375371938671,15.182726787212914,18.417639429312544
1682104747972288,0.5645838101777372,15.152208743419465,19.363698786907662
1682104747988268,-2.9144731822690346,15.518425268940177,18.99748226138695
1682104748004249,-5.264362554360218,15.640497444113748,18.6007476920729
1682104748020230,-5.53902494850081,15.76256961928732,18.05142290379183
1682104748036211,-4.074158846417959,15.91515983825434,16.769665064469336
1682104748052191,-2.2735942626077303,15.2437628747997,15.701533531700534
1682104748068172,-1.3885709925993979,15.457389181353392,14.328221560997918
1682104748084153,-0.2899214160372594,16.067750057221247,12.832837415121617
1682104748100134,-0.07629510948345342,15.487907225146841,10.452429999236983
1682104748116114,0.5645838101777372,15.88464179446089,7.614251926451516
1682104748132095,2.426184481574751,15.640497444113748,5.325398641947004
1682104748148076,3.921568627450938,16.861219195849458,3.1891355764095124
1682104748164056,2.5177386129548722,16.769665064469336,1.3885709925993979
1682104748180037,1.5106431677729688,17.410543984130527,-0.106813153276903
1682104748195984,1.1139085984588064,16.03723201342791,-1.5106431677729688
1682104748211964,0.3509575036240449,15.579461356526963,-2.3651483939879654
1682104748227944,-2.2735942626077303,16.03723201342791,-3.2806897077897474
1682104748243924,-4.1046768902112944,16.00671396963446,-5.416952773327239
1682104748259904,1.266498817425827,10.940718699931267,-5.050736247806526
1682104748275885,6.515602349889377,8.682383459220205,-3.1586175326161765
1682104748291865,9.750514991989007,6.424048218509142,-1.968413824673803
1682104748307845,7.797360189211872,5.142290379186647,-2.3651483939879654
1682104748323825,6.0578316929884295,4.3183031967651,-3.2806897077897474
1682104748339806,6.820782787823305,3.3112077515830833,-4.135194934004744
1682104748355786,9.903105210955914,2.4567025253680868,-5.050736247806526
1682104748371766,13.3211261158159,1.7853055619134466,-6.515602349889377
1682104748387746,15.732051575493983,1.9073777370870175,-8.74341954680699
1682104748403727,18.783855954833257,2.761882963302014,-11.734187838559478
1682104748419707,20.096131837949088,1.7853055619134466,-14.053559166857326
1682104748435687,17.13588158999005,1.144426642252256,-15.793087663080883
1682104748451667,9.628442816815436,2.30411230640118,-17.227435721370284
1682104748467648,1.2970168612191628,5.294880598153668,-17.257953765163734
1682104748483628,-5.416952773327239,7.1869993133440175,-16.739147020676
1682104748499608,-4.287785152971651,7.858396276798658,-14.785992217898752
1682104748515564,-0.7476920729380936,6.637674525062948,-12.00885023270007
1682104748531544,-3.006027313649156,6.668192568856284,-10.391393911650198
1682104748547524,-6.393530174715806,7.644769970244852,-9.99465934233615
1682104748563504,-3.4943160143434397,7.797360189211872,-9.018081940947582
1682104748579485,0.4730296787976158,7.55321583886473,-8.22461280231937
1682104748595465,0.3204394598305953,7.461661707484495,-8.163576714732585
1682104748611445,-0.5035477225909517,7.888914320591994,-8.499275196459848
1682104748627425,-3.0670634012359415,8.316166933699492,-7.888914320591994
1682104748643406,-7.125963225757232,9.536888685435201,-6.851300831616641
1682104748659386,-14.145113298237561,10.08621347371627,-5.172808422980097
1682104748675366,-19.546807049668132,15.182726787212914,-6.363012130922357
1682104748691346,-8.590829327840083,11.947814145113284,-3.555352101930225
1682104748707327,-4.959182116426291,11.490043488212336,-3.250171663996298
1682104748723307,-7.705806057831637,10.818646524757696,-3.219653620202962
1682104748739287,-7.339589532310924,9.781033035782343,-4.226749065384865
1682104748755267,5.203326466773433,7.125963225757232,-4.257267109178315
1682104748771247,8.438239108873063,5.447470817120575,-5.600061036087595
1682104748787228,7.949950408178779,6.0578316929884295,-7.949950408178779
1682104748803208,5.905241474021523,6.820782787823305,-9.231708247501274
1682104748819188,-6.118867780575215,13.839932860303634,-10.391393911650198
1682104748835144,-5.966277561608308,10.605020218204004,-7.1869993133440175
1682104748851124,3.0365453574426056,8.07202258335235,-4.257267109178315
1682104748867104,10.269321736476627,5.722133211261166,-1.5411612115663047
1682104748883084,12.466620889600904,4.3183031967651,0.8087281605248791
1682104748899065,7.55321583886473,4.959182116426291,2.30411230640118
1682104748915045,-0.16784924086368846,6.0578316929884295,3.8300144960708167
1682104748931025,-5.966277561608308,6.027313649195094,6.179903868162
1682104748947005,1.5411612115663047,6.72922865644307,7.40062561989771
1682104748962986,0.19836728465702436,5.081254291599862,8.682383459220205
1682104748978966,-1.2970168612191628,2.761882963302014,9.719996948195558
1682104748994946,-2.1515220874341594,1.4496070801861833,9.933623254749364
1682104749010926,-4.16571297779808,1.052872510872021,8.62134737163342
1682104749026907,-5.783169298847952,0.5340657663844013,8.74341954680699
1682104749042887,-9.872587167162578,1.5716792553597543,11.123826962691624
1682104749058867,-7.705806057831637,-1.6937514305333252,13.076981765468759
1682104749074847,-10.055695429922935,-3.463797970550104,14.206149385824347
1682104749090828,-14.02304112306399,1.937895780880467,16.922255283436243
1682104749106808,1.937895780880467,-3.097581445029391,12.52765697718769
1682104749122788,7.766842145418423,-3.097581445029391,9.536888685435201
1682104749138768,10.66605630579079,-0.5951018539711868,6.942854962996876
1682104749154724,6.485084306095928,3.0365453574426056,5.600061036087595
1682104749170704,1.7547875181201107,5.722133211261166,5.447470817120575
1682104749186684,1.3580529488059483,6.668192568856284,5.752651255054502
1682104749202664,-0.1373311970702389,7.919432364385443,5.752651255054502
1682104749218645,-1.9073777370870175,8.529793240253298,5.264362554360218
1682104749234625,-2.853437094682249,8.133058670939135,4.501411459525457
1682104749250605,0.5340657663844013,7.583733882658066,3.219653620202962
1682104749266585,4.592965590905578,6.118867780575215,1.7853055619134466
1682104749282566,5.50850690470736,4.959182116426291,0.5035477225909517
1682104749298546,4.715037766079149,4.83710994125272,-0.015259021896667946
1682104749314526,1.7853055619134466,5.966277561608308,-0.2594033722438098
1682104749330506,0.015259021896667946,5.905241474021523,0.5645838101777372
1682104749346487,1.8768596932936816,4.776073853665935,1.8158236057068962
1682104749362467,5.050736247806526,3.5248340581368893,2.5177386129548722
1682104749378447,7.766842145418423,2.761882963302014,2.2735942626077303
1682104749394427,9.719996948195558,2.1210040436408235,1.7242694743266611
1682104749410408,8.957045853360796,2.334630350194516,0.38147554741738077
1682104749426388,7.217517357137353,2.5787747005416577,-1.052872510872021
1682104749442368,9.201190203707938,2.426184481574751,-2.090485999847374
1682104749458348,14.358739604791253,1.6327153429465397,-2.426184481574751
1682104749474334,21.194781414511226,0.8087281605248791,-3.341725795376533
1682104749490315,29.922941939421662,0.19836728465702436,-5.325398641947004
1682104749506295,36.48432135500116,0.19836728465702436,-8.377203021286277
1682104749522275,34.53116655222402,1.1139085984588064,-9.781033035782343
1682104749538255,29.587243457694285,1.7853055619134466,-8.89600976577401
1682104749554236,27.298390173189773,1.3580529488059483,-6.637674525062948
1682104749570216,20.523384451056586,4.074158846417959,-4.654001678492364
1682104749586196,21.01167315175087,8.712901503013654,-3.341725795376533
1682104749602176,13.626306553749828,10.08621347371627,0.6866559853513081
1682104749618157,5.569542992294146,14.847028305485537,4.257267109178315
1682104749634137,2.212558175020945,16.55603875791553,9.140154116121153
1682104749650117,-0.7476920729380936,20.279240100709444,13.748378728923399
1682104749666097,-3.219653620202962,24.612802319371212,18.417639429312544
1682104749682078,-3.341725795376533,29.129472800793337,22.50705729762717
1682104749698058,-2.731364919508678,31.66247043564522,26.1692225528343
1682104749714038,-3.097581445029391,33.096818493934734,28.79377431906596
1682104749730018,-2.3651483939879654,32.9442282749676,31.0215915159838
1682104749745998,0.41199359121083035,33.218890669108305,31.47936217288475
1682104749761979,4.013122758831173,32.913710231174264,29.861905851834763
1682104749777959,5.9357595178148586,32.66956588082712,26.047150377660728
1682104749793914,5.996795605401644,32.76112001220736,20.981155107957534
1682104749809895,3.4943160143434397,32.394903486686644,16.342412451361838
1682104749825875,1.7547875181201107,32.333867399099745,13.534752422369706
1682104749841855,1.7547875181201107,31.815060654612125,12.314030670633997
1682104749857835,3.891050583657602,30.655374990463088,11.276417181658644
1682104749873816,7.3090714885175885,29.007400625619766,9.842069123369129
1682104749889796,10.971236743724717,27.206836041809538,8.041504539559014
1682104749905776,12.863355458915066,24.612802319371212,5.416952773327239
1682104749921756,13.3211261158159,21.103227283131105,2.9449912260623705
1682104749937737,13.138017853055544,17.471580071717312,0.106813153276903
1682104749953717,13.565270466163042,14.847028305485537,-3.097581445029391
1682104749969697,15.274280918593035,12.314030670633997,-5.081254291599862
1682104749985677,16.220340276188267,9.842069123369129,-6.0578316929884295
1682104750001658,16.98329137102303,7.40062561989771,-6.607156481269499
1682104750017638,19.15007248035397,4.409857328145222,-6.607156481269499
1682104750033618,17.441062027923977,1.144426642252256,-7.125963225757232
1682104750049598,16.861219195849458,-2.182040131227609,-6.942854962996876
1682104750065579,18.234531166552188,-5.264362554360218,-6.301976043335571
1682104750081559,18.844892042420042,-8.194094758525921,-4.928664072632955
1682104750097539,18.753337911039807,-10.574502174410554,-3.6469062333104603
1682104750113494,19.302662699320877,-11.551079575799122,-2.883955138475585
1682104750129474,20.553902494850036,-12.741283283741495,-2.4567025253680868
1682104750145454,22.446021210040385,-13.87045090409697,-2.4567025253680868
1682104750161434,24.3076218814374,-14.999618524452558,-2.761882963302014
1682104750177414,25.925078202487157,-15.671015487907312,-3.5248340581368893
1682104750193393,27.939269092850964,-16.22034027618838,-4.531929503318793
1682104750209373,32.333867399099745,-16.64759288929588,-4.745555809872599
1682104750225353,31.570916304264983,-18.875410086213492,-1.7242694743266611
1682104750241333,35.69085221637306,-8.651865415426869,-5.447470817120575
1682104750257312,40.024414435034714,-11.093308918898288,-8.377203021286277
1682104750273292,27.32890821698311,-8.682383459220205,-13.717860685130063
1682104750289272,10.849164568551146,-2.4872205691615363,-20.981155107957647
1682104750305252,1.2970168612191628,-2.883955138475585,-19.150072480354083
1682104750321231,0.045777065690117524,-0.7782101167315432,-15.793087663080883
1682104750337211,2.6092927443351073,0.41199359121083035,-14.236667429617683
1682104750353191,5.50850690470736,-1.937895780880467,-12.893873502708402
1682104750369171,2.8229190508887996,-2.182040131227609,-11.001754787518053
1682104750385151,-0.6866559853513081,-3.219653620202962,-9.353780422674845
1682104750401130,-3.677424277103796,-3.250171663996298,-6.88181887541009
1682104750417110,-5.477988860914024,-2.6092927443351073,-5.294880598153668
1682104750433075,-5.752651255054502,-2.548256656748322,-5.0202182040130765
1682104750449054,-4.135194934004744,-2.0294499122605885,-4.135194934004744
1682104750465034,-1.8768596932936816,-0.93080033569845,-4.135194934004744
1682104750481014,-0.19836728465702436,-0.8087281605248791,-5.386434729533789
1682104750496994,-0.1373311970702389,-1.7547875181201107,-7.766842145418423
1682104750512973,-1.6327153429465397,-3.0670634012359415,-10.360875867856862
1682104750528953,-1.968413824673803,-4.898146028839506,-13.076981765468759
1682104750544933,-0.3509575036240449,-6.0578316929884295,-14.450293736171488
1682104750560913,3.219653620202962,-8.682383459220205,-14.785992217898752
1682104750576892,7.370107576104374,-10.452429999236983,-15.884641794461004
1682104750592872,9.933623254749364,-10.727092393377575,-17.380025940337305
1682104750608852,9.506370641641865,-9.689478904402222,-16.311894407568502
1682104750624832,6.2714579995422355,-6.027313649195094,-14.938582436865772
1682104750640812,0.7171740291447577,-5.050736247806526,-14.877546349278987
1682104750656791,-2.9144731822690346,-5.905241474021523,-14.328221560997918
1682104750672771,-4.562447547112242,-5.416952773327239,-14.358739604791253
1682104750688751,-3.799496452277367,-4.501411459525457,-12.222476539253762
1682104750704731,-1.6632333867398756,-3.8605325398641526,-11.154345006485073
1682104750720710,0.16784924086368846,-4.898146028839506,-12.191958495460426
1682104750736690,1.266498817425827,-6.240939955748786,-12.00885023270007
1682104750752655,0.1373311970702389,-5.569542992294146,-11.612115663385907
1682104750768634,0.106813153276903,-7.583733882658066,-10.66605630579079
1682104750784614,-0.4730296787976158,-7.522697795071281,-10.66605630579079
1682104750800594,-1.6327153429465397,-7.156481269550568,-11.581597619592571
1682104750816574,-1.7853055619134466,-7.827878233005208,-13.290608072022565
1682104750832553,0.8087281605248791,-8.89600976577401,-13.534752422369706
1682104750848533,5.2338445105668825,-10.11673151750972,-12.00885023270007
1682104750864513,10.055695429922935,-11.215381094071859,-10.910200656137931
1682104750880493,13.962005035477205,-11.612115663385907,-10.849164568551146
1682104750896473,15.88464179446089,-12.436102845807568,-11.093308918898288
1682104750912452,17.68520637827112,-13.595788509956492,-11.398489356832215
1682104750928432,19.0280003051804,-15.152208743419465,-11.33745326924543
1682104750944412,19.455252918287897,-16.311894407568502,-11.276417181658644
1682104750960392,17.92935072861826,-14.969100480659108,-12.314030670633997
1682104750976371,16.58655680170898,-14.450293736171488,-12.64972915236126
1682104750992351,15.121690699626129,-12.832837415121617,-11.215381094071859
1682104751008331,13.839932860303634,-11.184863050278409,-9.536888685435201
1682104751024311,12.497138933394353,-10.605020218204004,-9.536888685435201
1682104751040290,11.154345006485073,-11.001754787518053,-9.658960860608772
1682104751056270,11.215381094071859,-10.940718699931267,-8.255130846112706
1682104751072265,14.511329823758274,-7.55321583886473,-7.0954451819637825
1682104751088245,9.506370641641865,-9.048599984740918,-5.081254291599862
1682104751104225,4.074158846417959,-9.781033035782343,-3.250171663996298
1682104751120205,1.6937514305333252,-7.156481269550568,-1.266498817425827
1682104751136184,5.2338445105668825,-6.393530174715806,-0.7782101167315432
1682104751152164,7.064927138170447,-4.470893415732007,-0.3509575036240449
1682104751168144,7.0954451819637825,-2.4872205691615363,-0.2899214160372594
1682104751184124,15.121690699626129,0.3204394598305953,0.44251163500416624
1682104751200103,7.034409094376997,1.9989318684672526,0.9002822919051141
1682104751216083,5.905241474021523,2.212558175020945,1.4801251239795192
1682104751232063,3.891050583657602,2.7008468757152286,2.0294499122605885
1682104751248043,1.8768596932936816,3.7384603646905816,2.334630350194516
1682104751264022,0.4730296787976158,6.179903868162,3.097581445029391
1682104751280002,0.38147554741738077,8.163576714732585,3.891050583657602
1682104751295982,0.045777065690117524,8.804455634393776,3.8300144960708167
1682104751311962,-1.4801251239795192,9.201190203707938,3.6469062333104603
1682104751327942,-3.1891355764095124,9.536888685435201,3.9520866712443876
1682104751343921,-5.081254291599862,9.99465934233615,4.409857328145222
1682104751359901,-5.050736247806526,10.147249561303056,5.844205386434737
1682104751375881,-2.97550926985582,10.879682612344482,7.492179751277945
1682104751391845,-0.8697642481116645,11.673151750972693,9.079118028534367
1682104751407825,-1.3580529488059483,11.42900740062555,8.651865415426869
1682104751423805,-3.0670634012359415,9.842069123369129,7.217517357137353
1682104751439785,-5.783169298847952,8.529793240253298,5.722133211261166
1682104751455764,-6.820782787823305,7.827878233005208,5.447470817120575
1682104751471744,-6.1493858243686645,8.346684977492941,6.668192568856284
1682104751487724,-4.409857328145222,8.957045853360796,7.55321583886473
1682104751503704,-1.9073777370870175,8.529793240253298,7.40062561989771
1682104751519683,0.8087281605248791,7.675288014038301,6.118867780575215
1682104751535663,2.6092927443351073,6.454566262302592,4.684519722285813
1682104751551643,2.9144731822690346,4.745555809872599,3.463797970550104
1682104751567623,2.090485999847374,3.799496452277367,3.097581445029391
1682104751583603,1.846341649500232,3.7079423208972457,3.0670634012359415
1682104751599582,1.6021972991530902,4.501411459525457,2.97550926985582
1682104751615562,0.6256198977645226,3.9520866712443876,2.5177386129548722
1682104751631542,-0.015259021896667946,3.463797970550104,1.4496070801861833
1682104751647522,1.6632333867398756,3.2806897077897474,1.4496070801861833
1682104751663501,3.768978408484031,2.8229190508887996,1.9073777370870175
1682104751679481,4.135194934004744,2.4872205691615363,2.3956664377813013
1682104751695461,2.731364919508678,2.0294499122605885,2.4872205691615363
1682104751711425,0.22888532845047393,1.5106431677729688,1.8768596932936816
1682104751727405,-0.44251163500416624,1.4496070801861833,1.6327153429465397
1682104751743385,-0.106813153276903,2.059967956054038,1.5716792553597543
1682104751759365,-0.2594033722438098,2.0294499122605885,0.7476920729380936
1682104751775344,0.5951018539711868,1.6937514305333252,0.41199359121083035
1682104751791324,2.059967956054038,2.2430762188143945,0.9918364232852355
1682104751807304,1.2054627298390415,2.0294499122605885,0.8392462043183286
1682104751823284,0.5340657663844013,0.5645838101777372,0.41199359121083035
1682104751839264,1.7242694743266611,0.5951018539711868,0.9613183794918996
1682104751855243,2.059967956054038,1.7242694743266611,1.3275349050126124
1682104751871223,1.0833905546654705,1.022354467078685,0.41199359121083035
1682104751887203,1.1139085984588064,0.2899214160372594,-0.4730296787976158
1682104751903183,3.4332799267566543,0.41199359121083035,0.2594033722438098
1682104751919162,2.97550926985582,1.4496070801861833,0.07629510948345342
1682104751935142,0.9613183794918996,-0.106813153276903,-1.022354467078685
1682104751951122,0.1373311970702389,-0.7476920729380936,-1.266498817425827
1682104751967102,2.3651483939879654,-0.07629510948345342,-0.16784924086368846
1682104751983081,3.768978408484031,0.9613183794918996,0.106813153276903
1682104751999061,3.921568627450938,0.44251163500416624,-0.7476920729380936
1682104752015041,3.6469062333104603,0.5035477225909517,-1.5411612115663047
1682104752031005,4.257267109178315,0.2899214160372594,-1.7853055619134466
1682104752046985,3.6163881895170107,0.6256198977645226,-1.0833905546654705
1682104752062965,3.7384603646905816,0.5035477225909517,-0.5035477225909517
1682104752078945,3.4943160143434397,0.44251163500416624,-0.6561379415579722
1682104752094925,3.7384603646905816,0.045777065690117524,-0.4730296787976158
1682104752110904,4.623483634699028,-0.1373311970702389,-0.19836728465702436
1682104752126884,6.118867780575215,-0.5645838101777372,0.045777065690117524
1682104752142864,6.485084306095928,-0.6561379415579722,-0.3204394598305953
1682104752158844,5.294880598153668,-1.2054627298390415,-1.3580529488059483
1682104752174823,3.4332799267566543,-1.6327153429465397,-2.5787747005416577
1682104752190803,3.219653620202962,-2.731364919508678,-3.921568627450938
1682104752206783,4.654001678492364,-3.250171663996298,-5.142290379186647
1682104752222763,3.8605325398641526,-3.9520866712443876,-6.942854962996876
1682104752238742,3.9826047150377235,-3.6469062333104603,-7.217517357137353
1682104752254722,3.4027618829633184,-3.921568627450938,-7.461661707484495
1682104752270702,4.654001678492364,-4.348821240558436,-7.064927138170447
1682104752286682,4.86762798504617,-3.9826047150377235,-6.759746700236519
1682104752302662,4.928664072632955,-4.562447547112242,-6.485084306095928
1682104752318641,5.2338445105668825,-4.928664072632955,-6.820782787823305
1682104752334621,5.294880598153668,-6.2714579995422355,-7.278553444724139
1682104752350586,5.661097123674381,-7.40062561989771,-7.583733882658066
1682104752366565,5.691615167467717,-7.858396276798658,-7.522697795071281
1682104752382545,6.301976043335571,-8.133058670939135,-6.9733730067902115
1682104752398525,7.125963225757232,-7.614251926451516,-6.21042191195545
1682104752414505,7.461661707484495,-7.248035400930803,-5.416952773327239
1682104752430484,6.454566262302592,-7.3090714885175885,-5.203326466773433
1682104752446464,4.715037766079149,-7.583733882658066,-5.2338445105668825
1682104752462444,3.6469062333104603,-7.492179751277945,-5.355916685740453
1682104752478424,4.257267109178315,-7.278553444724139,-5.172808422980097
1682104752494403,6.118867780575215,-7.034409094376997,-5.355916685740453
1682104752510383,8.1025406271458,-6.759746700236519,-5.996795605401644
1682104752526363,9.597924773021987,-7.217517357137353,-6.942854962996876
1682104752542343,9.475852597848416,-7.248035400930803,-7.217517357137353
1682104752558323,8.712901503013654,-7.003891050583661,-7.858396276798658
1682104752574302,8.255130846112706,-6.637674525062948,-9.079118028534367
1682104752590282,7.40062561989771,-5.905241474021523,-8.89600976577401
1682104752606262,3.8300144960708167,-3.3112077515830833,-5.264362554360218
1682104752622242,0.8697642481116645,-1.2359807736323773,-2.2430762188143945
1682104752638221,1.022354467078685,-0.9918364232852355,-1.6327153429465397
1682104752654201,1.1749446860455919,-0.44251163500416624,-1.2054627298390415
1682104752670166,1.6632333867398756,-0.7476920729380936,-0.6256198977645226
1682104752686145,1.144426642252256,-0.9002822919051141,-0.6561379415579722
1682104752702124,0.5645838101777372,-1.266498817425827,-0.6866559853513081
1682104752718104,0.22888532845047393,-1.1139085984588064,-0.1373311970702389
1682104752734083,0.3509575036240449,-1.144426642252256,0.6256198977645226
1682104752750062,-0.106813153276903,-0.44251163500416624,0.3509575036240449
1682104752766041,0.5951018539711868,-0.7782101167315432,-0.8392462043183286
1682104752782021,2.548256656748322,-0.9613183794918996,-1.5716792553597543
1682104752798000,4.3183031967651,-0.9613183794918996,-1.5716792553597543
1682104752813979,5.050736247806526,-1.266498817425827,-1.022354467078685
1682104752829959,4.135194934004744,-1.5106431677729688,-0.22888532845047393
1682104752845938,2.5177386129548722,-1.6937514305333252,0.2899214160372594
1682104752861917,0.9002822919051141,-1.0833905546654705,0.2594033722438098
1682104752877896,1.7242694743266611,-1.1749446860455919,0.5035477225909517
1682104752893876,2.853437094682249,-0.44251163500416624,0.9002822919051141
1682104752909855,3.7079423208972457,-0.2899214160372594,1.022354467078685
1682104752925834,3.006027313649156,0.44251163500416624,1.5106431677729688
1682104752941814,1.7242694743266611,0.9613183794918996,1.968413824673803
1682104752957793,-0.015259021896667946,2.059967956054038,2.2430762188143945
1682104752973772,-1.4801251239795192,2.8229190508887996,2.182040131227609
1682104752989776,-2.090485999847374,3.585870145723675,1.5106431677729688
1682104753005756,-1.937895780880467,4.654001678492364,0.6866559853513081
1682104753021736,-0.9918364232852355,5.081254291599862,0.19836728465702436
1682104753037716,-1.2970168612191628,5.477988860914024,0.6256198977645226
1682104753053695,-1.4496070801861833,5.477988860914024,1.5106431677729688
1682104753069675,-0.5951018539711868,5.50850690470736,2.426184481574751
1682104753085655,0.3509575036240449,5.661097123674381,2.4567025253680868
1682104753101635,1.6632333867398756,5.142290379186647,1.9073777370870175
1682104753117614,1.3885709925993979,5.416952773327239,1.3275349050126124
1682104753133594,-0.106813153276903,5.783169298847952,0.7476920729380936
1682104753149574,-3.219653620202962,6.2714579995422355,0.6561379415579722
1682104753165554,-6.21042191195545,6.607156481269499,0.93080033569845
1682104753181533,-7.370107576104374,6.485084306095928,1.2054627298390415
1682104753197513,-7.888914320591994,6.668192568856284,2.1210040436408235
1682104753213493,-7.522697795071281,7.522697795071281,3.3112077515830833
1682104753229473,-7.064927138170447,8.346684977492941,3.921568627450938
1682104753245453,-6.424048218509142,8.590829327840083,4.531929503318793
1682104753261432,-4.440375371938671,8.529793240253298,5.813687342641288
1682104753277412,-4.348821240558436,9.323262378881509,6.546120393682713
1682104753293392,-4.928664072632955,9.018081940947582,6.668192568856284
1682104753309356,-4.806591897459384,8.407721065079727,6.698710612649734
1682104753325336,-3.921568627450938,9.018081940947582,7.1869993133440175
1682104753341316,-2.5177386129548722,9.475852597848416,7.675288014038301
1682104753357296,-2.090485999847374,9.018081940947582,7.522697795071281
1682104753373275,-1.2359807736323773,8.1025406271458,7.766842145418423
1682104753389255,-0.22888532845047393,8.22461280231937,8.407721065079727
1682104753405235,-0.6561379415579722,8.590829327840083,8.07202258335235
1682104753421215,-1.144426642252256,7.705806057831637,6.912336919203426
1682104753437194,-1.0833905546654705,7.522697795071281,6.393530174715806
1682104753453174,-0.4730296787976158,7.644769970244852,6.301976043335571
1682104753469154,-0.7782101167315432,7.064927138170447,6.576638437476163
1682104753485134,-3.1586175326161765,6.393530174715806,6.21042191195545
1682104753501114,-4.1962310215915295,4.959182116426291,6.0578316929884295
1682104753517093,-4.287785152971651,4.989700160219741,6.301976043335571
1682104753533073,-2.4567025253680868,4.715037766079149,6.21042191195545
1682104753549053,-0.5645838101777372,3.9520866712443876,4.989700160219741
1682104753565033,1.2359807736323773,3.0670634012359415,3.9826047150377235
1682104753581012,3.0670634012359415,3.097581445029391,3.4943160143434397
1682104753596992,3.3112077515830833,2.212558175020945,3.1586175326161765
1682104753612972,2.731364919508678,1.4496070801861833,3.219653620202962
1682104753628967,2.761882963302014,0.7782101167315432,3.463797970550104
1682104753644947,2.090485999847374,0.22888532845047393,3.921568627450938
1682104753660926,-0.5340657663844013,-0.07629510948345342,4.623483634699028
1682104753676906,-2.6092927443351073,-0.045777065690117524,4.989700160219741
1682104753692886,-1.8158236057068962,0.015259021896667946,5.355916685740453
1682104753708866,0.07629510948345342,0.6561379415579722,5.50850690470736
1682104753724846,1.266498817425827,1.1139085984588064,5.0202182040130765
1682104753740825,2.2735942626077303,0.7782101167315432,4.1046768902112944
1682104753756805,2.182040131227609,1.052872510872021,3.4943160143434397
1682104753772785,0.3509575036240449,1.5106431677729688,3.097581445029391
1682104753788765,-1.9073777370870175,1.8768596932936816,2.334630350194516
1682104753804744,-1.7242694743266611,1.6021972991530902,1.6327153429465397
1682104753820724,-0.6561379415579722,2.1515220874341594,0.9918364232852355
1682104753836704,0.5951018539711868,2.2430762188143945,0.045777065690117524
1682104753852684,2.212558175020945,1.5106431677729688,-1.1139085984588064
1682104753868663,3.1586175326161765,1.0833905546654705,-2.1210040436408235
1682104753884643,3.768978408484031,0.9002822919051141,-2.8229190508887996
1682104753900623,3.9826047150377235,0.106813153276903,-3.7079423208972457
1682104753916603,4.379339284351886,-0.3204394598305953,-4.776073853665935
1682104753932582,4.379339284351886,-0.015259021896667946,-6.820782787823305
1682104753948547,5.050736247806526,-0.106813153276903,-11.215381094071859
1682104753964527,6.759746700236519,-1.7547875181201107,-16.952773327229806
1682104753980507,9.170672159914488,-4.501411459525457,-20.462348363469914
1682104753996486,7.339589532310924,-3.6163881895170107,-19.790951400015274
1682104754012466,3.799496452277367,-2.4567025253680868,-16.128786144808146
1682104754028446,-2.6703288319218927,-0.93080033569845,-12.069886320286855
1682104754044426,-4.470893415732007,-2.0294499122605885,-9.536888685435201
1682104754060405,-3.8605325398641526,-2.7924010070954637,-7.766842145418423
1682104754076385,-1.4190890363927338,-4.226749065384865,-5.9357595178148586
1682104754092365,2.731364919508678,-5.874723430228073,-4.1962310215915295
1682104754108345,8.163576714732585,-6.546120393682713,-3.5248340581368893
1682104754124324,6.576638437476163,-4.3183031967651,-3.0365453574426056
1682104754140304,3.097581445029391,-4.562447547112242,-3.006027313649156
1682104754156284,-0.8392462043183286,-2.8229190508887996,-2.883955138475585
1682104754172264,0.2899214160372594,-1.7547875181201107,-2.3956664377813013
1682104754188243,2.639810788128443,-0.5645838101777372,-2.5787747005416577
1682104754204223,6.088349736781879,-0.1373311970702389,-2.883955138475585
1682104754220203,7.034409094376997,0.7171740291447577,-2.6703288319218927
1682104754236183,4.409857328145222,1.3580529488059483,-2.334630350194516
1682104754252163,2.212558175020945,0.5951018539711868,-1.3885709925993979
1682104754268127,1.052872510872021,1.144426642252256,-0.106813153276903
1682104754284106,1.6327153429465397,1.9989318684672526,0.7782101167315432
1682104754300086,1.5411612115663047,2.5787747005416577,0.3204394598305953
1682104754316065,0.2594033722438098,2.182040131227609,-1.1749446860455919
1682104754332044,-1.3275349050126124,1.022354467078685,-2.426184481574751
1682104754348024,-3.341725795376533,0.1373311970702389,-1.6327153429465397
1682104754364003,-5.416952773327239,0.2594033722438098,-0.38147554741738077
1682104754379982,-6.21042191195545,0.045777065690117524,1.2054627298390415
1682104754395961,-7.034409094376997,0.07629510948345342,2.4567025253680868
1682104754411941,-6.0578316929884295,-0.16784924086368846,3.097581445029391
1682104754427920,-3.128099488822727,-0.3204394598305953,3.0365453574426056
1682104754443899,-1.052872510872021,0.93080033569845,1.968413824673803
1682104754459879,1.0833905546654705,0.93080033569845,0.7782101167315432
1682104754475858,2.1515220874341594,1.6937514305333252,0.1373311970702389
1682104754491837,3.5248340581368893,3.9826047150377235,-0.4730296787976158
1682104754507816,0.9613183794918996,2.5787747005416577,0.5340657663844013
1682104754523796,1.2054627298390415,2.7924010070954637,1.2359807736323773
1682104754539775,2.2735942626077303,2.731364919508678,1.4190890363927338
1682104754555754,3.097581445029391,3.4332799267566543,1.5106431677729688
1682104754571734,2.7008468757152286,4.013122758831173,1.022354467078685
1682104754587707,1.6632333867398756,3.585870145723675,0.07629510948345342
1682104754603686,1.022354467078685,2.7924010070954637,-0.2594033722438098
1682104754619666,0.3509575036240449,2.639810788128443,0.5645838101777372
1682104754635645,-0.38147554741738077,2.3956664377813013,1.5106431677729688
1682104754651624,0.2899214160372594,1.4496070801861833,2.1210040436408235
1682104754667604,0.9918364232852355,1.8158236057068962,2.5177386129548722
1682104754683583,2.059967956054038,1.7853055619134466,2.182040131227609
1682104754699562,2.426184481574751,2.731364919508678,1.5716792553597543
1682104754715541,2.2735942626077303,3.7079423208972457,0.8087281605248791
1682104754731521,1.9989318684672526,3.463797970550104,0.4730296787976158
1682104754747500,0.5645838101777372,3.0670634012359415,0.7476920729380936
1682104754763479,-0.5035477225909517,1.6937514305333252,1.0833905546654705
1682104754779459,-1.4190890363927338,1.2359807736323773,1.1139085984588064
1682104754795438,-1.3885709925993979,1.4801251239795192,1.1139085984588064
1682104754811417,-0.41199359121083035,1.3885709925993979,0.9613183794918996
1682104754827396,0.9918364232852355,1.4801251239795192,1.0833905546654705
1682104754843376,2.548256656748322,1.5106431677729688,1.5411612115663047
1682104754859355,3.4332799267566543,1.5716792553597543,1.6021972991530902
1682104754875334,2.853437094682249,1.937895780880467,1.5106431677729688
1682104754891314,0.8392462043183286,1.9073777370870175,0.9918364232852355
1682104754907287,-0.5035477225909517,1.6632333867398756,1.052872510872021
1682104754923267,-0.6561379415579722,2.182040131227609,1.2359807736323773
1682104754939246,-0.9002822919051141,2.334630350194516,1.144426642252256
1682104754955225,-1.3275349050126124,1.7547875181201107,0.8392462043183286
1682104754971204,-0.38147554741738077,1.846341649500232,1.144426642252256
1682104754987184,1.022354467078685,2.731364919508678,1.5716792553597543
1682104755003163,2.2430762188143945,2.212558175020945,1.6937514305333252
1682104755019142,2.2430762188143945,2.059967956054038,1.3275349050126124
1682104755035122,1.3885709925993979,1.6937514305333252,0.6866559853513081
1682104755051101,0.7476920729380936,0.8392462043183286,0.2594033722438098
1682104755067080,0.3509575036240449,1.052872510872021,0.5035477225909517
1682104755083059,-0.3509575036240449,1.4801251239795192,0.6866559853513081
1682104755099039,-1.2970168612191628,0.93080033569845,0.22888532845047393
1682104755115018,-1.052872510872021,0.5645838101777372,0.045777065690117524
1682104755130997,0.045777065690117524,0.6866559853513081,0.1373311970702389
1682104755146977,0.8392462043183286,0.8392462043183286,0.5340657663844013
1682104755162956,0.6256198977645226,1.2970168612191628,0.7171740291447577
1682104755178935,1.2054627298390415,1.0833905546654705,0.8087281605248791
1682104755194914,1.9989318684672526,0.8392462043183286,0.7476920729380936
1682104755210894,2.9144731822690346,0.2899214160372594,0.8697642481116645
1682104755226867,3.341725795376533,0.5035477225909517,1.266498817425827
1682104755242847,3.4027618829633184,0.7171740291447577,1.5106431677729688
1682104755258826,2.2430762188143945,0.6561379415579722,1.0833905546654705
1682104755274805,1.2054627298390415,0.4730296787976158,0.3204394598305953
1682104755290784,-0.41199359121083035,0.9002822919051141,-0.8392462043183286
1682104755306764,-0.6561379415579722,0.6561379415579722,-1.6632333867398756
1682104755322743,-1.5411612115663047,0.7782101167315432,-2.5787747005416577
1682104755338722,0.6256198977645226,1.8158236057068962,-0.6866559853513081
1682104755354702,1.022354467078685,2.7008468757152286,0.44251163500416624
1682104755370681,1.968413824673803,2.7008468757152286,1.5716792553597543
1682104755386660,1.6327153429465397,3.4027618829633184,2.30411230640118
1682104755402639,0.7782101167315432,3.1586175326161765,2.548256656748322
1682104755418619,-0.045777065690117524,2.761882963302014,2.6092927443351073
1682104755434598,-0.4730296787976158,2.639810788128443,3.0365453574426056
1682104755450577,-0.6256198977645226,2.883955138475585,3.372243839169869
1682104755466557,-1.4190890363927338,3.128099488822727,3.128099488822727
1682104755482536,-0.93080033569845,3.2806897077897474,3.1586175326161765
1682104755498515,-0.1373311970702389,3.7079423208972457,2.6092927443351073
1682104755514495,0.5951018539711868,3.921568627450938,1.937895780880467
1682104755530474,0.5645838101777372,4.074158846417959,1.4801251239795192
1682104755546447,-0.07629510948345342,3.8605325398641526,1.2359807736323773
1682104755562427,-0.16784924086368846,3.372243839169869,1.3275349050126124
1682104755578406,0.19836728465702436,3.0670634012359415,1.7853055619134466
1682104755594385,0.5340657663844013,2.4567025253680868,2.2430762188143945
1682104755610365,0.5645838101777372,1.7853055619134466,2.30411230640118
1682104755626344,0.5951018539711868,2.2430762188143945,2.7008468757152286
1682104755642323,0.9918364232852355,2.3651483939879654,3.4943160143434397
1682104755658302,-0.19836728465702436,2.97550926985582,3.677424277103796
1682104755674282,-0.7782101167315432,3.891050583657602,3.9826047150377235
1682104755690261,0.2899214160372594,3.891050583657602,3.891050583657602
1682104755706240,0.6866559853513081,4.654001678492364,2.853437094682249
1682104755722220,1.5106431677729688,3.6469062333104603,1.4496070801861833
1682104755738199,2.3651483939879654,3.219653620202962,0.5035477225909517
1682104755754178,3.1891355764095124,3.463797970550104,0.2899214160372594
1682104755770157,5.416952773327239,4.348821240558436,0.015259021896667946
1682104755786137,2.182040131227609,3.9826047150377235,0.41199359121083035
1682104755802116,0.5951018539711868,3.1891355764095124,-0.16784924086368846
1682104755818095,0.5951018539711868,2.1515220874341594,-0.3509575036240449
1682104755834075,1.1749446860455919,1.9989318684672526,0.015259021896667946
1682104755850054,2.212558175020945,1.7853055619134466,0.8392462043183286
1682104755866027,1.1749446860455919,2.426184481574751,1.266498817425827
1682104755882007,0.5645838101777372,1.8768596932936816,0.9613183794918996
1682104755897986,-0.045777065690117524,1.8768596932936816,0.4730296787976158
1682104755913965,0.6866559853513081,1.4801251239795192,-0.045777065690117524
1682104755929945,2.212558175020945,1.1139085984588064,-0.2594033722438098
1682104755945924,2.2735942626077303,1.266498817425827,-0.41199359121083035
1682104755961903,1.7547875181201107,0.6866559853513081,-1.022354467078685
1682104755977882,0.045777065690117524,0.2899214160372594,-1.3580529488059483
1682104755993862,-0.7782101167315432,-0.8087281605248791,-1.2970168612191628
1682104756009841,-1.5411612115663047,-1.6327153429465397,-0.9002822919051141
1682104756025820,-1.9073777370870175,-1.0833905546654705,-0.2899214160372594
1682104756041800,-0.9002822919051141,-1.1139085984588064,-0.7476920729380936
1682104756057779,0.3204394598305953,-1.9073777370870175,-1.5106431677729688
1682104756073758,1.6632333867398756,-2.4567025253680868,-2.2430762188143945
1682104756089738,2.9144731822690346,-2.5177386129548722,-2.4567025253680868
1682104756105717,2.639810788128443,-2.731364919508678,-2.639810788128443
1682104756121696,1.2359807736323773,-3.1891355764095124,-2.30411230640118
1682104756137675,0.106813153276903,-3.6469062333104603,-1.8768596932936816
1682104756153655,0.07629510948345342,-3.8300144960708167,-1.7242694743266611
1682104756169634,-0.5340657663844013,-3.7384603646905816,-1.9989318684672526
1682104756185608,-0.106813153276903,-4.348821240558436,-2.334630350194516
1682104756201587,0.8087281605248791,-3.9826047150377235,-2.1210040436408235
1682104756217566,2.639810788128443,-3.677424277103796,-1.8158236057068962
1682104756233545,2.761882963302014,-3.250171663996298,-1.7547875181201107
1682104756249525,1.9073777370870175,-3.6163881895170107,-2.30411230640118
1682104756265504,0.38147554741738077,-3.585870145723675,-2.639810788128443
1682104756281483,-0.015259021896667946,-3.585870145723675,-2.731364919508678
1682104756297463,-0.22888532845047393,-3.3112077515830833,-2.761882963302014
1682104756313442,-0.8392462043183286,-3.6469062333104603,-3.1891355764095124
1682104756329421,-0.8087281605248791,-4.287785152971651,-3.372243839169869
1682104756345400,-0.3204394598305953,-4.287785152971651,-2.9449912260623705
1682104756361380,-0.106813153276903,-4.074158846417959,-1.937895780880467
1682104756377359,-0.93080033569845,-3.585870145723675,-1.5411612115663047
1682104756393338,-1.5411612115663047,-3.585870145723675,-1.7853055619134466
1682104756409318,-1.3580529488059483,-3.5248340581368893,-2.2735942626077303
1682104756425297,-0.015259021896667946,-3.4332799267566543,-2.426184481574751
1682104756441276,0.9918364232852355,-3.2806897077897474,-2.090485999847374
1682104756457255,0.1373311970702389,-2.8229190508887996,-1.6021972991530902
1682104756473235,-1.7547875181201107,-2.8229190508887996,-1.5716792553597543
1682104756489214,-3.2806897077897474,-2.97550926985582,-1.937895780880467
1682104756505188,-2.5787747005416577,-3.219653620202962,-1.9989318684672526
1682104756521167,-0.9613183794918996,-3.0365453574426056,-1.9073777370870175
1682104756537146,0.3509575036240449,-3.097581445029391,-1.5106431677729688
1682104756553125,0.16784924086368846,-3.128099488822727,-0.93080033569845
1682104756569105,-1.052872510872021,-3.0365453574426056,-0.5645838101777372
1682104756585084,-1.6327153429465397,-3.4027618829633184,-0.19836728465702436
1682104756601063,-3.1891355764095124,-2.97550926985582,-0.5035477225909517
1682104756617043,-3.341725795376533,-3.219653620202962,-0.9613183794918996
1682104756633022,-2.548256656748322,-3.1586175326161765,-0.9613183794918996
1682104756649001,-2.334630350194516,-2.7008468757152286,-0.44251163500416624
1682104756664981,-1.2054627298390415,-3.6163881895170107,-0.4730296787976158
1682104756680960,-0.5645838101777372,-4.16571297779808,-0.19836728465702436
1682104756696939,-0.8697642481116645,-4.1046768902112944,-0.2594033722438098
1682104756712918,-1.6632333867398756,-3.891050583657602,-0.3509575036240449
1682104756728898,-1.7853055619134466,-3.219653620202962,-0.4730296787976158
1682104756744877,-0.07629510948345342,-2.639810788128443,-0.41199359121083035
1682104756760856,1.7853055619134466,-2.2430762188143945,-0.16784924086368846
1682104756776836,1.5106431677729688,-0.9613183794918996,0.38147554741738077
1682104756792815,0.3509575036240449,-0.9002822919051141,0.7171740291447577
1682104756808794,-0.9613183794918996,-0.8392462043183286,0.9002822919051141
1682104756824768,-0.8087281605248791,-0.3204394598305953,1.5411612115663047
1682104756840747,-1.2054627298390415,1.2970168612191628,1.8158236057068962
1682104756856726,-0.38147554741738077,1.7853055619134466,1.6937514305333252
1682104756872706,0.015259021896667946,1.9989318684672526,0.9918364232852355
1682104756888685,0.6561379415579722,1.2359807736323773,0.5035477225909517
1682104756904664,0.16784924086368846,0.07629510948345342,0.44251163500416624
1682104756920643,0.3509575036240449,-0.8697642481116645,0.8087281605248791
1682104756936623,1.4190890363927338,-0.5951018539711868,1.8768596932936816
1682104756952602,2.4872205691615363,0.6256198977645226,3.0365453574426056
1682104756968581,2.1515220874341594,1.8158236057068962,2.3956664377813013
1682104756984561,2.3956664377813013,2.5177386129548722,0.6866559853513081
1682104757000540,3.9520866712443876,3.585870145723675,-0.5951018539711868
1682104757016519,4.928664072632955,4.806591897459384,-1.6632333867398756
1682104757032498,6.088349736781879,5.081254291599862,-2.30411230640118
1682104757048478,6.21042191195545,5.844205386434737,-1.6327153429465397
1682104757064457,4.562447547112242,6.820782787823305,-0.106813153276903
1682104757080436,4.135194934004744,7.339589532310924,0.16784924086368846
1682104757096416,3.9826047150377235,7.125963225757232,0.16784924086368846
1682104757112395,3.585870145723675,6.9733730067902115,0.5035477225909517
1682104757128374,1.3275349050126124,6.668192568856284,2.6092927443351073
1682104757144348,-1.6632333867398756,5.569542992294146,3.9826047150377235
1682104757160327,-1.8768596932936816,2.6703288319218927,4.440375371938671
1682104757176306,-0.9002822919051141,0.6866559853513081,5.050736247806526
1682104757192286,0.44251163500416624,-1.7853055619134466,4.562447547112242
1682104757208265,-0.3509575036240449,-3.5248340581368893,2.6092927443351073
1682104757224244,-24.765392538338347,-4.379339284351886,1.7547875181201107
1682104757240224,-57.93850614175631,7.522697795071281,3.4332799267566543
1682104757256203,-61.50911726558331,16.952773327229693,6.668192568856284
1682104757272182,-62.51621271076522,18.142977035171953,9.811551079575793
1682104757288161,-60.410467689021175,32.60852979324045,17.196917677576835
1682104757304141,-56.56519417105369,12.161440451666977,17.65468833447767
1682104757320120,-45.02937361715112,5.2338445105668825,19.54680704966802
1682104757336099,-23.605706874189423,-7.461661707484495,20.737010757610392
1682104757352079,-7.034409094376997,-13.687342641336613,18.081940947585167
1682104757368058,-2.6092927443351073,-14.236667429617683,12.832837415121617
1682104757384037,-0.7171740291447577,-12.954909590295188,7.1869993133440175
1682104757400016,8.041504539559014,-12.710765239948046,4.074158846417959
1682104757415996,17.624170290684333,-10.238803692683291,2.090485999847374
1682104757431975,22.995345998321454,-7.064927138170447,-0.045777065690117524
1682104757447954,26.840619516288825,-4.1962310215915295,-1.5106431677729688
1682104757463928,32.05920500495927,-8.07202258335235,5.783169298847952
1682104757479907,38.89524681467924,-15.335317006179821,15.945677882047676
1682104757495886,36.75898374914186,-15.182726787212914,24.88746471351169
1682104757511866,25.131609063858832,-8.804455634393776,27.51201647974358
1682104757527845,21.622034027618724,-6.301976043335571,20.187685969329323
1682104757543824,15.793087663080769,-6.424048218509142,7.522697795071281
1682104757559804,7.156481269550568,-5.50850690470736,1.144426642252256
1682104757575783,2.2735942626077303,-3.219653620202962,-2.090485999847374
1682104757591762,2.4567025253680868,-1.7853055619134466,-4.013122758831173
1682104757607741,5.600061036087595,-0.8392462043183286,-4.1962310215915295
1682104757623721,12.68024719615471,0.9613183794918996,-5.325398641947004
1682104757639700,21.9577325093461,3.0365453574426056,-9.262226291294724
1682104757655679,21.438925764858368,4.898146028839506,-12.832837415121617
1682104757671659,13.687342641336613,7.125963225757232,-15.793087663080883
1682104757687638,6.790264744029855,9.140154116121153,-17.56313420309766
1682104757703617,2.059967956054038,11.184863050278409,-16.830701152056236
1682104757719596,-1.4496070801861833,12.283512626840547,-14.999618524452558
1682104757735576,-4.1962310215915295,12.985427634088637,-11.581597619592571
1682104757751555,-5.294880598153668,11.825741969939713,-8.865491721980561
1682104757767534,-5.355916685740453,10.177767605096506,-4.654001678492364
1682104757783508,-1.7242694743266611,6.454566262302592,1.6021972991530902
1682104757799487,-2.059967956054038,7.705806057831637,9.170672159914488
1682104757815467,-5.416952773327239,8.1025406271458,17.746242465857904
1682104757831446,-5.996795605401644,3.555352101930225,22.049286640726223
1682104757847425,-4.348821240558436,-3.677424277103796,24.734874494544783
1682104757863404,-7.675288014038301,-4.623483634699028,33.06630045014117
1682104757879384,-4.135194934004744,-10.727092393377575,40.81788357366304
1682104757895363,-2.090485999847374,-14.267185473411132,42.03860532539875
1682104757911342,2.182040131227609,-18.997482261387063,39.7192339971009
1682104757927322,5.752651255054502,-20.5233844510567,37.582970931563295
1682104757943301,9.750514991989007,-20.79804684519729,35.35515373464568
1682104757959280,9.29274433508806,-18.051422903791945,34.59220263981092
1682104757975259,9.079118028534367,-15.762569619287433,33.76821545738926
1682104757991239,5.691615167467717,-14.328221560997918,28.427557793545247
1682104758007218,3.1586175326161765,-12.52765697718769,20.737010757610392
1682104758023197,-0.9918364232852355,-10.63553826199734,13.534752422369706
1682104758039177,-0.9002822919051141,-9.41481651026163,8.865491721980561
1682104758055156,2.3956664377813013,-9.29274433508806,5.844205386434737
1682104758071135,5.722133211261166,-9.44533455405508,2.7008468757152286
1682104758087114,6.759746700236519,-11.886778057526499,-1.7547875181201107
1682104758103119,6.515602349889377,-13.87045090409697,-7.949950408178779
1682104758119098,5.477988860914024,-13.626306553749828,-12.039368276493406
1682104758135077,3.8605325398641526,-11.001754787518053,-12.558175020981139
1682104758151056,2.548256656748322,-7.583733882658066,-12.954909590295188
1682104758167036,0.3509575036240449,-5.966277561608308,-13.962005035477205
1682104758183015,-0.8697642481116645,-7.461661707484495,-14.755474174105416
1682104758198994,-1.022354467078685,-9.079118028534367,-13.687342641336613
1682104758214974,0.16784924086368846,-9.079118028534367,-11.459525444419
1682104758230953,-0.16784924086368846,-8.133058670939135,-9.689478904402222
1682104758246932,-2.731364919508678,-6.851300831616641,-9.140154116121153
1682104758262911,-6.363012130922357,-6.424048218509142,-10.78812848096436
1682104758278891,-9.9641412985427,-5.142290379186647,-13.015945677881973
1682104758294870,-8.865491721980561,-3.677424277103796,-15.2437628747997
1682104758310849,-10.78812848096436,-0.5035477225909517,-17.135881589990163
1682104758326829,-4.257267109178315,1.2970168612191628,-19.33318074311444
1682104758342808,-2.2430762188143945,5.874723430228073,-17.1663996337835
1682104758358787,0.5951018539711868,7.736324101625087,-16.61707484550243
1682104758374766,-0.4730296787976158,11.062790875104838,-16.281376363775166
1682104758390746,-0.8087281605248791,14.66392004272518,-13.717860685130063
1682104758406725,-0.8087281605248791,19.0280003051804,-7.644769970244852
1682104758422699,-2.9449912260623705,23.84985122453645,0.7782101167315432
1682104758438678,-7.55321583886473,25.71145189593335,9.44533455405508
1682104758454657,-12.52765697718769,25.497825589379545,15.060654612039343
1682104758470636,-14.999618524452558,24.917982757305253,17.89883268482481
1682104758486616,-12.64972915236126,23.60570687418931,17.34950789654374
1682104758502595,-8.529793240253298,21.530479896238603,14.175631342030897
1682104758518574,-5.50850690470736,18.87541008621338,10.025177386129485
1682104758534554,-3.8300144960708167,16.861219195849458,6.912336919203426
1682104758550533,-2.7008468757152286,15.36583504997327,4.1046768902112944
1682104758566512,-3.4943160143434397,14.511329823758274,2.1515220874341594
1682104758582491,-3.7079423208972457,12.985427634088637,0.3509575036240449
1682104758598471,-5.203326466773433,14.145113298237561,0.5645838101777372
1682104758614450,-6.088349736781879,16.03723201342791,1.3885709925993979
1682104758630429,-6.485084306095928,17.074845502403264,2.1210040436408235
1682104758646409,-5.1117723353933116,16.220340276188267,2.30411230640118
1682104758662388,-3.4943160143434397,15.701533531700534,1.8158236057068962
1682104758678367,-1.6021972991530902,14.785992217898752,1.1749446860455919
1682104758694347,0.44251163500416624,13.717860685130063,0.1373311970702389
1682104758710326,2.334630350194516,13.260090028229115,-0.7171740291447577
1682104758726305,3.341725795376533,11.520561532005786,-1.0833905546654705
1682104758742279,0.9002822919051141,9.933623254749364,-1.266498817425827
1682104758758258,-2.3651483939879654,7.705806057831637,0.3509575036240449
1682104758774237,-3.8300144960708167,5.996795605401644,3.0365453574426056
1682104758790217,-5.905241474021523,6.637674525062948,8.834973678187225
1682104758806196,-10.452429999236983,10.513466086823769,15.945677882047676
1682104758822175,-16.89173723964302,12.039368276493406,21.83566033417253
1682104758838154,-20.981155107957647,9.140154116121153,26.718547341115254
1682104758854134,-29.404135194934042,9.262226291294724,28.91584649423953
1682104758870113,-26.71854734111548,4.531929503318793,28.946364538033095
1682104758886092,-17.95986877241171,1.6327153429465397,28.183413443198106
1682104758902072,-5.661097123674381,-1.3885709925993979,25.101091020065496
1682104758918051,3.9520866712443876,-4.898146028839506,18.234531166552188
1682104758934030,9.384298466468294,-6.912336919203426,11.581597619592571
1682104758950009,9.048599984740918,-8.499275196459848,8.468757152666512
1682104758965989,1.144426642252256,-6.607156481269499,3.799496452277367
1682104758981968,1.266498817425827,-2.7008468757152286,0.1373311970702389
1682104758997947,4.013122758831173,0.4730296787976158,0.7171740291447577
1682104759013927,4.379339284351886,4.1046768902112944,0.16784924086368846
1682104759029906,4.83710994125272,6.1493858243686645,-2.0294499122605885
1682104759045885,7.217517357137353,7.492179751277945,-2.883955138475585
1682104759061859,8.407721065079727,8.62134737163342,-3.677424277103796
1682104759077838,6.88181887541009,8.529793240253298,-5.813687342641288
1682104759093817,3.463797970550104,9.41481651026163,-5.447470817120575
1682104759109797,-1.0833905546654705,10.75761043717091,-3.463797970550104
1682104759125776,-3.097581445029391,11.734187838559478,-1.4496070801861833
1682104759141755,-2.761882963302014,12.283512626840547,0.38147554741738077
1682104759157734,-0.7782101167315432,13.656824597543277,0.8697642481116645
1682104759173714,-0.7782101167315432,14.297703517204468,0.6866559853513081
1682104759189693,-6.942854962996876,14.755474174105416,0.6866559853513081
1682104759205672,-14.267185473411132,15.182726787212914,0.9613183794918996
1682104759221652,-13.595788509956492,14.358739604791253,1.7853055619134466
1682104759237631,-8.804455634393776,13.656824597543277,2.6092927443351073
1682104759253610,-6.1493858243686645,12.405584802014118,2.639810788128443
1682104759269590,-4.043640802624509,11.459525444419,3.3112077515830833
1682104759285569,-2.2430762188143945,10.513466086823769,4.592965590905578
1682104759301548,-1.6327153429465397,9.811551079575793,4.86762798504617
1682104759317527,-3.768978408484031,8.804455634393776,4.16571297779808
1682104759333507,-4.1046768902112944,7.888914320591994,3.585870145723675
1682104759349486,-0.7171740291447577,6.546120393682713,2.2735942626077303
1682104759365465,3.128099488822727,5.355916685740453,0.8087281605248791
1682104759381439,4.684519722285813,3.891050583657602,-0.38147554741738077
1682104759397418,5.172808422980097,2.4872205691615363,-2.1210040436408235
1682104759413397,6.240939955748786,1.6021972991530902,-2.639810788128443
1682104759429377,6.240939955748786,1.144426642252256,-2.853437094682249
1682104759445356,4.16571297779808,0.41199359121083035,-3.6163881895170107
1682104759461335,4.1962310215915295,-0.5951018539711868,-4.16571297779808
1682104759477315,6.607156481269499,-1.2054627298390415,-5.0202182040130765
1682104759493294,8.804455634393776,-1.6021972991530902,-6.515602349889377
1682104759509273,9.689478904402222,-2.731364919508678,-6.72922865644307
1682104759525252,6.820782787823305,-3.219653620202962,-5.783169298847952
1682104759541232,3.8605325398641526,-3.250171663996298,-4.898146028839506
1682104759557211,2.761882963302014,-3.0365453574426056,-4.348821240558436
1682104759573190,1.022354467078685,-3.7079423208972457,-4.501411459525457
1682104759589170,3.006027313649156,-3.768978408484031,-4.745555809872599
1682104759605149,6.240939955748786,-3.097581445029391,-5.661097123674381
1682104759621128,3.921568627450938,-3.0670634012359415,-5.996795605401644
1682104759637107,1.6021972991530902,-2.9449912260623705,-4.989700160219741
1682104759653087,4.257267109178315,-3.0365453574426056,-3.372243839169869
1682104759669066,7.461661707484495,-3.2806897077897474,-2.548256656748322
1682104759685045,6.790264744029855,-3.4943160143434397,-3.128099488822727
1682104759701019,5.0202182040130765,-4.226749065384865,-4.257267109178315
1682104759716998,7.736324101625087,-4.013122758831173,-4.531929503318793
1682104759732977,8.834973678187225,-3.9520866712443876,-4.776073853665935
1682104759748957,4.379339284351886,-3.585870145723675,-5.844205386434737
1682104759764936,-0.16784924086368846,-3.677424277103796,-6.515602349889377
1682104759780915,1.5716792553597543,-3.128099488822727,-5.691615167467717
1682104759796895,5.874723430228073,-3.0670634012359415,-5.0202182040130765
1682104759812874,7.705806057831637,-3.1891355764095124,-5.050736247806526
1682104759828853,7.431143663691159,-3.799496452277367,-4.83710994125272
1682104759844833,7.797360189211872,-4.3183031967651,-4.531929503318793
1682104759860812,6.2714579995422355,-4.440375371938671,-3.9826047150377235
1682104759876791,1.5411612115663047,-4.1962310215915295,-3.4027618829633184
1682104759892770,-1.1139085984588064,-3.7384603646905816,-2.8229190508887996
1682104759908750,1.8768596932936816,-2.9144731822690346,-1.937895780880467
1682104759924729,4.86762798504617,-3.1891355764095124,-1.4496070801861833
1682104759940708,4.1962310215915295,-3.4943160143434397,-1.7853055619134466
1682104759956688,1.3275349050126124,-4.013122758831173,-2.548256656748322
1682104759972667,0.3204394598305953,-4.074158846417959,-2.5787747005416577
1682104759988646,0.5340657663844013,-3.6469062333104603,-2.0294499122605885
1682104760004625,0.07629510948345342,-3.250171663996298,-1.6632333867398756
1682104760020599,-0.045777065690117524,-3.4332799267566543,-1.6937514305333252
1682104760036578,-0.6561379415579722,-4.135194934004744,-2.059967956054038
1682104760052558,-1.9989318684672526,-4.1046768902112944,-2.2735942626077303
1682104760068537,-1.0833905546654705,-4.013122758831173,-1.6632333867398756
1682104760084516,2.7008468757152286,-3.1891355764095124,-0.7782101167315432
1682104760100495,3.6163881895170107,-2.853437094682249,-0.16784924086368846
1682104760116475,1.052872510872021,-3.0365453574426056,-0.22888532845047393
1682104760132454,-2.3956664377813013,-4.135194934004744,-0.9613183794918996
1682104760148433,-3.9520866712443876,-5.813687342641288,-1.3885709925993979
1682104760164413,-2.426184481574751,-8.041504539559014,-0.6561379415579722
1682104760180392,-0.6866559853513081,-10.421911955443647,0.41199359121083035
1682104760196371,0.38147554741738077,-13.99252307927054,1.6327153429465397
1682104760212350,-2.1515220874341594,-23.270008392462046,0.5951018539711868
1682104760228330,-24.3076218814374,-36.240177004654015,-3.9826047150377235
1682104760244309,-68.68085755703055,-29.343099107347257,-6.668192568856284
1682104760260288,-98.74113069352256,-11.245899137865194,-13.290608072022565
1682104760276268,-92.36285954070343,-6.759746700236519,-9.41481651026163
1682104760292247,-68.22308690012972,-17.19691767757695,-1.6632333867398756
1682104760308226,-28.091859311818098,-35.90447852292664,10.849164568551146
1682104760324206,-12.619211108567924,-50.33951323720157,25.101091020065496
1682104760340179,-22.110322728313122,-55.89379720759905,37.55245288776996
1682104760356158,-35.26359960326545,-60.7156481269551,45.395590142671836
1682104760372138,-36.48432135500116,-70.32883192187376,52.29266803997871
1682104760388117,-29.12947280079345,-82.29190508888382,56.01586938277251
1682104760404096,-16.281376363775166,-93.46150911726556,56.10742351415274
1682104760420076,-5.752651255054502,-91.59990844586866,48.05065995269706
1682104760436055,0.6256198977645226,-95.50621805142293,39.44457160296042
1682104760452034,1.8768596932936816,-87.2663462272069,26.41336690318144
1682104760468013,-1.3275349050126124,-77.01228351262682,13.778896772716848
1682104760483993,-5.203326466773433,-65.59853513389794,3.799496452277367
1682104760499972,-4.440375371938671,-56.83985656519417,-4.16571297779808
1682104760515951,-1.4496070801861833,-49.08827344167241,-10.238803692683291
1682104760531931,0.2899214160372594,-40.57373922331578,-14.450293736171488
1682104760547910,-2.639810788128443,-33.73769741359581,-15.304798962386485
1682104760563889,-9.384298466468294,-28.061341268024762,-12.832837415121617
1682104760579868,-16.64759288929588,-23.605706874189423,-7.003891050583661
1682104760595848,-14.175631342030897,-25.589379720759894,0.7171740291447577
1682104760611827,-8.438239108873063,-31.05210955977725,8.07202258335235
1682104760627806,-12.375066758220783,-24.42969405661097,9.475852597848416
1682104760643786,-20.462348363469914,-20.889600976577412,11.612115663385907
1682104760659759,-13.717860685130063,-23.666742961776208,13.107499809262208
1682104760675738,1.2054627298390415,-15.152208743419465,4.654001678492364
1682104760691718,9.750514991989007,-16.678110933089215,-0.8697642481116645
1682104760707697,19.24162661173409,-19.119554436560634,-3.585870145723675
1682104760723676,21.16426337071789,-13.168535896848994,-6.88181887541009
1682104760739656,24.42969405661097,-6.393530174715806,-8.22461280231937
1682104760755635,26.138704509040963,-0.6256198977645226,-6.576638437476163
1682104760771614,25.71145189593335,5.691615167467717,-10.269321736476627
1682104760787593,17.89883268482481,12.710765239948046,-15.304798962386485
1682104760803573,13.778896772716848,15.152208743419465,-14.114595254444112
1682104760819552,20.92011902037075,9.872587167162578,-5.905241474021523
1682104760835531,27.389944304570008,4.1046768902112944,1.846341649500232
1682104760851511,26.321812771801206,8.133058670939135,1.2054627298390415
1682104760867490,22.995345998321454,14.785992217898752,-0.9613183794918996
1682104760883469,18.112458991378617,22.049286640726223,-2.9449912260623705
1682104760899448,10.543984130617218,27.420462348363344,-2.5177386129548722
1682104760915428,5.569542992294146,29.465171282520714,0.8697642481116645
1682104760931407,4.501411459525457,29.098954757,5.355916685740453
1682104760947386,8.22461280231937,26.93217364766906,3.4943160143434397
1682104760963366,11.30693522545198,27.389944304570008,1.9989318684672526
1682104760979370,23.02586404211479,27.206836041809538,-2.4567025253680868
1682104760995349,34.0123598077364,26.443884946974777,-5.874723430228073
1682104761011328,38.01022354467091,27.542534523536915,-7.797360189211872
1682104761027308,36.942092011902105,27.75616083009072,-8.62134737163342
1682104761043287,35.660334172579724,27.176317998016202,-11.367971313038765
1682104761059266,36.820019836728534,24.3076218814374,-16.800183108262786
1682104761075245,45.02937361715112,21.194781414511226,-22.262912947280142
1682104761091225,38.864728770885904,11.825741969939713,-19.42473487449456
1682104761107204,31.052109559777136,9.597924773021987,-3.341725795376533
1682104761123183,34.59220263981092,12.710765239948046,5.477988860914024
1682104761139163,48.081177996490396,17.746242465857904,2.1515220874341594
1682104761155142,41.09254596780352,5.447470817120575,0.5951018539711868
1682104761171121,43.015182726787316,-0.7782101167315432,-14.206149385824347
1682104761187101,51.407644769970375,-7.705806057831637,-29.495689326314164
1682104761203080,49.362935835813005,-5.569542992294146,-35.90447852292664
1682104761219059,41.79446097505161,18.265049210345524,-23.453116655222402
1682104761235038,37.39986266880305,22.171358815899794,-11.947814145113284
1682104761251018,28.67170214389239,28.641184100099053,-12.222476539253762
1682104761266997,8.194094758525921,33.70717936980259,-13.778896772716848
1682104761282976,2.9449912260623705,35.69085221637306,-14.145113298237561
1682104761298950,6.942854962996876,36.362249179827586,-11.032272831311502
1682104761314929,6.2714579995422355,37.064164187075676,-8.438239108873063
1682104761330908,1.968413824673803,36.026550698100436,-6.912336919203426
1682104761346888,1.1749446860455919,32.66956588082712,-6.0578316929884295
1682104761362867,4.3183031967651,28.427557793545247,-5.722133211261166
1682104761378846,3.921568627450938,23.819333180743,-5.294880598153668
1682104761394826,4.3183031967651,18.57022964827945,-4.989700160219741
1682104761410805,5.264362554360218,14.328221560997918,-3.891050583657602
1682104761426784,7.827878233005208,13.504234378576257,-1.1139085984588064
1682104761442763,12.832837415121617,15.091172655832679,-0.7476920729380936
1682104761458743,13.19905394064233,17.746242465857904,-1.3885709925993979
1682104761474722,9.99465934233615,20.21820401312266,-1.144426642252256
1682104761490701,7.217517357137353,22.537575341420506,-0.38147554741738077
1682104761506681,5.905241474021523,23.910887312123236,0.19836728465702436
1682104761522660,5.416952773327239,22.90379186694122,0.07629510948345342
1682104761538639,3.799496452277367,21.25581750209801,0.8392462043183286
1682104761554618,7.461661707484495,19.729915312428375,1.266498817425827
1682104761570598,8.194094758525921,17.502098115510762,1.2054627298390415
1682104761586577,5.1117723353933116,15.976195925841125,0.2899214160372594
1682104761602556,1.937895780880467,13.962005035477205,0.1373311970702389
1682104761618530,-0.106813153276903,12.222476539253762,0.41199359121083035
1682104761634509,-0.045777065690117524,11.123826962691624,0.44251163500416624
1682104761650488,3.097581445029391,10.391393911650198,-0.6866559853513081
1682104761666468,4.470893415732007,10.025177386129485,-2.7924010070954637
1682104761682447,5.477988860914024,9.719996948195558,-4.531929503318793
1682104761698426,6.607156481269499,8.62134737163342,-5.1117723353933116
1682104761714406,6.668192568856284,6.759746700236519,-4.592965590905578
1682104761730385,5.386434729533789,4.898146028839506,-3.1891355764095124
1682104761746364,5.813687342641288,3.006027313649156,-0.9002822919051141
1682104761762344,7.888914320591994,1.4496070801861833,1.6021972991530902
1682104761778323,9.9641412985427,-0.2594033722438098,3.2806897077897474
1682104761794302,11.886778057526499,-1.0833905546654705,3.341725795376533
1682104761810281,11.917296101319835,-1.2054627298390415,2.3956664377813013
1682104761826261,10.482948043030433,-1.052872510872021,1.3275349050126124
1682104761842240,9.689478904402222,-1.2970168612191628,0.6256198977645226
1682104761858219,9.750514991989007,-2.30411230640118,0.7476920729380936
1682104761874199,9.842069123369129,-3.2806897077897474,1.3275349050126124
1682104761890178,10.63553826199734,-4.226749065384865,1.6327153429465397
1682104761906157,12.283512626840547,-5.203326466773433,1.5411612115663047
1682104761922136,12.771801327534831,-5.569542992294146,1.052872510872021
1682104761938110,13.229571984435779,-5.844205386434737,0.1373311970702389
1682104761954089,14.785992217898752,-6.393530174715806,-0.7171740291447577
1682104761970069,15.2437628747997,-6.851300831616641,-1.7242694743266611
1682104761986048,12.222476539253762,-7.156481269550568,-2.761882963302014
1682104762002027,9.079118028534367,-5.355916685740453,-3.4332799267566543
1682104762018006,8.804455634393776,-1.6632333867398756,-2.731364919508678
1682104762033986,6.607156481269499,0.38147554741738077,-1.9989318684672526
1682104762049965,6.1493858243686645,1.3885709925993979,-0.3509575036240449
1682104762065944,6.668192568856284,1.7853055619134466,0.93080033569845
1682104762081924,8.346684977492941,0.9918364232852355,1.7853055619134466
1682104762097903,9.323262378881509,0.19836728465702436,2.2430762188143945
1682104762113882,8.285648889906156,0.015259021896667946,2.548256656748322
1682104762129861,8.1025406271458,-0.4730296787976158,3.250171663996298
1682104762145841,8.255130846112706,-0.8087281605248791,3.891050583657602
1682104762161820,7.1869993133440175,-1.4190890363927338,3.9520866712443876
1682104762177799,6.424048218509142,-1.7547875181201107,2.761882963302014
1682104762193779,6.301976043335571,-2.090485999847374,1.2054627298390415
1682104762209758,7.1869993133440175,-2.9449912260623705,-0.2899214160372594
1682104762225737,6.637674525062948,-3.0365453574426056,-1.6937514305333252
1682104762241716,4.470893415732007,-2.9449912260623705,-2.5177386129548722
1682104762257690,2.4872205691615363,-3.097581445029391,-3.3112077515830833
1682104762273669,1.6937514305333252,-3.7384603646905816,-4.16571297779808
1682104762289649,0.5951018539711868,-4.592965590905578,-5.386434729533789
1682104762305628,0.7476920729380936,-5.53902494850081,-6.607156481269499
1682104762321607,3.006027313649156,-6.942854962996876,-7.614251926451516
1682104762337587,6.790264744029855,-8.133058670939135,-8.255130846112706
1682104762353566,7.675288014038301,-7.980468451972229,-8.926527809567347
1682104762369545,6.2714579995422355,-6.790264744029855,-9.048599984740918
1682104762385524,3.4027618829633184,-5.386434729533789,-8.316166933699492
1682104762401504,-0.106813153276903,-4.684519722285813,-6.424048218509142
1682104762417483,-2.090485999847374,-4.440375371938671,-4.1046768902112944
1682104762433462,-2.426184481574751,-5.325398641947004,-2.1210040436408235
1682104762449442,-1.5716792553597543,-6.576638437476163,-1.2359807736323773
1682104762465421,0.2899214160372594,-7.949950408178779,-0.93080033569845
1682104762481400,0.41199359121083035,-7.980468451972229,-1.5411612115663047
1682104762497379,0.106813153276903,-7.156481269550568,-2.30411230640118
1682104762513359,0.3509575036240449,-5.9357595178148586,-2.639810788128443
1682104762529338,-3.128099488822727,-2.9449912260623705,-3.219653620202962
1682104762545317,-0.8392462043183286,-4.86762798504617,-2.30411230640118
1682104762561297,0.5951018539711868,-5.874723430228073,-2.059967956054038
1682104762577301,0.7476920729380936,-6.393530174715806,-2.3956664377813013
1682104762593280,1.1749446860455919,-7.125963225757232,-3.0670634012359415
1682104762609259,1.7547875181201107,-7.858396276798658,-3.555352101930225
1682104762625239,1.144426642252256,-8.468757152666512,-3.4027618829633184
1682104762641218,-0.106813153276903,-9.048599984740918,-3.2806897077897474
1682104762657197,0.7171740291447577,-9.44533455405508,-3.250171663996298
1682104762673176,3.5248340581368893,-10.818646524757696,-3.219653620202962
1682104762689156,4.226749065384865,-10.940718699931267,-3.799496452277367
1682104762705135,2.2735942626077303,-9.323262378881509,-4.1046768902112944
1682104762721114,1.3580529488059483,-7.675288014038301,-3.9826047150377235
1682104762737094,0.44251163500416624,-6.088349736781879,-3.1586175326161765
1682104762753073,0.106813153276903,-5.1117723353933116,-1.4190890363927338
1682104762769052,-1.144426642252256,-3.8605325398641526,0.44251163500416624
1682104762785031,-0.4730296787976158,-4.16571297779808,2.639810788128443
1682104762801011,1.022354467078685,-4.1046768902112944,3.9520866712443876
1682104762816990,3.4332799267566543,-3.7384603646905816,4.592965590905578
1682104762832969,4.745555809872599,-2.6092927443351073,4.86762798504617
1682104762848949,0.93080033569845,-0.045777065690117524,5.325398641947004
1682104762864928,-2.761882963302014,1.8768596932936816,6.21042191195545
1682104762880907,-3.250171663996298,2.97550926985582,7.797360189211872
1682104762896881,-3.128099488822727,4.654001678492364,9.109636072327703
1682104762912860,-2.639810788128443,6.1493858243686645,10.940718699931267
1682104762928839,-4.1046768902112944,9.597924773021987,12.161440451666977
1682104762944819,-4.440375371938671,11.154345006485073,13.260090028229115
1682104762960798,-4.776073853665935,12.466620889600904,14.084077210650776
1682104762976777,-4.898146028839506,14.480811779964824,14.297703517204468
