Timestamp (microseconds),Accel X (g),Accel Y (g),Accel Z (g)
1682104743898681,0.006286717021438903,0.6632791638056004,0.7858396276798656
1682104743914676,0.009948882276646032,0.6801251239795532,0.7949950408178834
1682104743930671,0.006286717021438903,0.6962386511024645,0.8310063324940868
1682104743946666,0.015808346684977437,0.7019760433356224,0.8047608148317691
1682104743962661,0.020691233691920274,0.7011215381094074,0.7736324101625085
1682104743978656,0.006775005722133187,0.7150377660791944,0.7610589761196307
1682104743994651,-0.005188067444876765,0.6988021667811095,0.789135576409552
1682104744010646,0.007263294422827471,0.6787823300526439,0.7476310368505379
1682104744026641,0.0071412222476539,0.6786602578774703,0.7381094071869994
1682104744042636,-0.017639429312581,0.672190432593271,0.7902342259861141
1682104744058632,-0.011169604028381741,0.6729228656443125,0.8001220721751734
1682104744074627,0.005432211795223907,0.6876935988403146,0.7594720378423743
1682104744090622,-0.001037613488975353,0.7039291981383995,0.7244373235675594
1682104744106617,-0.019348439765010994,0.6907454032196538,0.7558098725871671
1682104744122612,-0.03216601815823594,0.6854962996871903,0.7571526665140764
1682104744138607,-0.027283131151293105,0.6610818646524761,0.7759517814908063
1682104744154602,-0.023498893720912406,0.6868390936140996,0.7266346227206837
1682104744170597,-0.024719615472648115,0.7016098268101016,0.7344472419317922
1682104744186592,-0.019836728465705278,0.7047837033646145,0.7112535286488137
1682104744202587,-0.03472953383688093,0.7019760433356224,0.7278553444724194
1682104744218597,-0.06036469062333083,0.7069810025177388,0.7468986037994965
1682104744234592,-0.06964217593652267,0.6996566720073245,0.7587396047913328
1682104744250587,-0.0678110933089191,0.7018539711604488,0.7284657053482873
1682104744266582,-0.06744487678339839,0.7064927138170445,0.7174792095826659
1682104744282577,-0.07037460898756409,0.7019760433356224,0.7113756008239873
1682104744298572,-0.0631723506523234,0.6994125276569774,0.7188220035095751
1682104744314567,-0.05792324711985941,0.7025864042114902,0.7332265201800565
1682104744330562,-0.053284504463263715,0.7176012817578394,0.7511711299305714
1682104744346557,-0.04718089570458517,0.7261463340199894,0.7542229343099107
1682104744362552,-0.04046692607003877,0.729686427100023,0.7554436560616464
1682104744378547,-0.03839169909208806,0.7298084992751965,0.7587396047913328
1682104744394542,-0.03997863736934448,0.7280994888227665,0.7531242847333486
1682104744410537,-0.04132143129625376,0.727122911421378,0.7464103150988022
1682104744426532,-0.041687647821774476,0.7217517357137408,0.7298084992751965
1682104744442527,-0.045349813076981604,0.713450827801938,0.7208972304875259
1682104744458522,-0.05120927748531301,0.7050278477149616,0.7345693141069658
1682104744474517,-0.05023270008392444,0.6985580224307624,0.7240711070420387
1682104744490512,-0.04962233920805659,0.6955062180514231,0.7256580453192951
1682104744506507,-0.0567025253681237,0.6925764858472574,0.7261463340199894
1682104744522503,-0.06170748455024011,0.6934309910734724,0.7283436331731137
1682104744538482,-0.06903181506065481,0.7050278477149616,0.6503395132372018
1682104744554477,-0.07061875333791123,0.6994125276569774,0.7393301289387351
1682104744570472,-0.06817730983443981,0.6934309910734724,0.7196765087357901
1682104744586467,-0.06390478370336483,0.6984359502555888,0.7093003738460366
1682104744602462,-0.07061875333791123,0.7038071259632259,0.7316395819028001
1682104744618457,-0.06988632028686981,0.7139391165026323,0.7359121080338751
1682104744634452,-0.06366063935301769,0.7232166018158237,0.7163805600061037
1682104744650447,-0.05999847409781012,0.7321278706034944,0.7246814679179066
1682104744666442,-0.06805523765926624,0.7315175097276265,0.7342030975814451
1682104744682438,-0.07037460898756409,0.7302967879758908,0.7335927367055772
1682104744698433,-0.0753795681696805,0.7278553444724194,0.7280994888227665
1682104744714428,-0.07476920729381265,0.7263904783703365,0.7172350652323187
1682104744730423,-0.07086289768825837,0.7257801174944687,0.7155260547798887
1682104744746418,-0.07171740291447337,0.7235828183413444,0.7188220035095751
1682104744762413,-0.07403677424277122,0.718577859159228,0.7249256122682537
1682104744778408,-0.07025253681239052,0.7217517357137408,0.7149156939040209
1682104744794403,-0.07220569161516766,0.7201647974364844,0.7141832608529795
1682104744810398,-0.07147325856412623,0.7183337148088809,0.6991683833066302
1682104744826393,-0.0707408255130848,0.7174792095826659,0.7011215381094074
1682104744842388,-0.07635614557106907,0.7118638895246816,0.7112535286488137
1682104744858062,-0.07562371252002764,0.7099107347219045,0.7293202105745022
1682104744874056,-0.07464713511863907,0.7140611886778059,0.7395742732890822
1682104744890050,-0.07086289768825837,0.7282215609979401,0.7404287785152972
1682104744906043,-0.062317845426107965,0.7403067063401236,0.733104448004883
1682104744922037,-0.06146334019989297,0.7394522011139086,0.7266346227206837
1682104744938030,-0.06720073243305125,0.7317616540779737,0.7250476844434273
1682104744954024,-0.06598001068131554,0.7285877775234608,0.7378652628366522
1682104744970018,-0.06671244373235696,0.7252918287937744,0.723704890516518
1682104744986011,-0.06793316548409267,0.7212634470130466,0.717723353933013
1682104745002005,-0.06988632028686981,0.7193102922102694,0.7180895704585337
1682104745017998,-0.06805523765926624,0.7163805600061037,0.710887312123293
1682104745033992,-0.06939803158617552,0.720286869611658,0.7156481269550623
1682104745049986,-0.07122911421377909,0.7178454261081866,0.7179674982833602
1682104745065979,-0.0686655985351341,0.7199206530861373,0.7113756008239873
1682104745081973,-0.0753795681696805,0.7201647974364844,0.7055161364156559
1682104745097966,-0.08050659952697048,0.7197985809109637,0.6974593728542002
1682104745113960,-0.07904173342488763,0.7223620965896087,0.7036850537880524
1682104745129953,-0.07953002212558191,0.7249256122682537,0.708323796444648
1682104745145947,-0.0774547951476312,0.724559395742733,0.7157701991302359
1682104745161941,-0.07867551689936692,0.7270008392462044,0.7248035400930801
1682104745177642,-0.07257190814068837,0.7276112001220723,0.7122301060502023
1682104745193635,-0.07293812466620908,0.7354238193331808,0.7075913633936066
1682104745209628,-0.07904173342488763,0.74189364461738,0.7005111772335395
1682104745225620,-0.09503318837262542,0.7328603036545358,0.5524376287479971
1682104745241613,-0.0774547951476312,0.7445792324711986,0.7584954604409857
1682104745257606,-0.07708857862211049,0.7735103379873349,0.7440909437705043
1682104745273598,-0.06536964980544768,0.7953612573434041,0.7486076142519265
1682104745289591,-0.053772793163958,0.8328374151216904,0.7527580682078279
1682104745305584,-0.0357061112382695,0.8584725719081403,0.7368886854352636
1682104745321576,-0.051819638361180864,0.8726329442282745,0.7299305714503701
1682104745337569,-0.06195162890058725,0.866529335469596,0.7304188601510644
1682104745353562,-0.06903181506065481,0.8587167162584874,0.7263904783703365
1682104745369554,-0.08245975432974761,0.8384527351796747,0.7049057755397881
1682104745385547,-0.0896620126649883,0.8499275196459903,0.6653543907835511
1682104745401539,-0.0850232700083926,0.8313725490196076,0.6630350194552532
1682104745417532,-0.05926604104676869,0.8189211871519033,0.6588845654993518
1682104745433525,-0.062195773250934394,0.7801022354467078,0.7097886625467309
1682104745449517,-0.07794308384832549,0.7493400473029679,0.6856183718623639
1682104745465510,-0.06073090714885154,0.7420157167925536,0.602243076218814
1682104745481503,-0.019470511940184565,0.688426031891356,0.7089341573205159
1682104745497192,-0.04571602960250232,0.6603494316014347,0.688426031891356
1682104745513183,-0.055725947966735134,0.6227512016479739,0.7129625391012437
1682104745529174,-0.04083314259555948,0.6686503395132375,0.6341039139391169
1682104745545166,-0.006652933546959616,0.7213855191882201,0.5879606317235062
1682104745561157,-0.0071412222476539,0.729686427100023,0.5878385595483326
1682104745577148,-0.02667277027542525,0.7451895933470665,0.5320515754940107
1682104745593139,-0.03143358510719452,0.7742427710383764,0.5206988632028686
1682104745609130,-0.03851377126726163,0.8037842374303805,0.5199664301518272
1682104745625122,-0.011291676203555312,0.7932860303654534,0.5355916685740443
1682104745641113,-0.035217822537575216,0.8456549935149154,0.5628137636377506
1682104745657104,-0.0109254596780346,0.8681162737468524,0.5654993514915692
1682104745673095,-0.028870069428549527,0.9033951323720153,0.5386434729533836
1682104745689087,-0.023132677195391693,0.8815442130159461,0.5525597009231706
1682104745705078,-0.04119935912108019,0.8915541313801789,0.5585412375066756
1682104745721069,-0.08136110475318548,0.8510261692225525,0.6419165331502255
1682104745737060,-0.0783093003738462,0.7876707103074692,0.5801480125123977
1682104745753051,-0.06756694895857196,0.7576409552147707,0.5995574883649955
1682104745769043,-0.06341649500267055,0.7609369039444571,0.5580529488059813
1682104745785034,-0.08612191958495474,0.7808346684977492,0.5648889906157013
1682104745801025,-0.10077058060578326,0.764965285725185,0.5722133211261156
1682104745816772,-0.11773861295490962,0.7725337605859464,0.5612268253604942
1682104745832762,-0.10882734416723894,0.7945067521171891,0.5498741130693521
1682104745848753,-0.1123674372472725,0.8356450751506825,0.4967727168688487
1682104745864743,-0.0905165178912033,0.7846189059281299,0.5528038452735178
1682104745880733,-0.1290913252460517,0.8378423743038068,0.5051956969558251
1682104745896723,-0.11419851987487606,0.8748302433813988,0.5451132982375828
1682104745912714,-0.08062867170214405,0.9062027924010074,0.5144731822690165
1682104745928704,-0.06854352635996053,0.9113298237582974,0.5303425650415807
1682104745944694,-0.06012054627298369,0.9176775768673231,0.5550011444266421
1682104745960684,-0.05389486533913157,0.9302510109102009,0.5467002365148392
1682104745976675,-0.040222781719691625,0.8866712443732361,0.5991912718394747
1682104745992665,-0.02923628595407024,0.8844739452201118,0.6034637979705497
1682104746008655,-0.017639429312581,0.8606698710612646,0.6397192339971012
1682104746024645,-0.013122758831158876,0.8323491264209961,0.6371557183184562
1682104746040636,-0.010315098802166744,0.8043945983062484,0.6543678950179297
1682104746056626,-0.0025024795910582043,0.7918211642633706,0.6560769054703597
1682104746072616,-0.00457770656900891,0.7794918745708399,0.684153505760281
1682104746088606,-0.012878614480811734,0.7501945525291829,0.7230945296406501
1682104746104597,0.009216449225604606,0.7510490577553979,0.7094224460212102
1682104746120587,0.03607232776379021,0.7885252155336842,0.6688944838635846
1682104746136322,0.05352864881361086,0.8097657740138855,0.6499732967116811
1682104746152311,0.05426108186465228,0.8035400930800334,0.654856183718624
1682104746168300,0.044129091325245895,0.7776607919432363,0.6477759975585569
1682104746184290,0.04119935912108019,0.7569085221637293,0.6792706187533382
1682104746200279,0.038757915617608774,0.7361562523842222,0.6560769054703597
1682104746216268,0.03411917296101308,0.7147936217288473,0.6344701304646376
1682104746232257,0.03179980163271523,0.7095445181963838,0.6359349965667205
1682104746248247,0.02801556420233453,0.7049057755397881,0.6325169756618605
1682104746264236,0.021789883268482413,0.7082017242694745,0.6220187685969325
1682104746280225,0.02642862592507811,0.7055161364156559,0.6181124589913782
1682104746296215,0.029968719005111666,0.7061264972915238,0.6333714808880755
1682104746312204,0.030212863355458808,0.697825589379721,0.6643778133821625
1682104746328193,0.03265430685893023,0.6934309910734724,0.6861066605630581
1682104746344183,0.036316472114137355,0.6842755779354546,0.707469291218433
1682104746360172,0.036316472114137355,0.6675516899366754,0.7584954604409857
1682104746376161,0.040222781719691625,0.6551003280689711,0.7196765087357901
1682104746392151,0.03802548256656735,0.6786602578774703,0.7392080567635615
1682104746408140,0.032410162508583085,0.6997787441824981,0.7196765087357901
1682104746424129,0.026062409399557396,0.7016098268101016,0.685008010986496
1682104746440118,0.012634470130464592,0.7360341802090486,0.6572976272220954
1682104746455902,0.008850232700083893,0.7522697795071336,0.7039291981383995
1682104746471890,0.003479056992446772,0.7685053788052185,0.6975814450293738
1682104746487878,0.017151140611886717,0.780590524147402,0.7244373235675594
1682104746503867,0.039124132143129486,0.7981689173723963,0.716868848706798
1682104746519855,0.060975051499198685,0.8057373922331577,0.7412832837415122
1682104746535843,0.07342641336690292,0.8043945983062484,0.7472648203250172
1682104746551832,0.07843137254901933,0.8053711757076369,0.7428702220187686
1682104746567820,0.08490119783321859,0.7926756694895856,0.7550774395361257
1682104746583809,0.09991607537956781,0.7711909666590371,0.759838254367895
1682104746599797,0.10199130235751852,0.7503166247043564,0.7205310139620051
1682104746615785,0.08514534218356573,0.7178454261081866,0.6697489890897996
1682104746631774,0.06292820630197582,0.6917219806210424,0.6442359044785233
1682104746647762,0.051941710536354435,0.6695048447394525,0.6526588845654997
1682104746663750,0.044129091325245895,0.6618142977035175,0.6610818646524761
1682104746679739,0.04071107042038591,0.6587624933241782,0.6748760204470896
1682104746695727,0.041443503471427334,0.6664530403601132,0.6818341344319832
1682104746711715,0.05011062790875087,0.682444495307851,0.6749980926222632
1682104746727704,0.06439307240405867,0.6973373006790267,0.673044937819486
1682104746743692,0.07513542381933291,0.6881818875410088,0.7240711070420387
1682104746759680,0.06927595941100151,0.7049057755397881,0.7501945525291829
1682104746775421,0.06060883497367797,0.710887312123293,0.8118410009918362
1682104746791408,0.07891966124971361,0.711741817349508,0.8086671244373234
1682104746807396,0.08892957961394643,0.7260242618448158,0.7829098954756999
1682104746823383,0.08905165178912,0.7179674982833602,0.7700923170824749
1682104746839370,0.0936903944457157,0.7179674982833602,0.7719233997100785
1682104746855358,0.09149309529259142,0.6980697337300681,0.7721675440604256
1682104746871345,0.08673228046082215,0.673044937819486,0.7523918516823072
1682104746887333,0.08636606393530144,0.6593728542000461,0.7553215838864729
1682104746903320,0.09137102311741785,0.6524147402151526,0.7733882658121614
1682104746919307,0.10211337453269209,0.659983215075914,0.7763179980163271
1682104746935295,0.10199130235751852,0.6554665445944918,0.7779049362935835
1682104746951282,0.10406652933546923,0.6666971847104604,0.7635004196231021
1682104746967270,0.1033340962844278,0.6712138551918825,0.7553215838864729
1682104746983257,0.09527733272297212,0.6829327840085453,0.7434805828946365
1682104746999244,0.0852674143587393,0.6830548561837189,0.7451895933470665
1682104747015232,0.06671244373235652,0.6959945067521174,0.7824216067750056
1682104747031219,0.06329442282749653,0.7188220035095751,0.7704585336079957
1682104747047207,0.05938811322194226,0.7350576028076601,0.763256275272755
1682104747063194,0.04986648355840373,0.7384756237125201,0.7631342030975814
1682104747079181,0.04339665827420447,0.7499504081788357,0.7653315022507057
1682104747095001,0.03704890516517878,0.7559319447623407,0.7515373464560922
1682104747110988,0.01861600671396957,0.7299305714503701,0.7619134813458457
1682104747126975,0.0039673456931410556,0.7222400244144351,0.7659418631265735
1682104747142962,0.004943923094529623,0.729686427100023,0.7620355535210193
1682104747158949,0.0109254596780346,0.7293202105745022,0.7364003967345694
1682104747174935,0.009094377050431035,0.7232166018158237,0.7302967879758908
1682104747190922,0.002868696116578917,0.7167467765316244,0.7342030975814451
1682104747206909,-0.004821850919356052,0.7196765087357901,0.746166170748455
1682104747222896,-0.013488975356679589,0.7218738078889144,0.7550774395361257
1682104747238883,-0.013122758831158876,0.7095445181963838,0.7324940871290151
1682104747254870,-0.011902037079423167,0.6973373006790267,0.7060044251163502
1682104747270857,-0.010803387502861028,0.690989547570001,0.7016098268101016
1682104747286844,-0.012756542305638163,0.6813458457312889,0.7041733424887466
1682104747302831,-0.016906996261539575,0.6631570916304268,0.7283436331731137
1682104747318818,-0.015075913633936011,0.6607156481269554,0.7383535515373465
1682104747334805,-0.006775005722133187,0.6778057526512553,0.7514152742809186
1682104747350792,-0.004699778744182481,0.6864728770885788,0.751293202105745
1682104747366778,-0.009216449225604606,0.6857404440375374,0.7320057984283208
1682104747382765,-0.01861600671396957,0.6828107118333717,0.7337148088807508
1682104747398752,-0.030090791180285237,0.674753948271916,0.7154039826047152
1682104747414550,-0.021057450217440987,0.6496070801861604,0.715159838254368
1682104747430536,-0.027161058976119534,0.6458228427557797,0.733104448004883
1682104747446522,-0.045349813076981604,0.659983215075914,0.7498283360036622
1682104747462508,-0.029480430304417382,0.6758525978484782,0.7487296864271
1682104747478494,-0.013366903181506018,0.6917219806210424,0.7534905012588693
1682104747494480,-0.005432211795223907,0.7019760433356224,0.7761959258411535
1682104747510466,0.005676356145571049,0.7166247043564509,0.8162355992980848
1682104747526452,0.020447089341573133,0.719432364385443,0.8617685206378267
1682104747542438,0.04437323567559304,0.7283436331731137,0.8565194171053632
1682104747558424,0.0604867627985044,0.75385671778439,0.8396734569314104
1682104747574410,0.04888990615701516,0.7633783474479285,0.8324711985961697
1682104747590396,0.028259708552681673,0.7445792324711986,0.8732433051041424
1682104747606382,0.02911421377889667,0.7367666132600901,0.8489509422446018
1682104747622368,0.03411917296101308,0.7200427252613109,0.8290531776913097
1682104747638354,0.023498893720912406,0.6912336919203481,0.831250476844434
1682104747654340,0.0026245517662317752,0.6588845654993518,0.8195315480277712
1682104747670326,0.002990768291752488,0.6280003051804384,0.795971618219272
1682104747686312,0.005432211795223907,0.6161593041886011,0.7864499885557334
1682104747702298,-9.15541313801782E-4,0.5998016327153426,0.7758297093156328
1682104747718284,0.004821850919356052,0.5910124361028455,0.763256275272755
1682104747734100,0.004699778744182481,0.581490806439307,0.7583733882658121
1682104747750085,0.002746623941405346,0.5792935072861827,0.7654535744258792
1682104747766071,0.0071412222476539,0.5884489204242005,0.7761959258411535
1682104747782056,0.020569161516746703,0.6067597467002361,0.7815671015487906
1682104747798042,0.02264438849469741,0.6261692225528348,0.779736018921187
1682104747814027,0.01751735713740743,0.6348363469901583,0.7703364614328221
1682104747830013,0.012634470130464592,0.6364232852674148,0.7794918745708399
1682104747845998,0.00579842832074462,0.6431372549019612,0.7947508964675363
1682104747861984,0.010070954451819603,0.6570534828717483,0.8161135271229112
1682104747877969,0.02264438849469741,0.6653543907835511,0.818432898451209
1682104747893955,0.020935378042267416,0.6859845883878846,0.815869382772564
1682104747909940,0.015197985809109582,0.6854962996871903,0.820996414129854
1682104747925926,0.023743038071259548,0.6967269398031588,0.817578393224994
1682104747941911,0.02410925459678026,0.6925764858472574,0.8140383001449605
1682104747957897,0.01361104753185316,0.6872053101396203,0.8190432593270769
1682104747973882,0.012634470130464592,0.6726787212939653,0.8187991149767297
1682104747989868,0.01629663538567172,0.658274204623484,0.8189211871519033
1682104748005853,0.02032501716639956,0.6449683375295647,0.8177004654001676
1682104748021839,0.021057450217440987,0.6182345311665518,0.8080567635614555
1682104748037824,0.024475471122300974,0.5993133440146483,0.8050049591821162
1682104748053619,0.03057907988097952,0.5791714351110091,0.7990234225986113
1682104748069604,0.032532234683756656,0.5622034027618827,0.7926756694895856
1682104748085588,0.02801556420233453,0.5574425879301135,0.7898680094605934
1682104748101573,0.020691233691920274,0.5564660105287249,0.7920653086137177
1682104748117557,0.030945296406500233,0.5653772793163956,0.789990081635767
1682104748133542,0.037659266041046635,0.5624475471122299,0.7965819790951398
1682104748149526,0.024475471122300974,0.5756313420309755,0.8103761348897534
1682104748165511,0.039002059967955915,0.577218280308232,0.8035400930800334
1682104748181495,0.03595025558861664,0.5833218890669105,0.8109864957656212
1682104748197480,0.045471885252155175,0.5973601892118712,0.8144045166704812
1682104748213464,0.05389486533913157,0.5978484779125655,0.8275883115892269
1682104748229449,0.04876783398184159,0.6093232623788811,0.8391851682307161
1682104748245433,0.05169756618600729,0.6129854276340883,0.8340581368734261
1682104748261418,0.05816739147020655,0.6265354390783555,0.8360112916762032
1682104748277403,0.056946669718470844,0.6207980468451968,0.8394293125810632
1682104748293387,0.03924620431830306,0.6168917372396425,0.8437018387121382
1682104748309372,0.03033493553063238,0.6204318303196761,0.8413824673838404
1682104748325356,0.025696192874036683,0.6204318303196761,0.8343022812237733
1682104748341341,0.022034027618829555,0.6126192111085675,0.8217288471808954
1682104748357325,0.01239032578011745,0.6038300144960704,0.8164797436484319
1682104748373199,6.713969634546402E-4,0.5946746013580526,0.804516670481422
1682104748389183,-0.011779964904249596,0.5830777447165634,0.782299534599832
1682104748405167,-0.026062409399557396,0.574654764629587,0.7691157396810864
1682104748421151,-0.04132143129625376,0.5811245899137862,0.7631342030975814
1682104748437135,-0.05535973144121442,0.5828336003662162,0.7743648432135499
1682104748453119,-0.04888990615701516,0.6001678492408633,0.7978027008468755
1682104748469103,-0.04742504005493231,0.6198214694438082,0.8125734340428776
1682104748485087,-0.04730296787975874,0.6387426565957126,0.8052491035324634
1682104748501072,-0.04827954528114731,0.6525368123903261,0.7986572060730905
1682104748517056,-0.05804531929503298,0.6585183489738311,0.8073243305104141
1682104748533040,-0.06341649500267055,0.650583657587549,0.8076905470359348
1682104748549024,-0.05792324711985941,0.6439917601281762,0.7979247730220491
1682104748565008,-0.058533607995727266,0.6408178835736633,0.7875486381322956
1682104748580992,-0.0686655985351341,0.6389868009460598,0.787426565957122
1682104748596976,-0.07928587777523477,0.6323949034866869,0.7860837720302127
1682104748612960,-0.07806515602349906,0.6400854505226219,0.7896238651102463
1682104748628944,-0.07135118638895266,0.6410620279240105,0.8034180209048598
1682104748644928,-0.0604867627985044,0.6375219348439769,0.8173342488746469
1682104748660912,-0.06366063935301769,0.6195773250934611,0.8187991149767297
1682104748676896,-0.055725947966735134,0.6355687800411998,0.8296635385671776
1682104748692749,-0.07867551689936692,0.6234836346990154,0.8264896620126647
1682104748708732,-0.09515526054779899,0.6190890363927668,0.8499275196459903
1682104748724716,-0.1115129320210575,0.6229953459983211,0.8474860761425189
1682104748740699,-0.07281605249103551,0.6217746242465854,0.8458991378652625
1682104748756683,-0.09759670405127041,0.6400854505226219,0.8373540856031125
1682104748772667,-0.11761654077973605,0.6400854505226219,0.8335698481727318
1682104748788650,-0.1068741893644618,0.6433813992523083,0.8456549935149154
1682104748804634,-0.09564354924849328,0.6336156252384226,0.8563973449301896
1682104748820617,-0.09674219882505541,0.6212863355458911,0.8814221408407725
1682104748836601,-0.0829480430304419,0.6131074998092618,0.8726329442282745
1682104748852584,-0.08917372396429402,0.6149385824368654,0.8679942015716788
1682104748868568,-0.10382238498512253,0.6151827267872125,0.868238345922026
1682104748884552,-0.12347600518806745,0.6153047989623861,0.8671396963454638
1682104748900535,-0.13482871747920955,0.6214084077210646,0.852857251850156
1682104748916519,-0.1417868314641031,0.6459449149309533,0.821850919356069
1682104748932502,-0.11956969558251318,0.6126192111085675,0.8109864957656212
1682104748948486,-0.14349584191653308,0.6231174181734946,0.790844586861982
1682104748964470,-0.14911116197451735,0.6115205615320054,0.7783932249942778
1682104748980453,-0.12884718089570457,0.5985809109636069,0.7948729686427098
1682104748996437,-0.11102464332036321,0.5904020752269776,0.8107423514152741
1682104749012298,-0.09857328145265898,0.6045624475471119,0.8327153429465168
1682104749028281,-0.0955214770733197,0.6138399328603033,0.8354009308003354
1682104749044264,-0.09039444571602973,0.6131074998092618,0.836377508201724
1682104749060248,-0.09137102311741829,0.6161593041886011,0.8185549706263826
1682104749076231,-0.08990615701533544,0.6038300144960704,0.793408102540627
1682104749092214,-0.10064850843060968,0.5630579079880977,0.7796139467460135
1682104749108197,-0.11725032425421533,0.5733119707026777,0.7627679865720607
1682104749124180,-0.12140077821011674,0.5719691767757684,0.7630121309224078
1682104749140163,-0.13690394445716025,0.5822232394903484,0.7688715953307392
1682104749156146,-0.14532692454413665,0.5987029831387805,0.7728999771114671
1682104749172129,-0.13495078965438312,0.6105439841306168,0.7710688944838635
1682104749188112,-0.130434119172961,0.6201876859693289,0.7771725032425421
1682104749204095,-0.12884718089570457,0.6266575112535291,0.7819333180743113
1682104749220079,-0.1266498817425803,0.6232394903486682,0.7836423285267413
1682104749236062,-0.12176699473563746,0.615060654612039,0.7868162050812542
1682104749252045,-0.11456473640039677,0.6157930876630804,0.7953612573434041
1682104749268028,-0.11224536507209892,0.6261692225528348,0.8013427939269091
1682104749284011,-0.11139085984588393,0.6348363469901583,0.8050049591821162
1682104749299994,-0.10894941634241251,0.6388647287708862,0.8100099183642326
1682104749315977,-0.10992599374380108,0.6489967193102926,0.8091554131380176
1682104749331848,-0.10736247806515609,0.6529030289158468,0.8012207217517355
1682104749347830,-0.10736247806515609,0.646311131456474,0.7957274738689248
1682104749363813,-0.10894941634241251,0.6347142748149848,0.7945067521171891
1682104749379796,-0.11139085984588393,0.6196993972686347,0.7940184634164948
1682104749395778,-0.11725032425421533,0.6083466849774926,0.7937743190661477
1682104749411761,-0.12713817044327458,0.6055390249485004,0.7893797207598992
1682104749427744,-0.12481879911497673,0.603097581445029,0.7803463797970549
1682104749443726,-0.12176699473563746,0.6049286640726326,0.7636224917982757
1682104749459709,-0.12713817044327458,0.602243076218814,0.7520256351567864
1682104749475691,-0.13360799572747384,0.5927214465552755,0.7422598611429008
1682104749491674,-0.14618142977035165,0.5900358587014569,0.7277332722972458
1682104749507657,-0.16534676127260228,0.5952849622339205,0.711741817349508
1682104749523639,-0.1803616388189515,0.6199435416189818,0.7045395590142673
1682104749539622,-0.16168459601739515,0.6376440070191505,0.697825589379721
1682104749555605,-0.17462424658579367,0.6760967421988253,0.6551003280689711
1682104749571587,-0.14691386282139307,0.6873273823147938,0.6375219348439769
1682104749587570,-0.17108415350576012,0.7628900587472343,0.6657206073090718
1682104749603552,-0.17511253528648796,0.804516670481422,0.6561989776455333
1682104749619535,-0.17962920576791008,0.8399176012817575,0.683299000534066
1682104749635518,-0.17303730830853725,0.8745860990310517,0.6979476615548945
1682104749651397,-0.1660791943236437,0.9136491950865953,0.7111314564736402
1682104749667379,-0.1585107194628823,0.938185702296483,0.7205310139620051
1682104749683362,-0.1467917906462195,0.949294270237278,0.7293202105745022
1682104749699344,-0.13678187228198668,0.9397726405737394,0.7299305714503701
1682104749715326,-0.12433051041428245,0.909742885481041,0.7328603036545358
1682104749731308,-0.11090257114518964,0.864820325017166,0.7172350652323187
1682104749747290,-0.1085831998168918,0.8128175783932248,0.7135728999771116
1682104749763272,-0.11175707637140464,0.7643549248493171,0.7215075913633937
1682104749779255,-0.11187914854657821,0.7186999313344016,0.7290760662241551
1682104749795237,-0.10052643625543611,0.6842755779354546,0.7256580453192951
1682104749811219,-0.07684443427176335,0.6642557412069889,0.7118638895246816
1682104749827201,-0.053284504463263715,0.6530251010910204,0.6974593728542002
1682104749843183,-0.03985656519417091,0.6413061722743576,0.6856183718623639
1682104749859165,-0.03338673990997165,0.6334935530632491,0.6879377431906617
1682104749875147,-0.04046692607003877,0.6199435416189818,0.697825589379721
1682104749891130,-0.052918287937743,0.6232394903486682,0.7096665903715573
1682104749907112,-0.06268406195162912,0.6336156252384226,0.7249256122682537
1682104749923094,-0.06964217593652267,0.6612039368276497,0.7509269855802243
1682104749939076,-0.08172732127870619,0.6950179293507288,0.7571526665140764
1682104749955058,-0.08856336308842616,0.7362783245593958,0.75214770733196
1682104749970947,-0.0905165178912033,0.7739986266880292,0.7484855420767529
1682104749986929,-0.09564354924849328,0.8012207217517355,0.7460440985732815
1682104750002910,-0.09234760051880686,0.8207522697795069,0.7381094071869994
1682104750018892,-0.09039444571602973,0.8190432593270769,0.7450675211718929
1682104750034874,-0.08307011520561547,0.8083009079118026,0.7431143663691158
1682104750050855,-0.08783093003738474,0.8092774853131912,0.7259021896696423
1682104750066837,-0.09393453879606328,0.7974364843213548,0.7136949721522852
1682104750082819,-0.10382238498512253,0.7827878233005263,0.7023422598611431
1682104750098800,-0.11712825207904176,0.7567864499885557,0.6889143205920503
1682104750114782,-0.12738231479362172,0.7359121080338751,0.679026474402991
1682104750130764,-0.13531700617990383,0.7176012817578394,0.6631570916304268
1682104750146745,-0.14728007934691378,0.7053940642404823,0.654001678492409
1682104750162727,-0.15960936903944445,0.6974593728542002,0.6408178835736633
1682104750178709,-0.16961928740367727,0.6974593728542002,0.6249485008010982
1682104750194690,-0.17389181353475225,0.7047837033646145,0.6040741588464176
1682104750210672,-0.1765774013885708,0.7204089417868316,0.5785610742351412
1682104750226654,-0.16766613260090013,0.7329823758297094,0.45722133211261173
1682104750242635,-0.18756389715419264,0.7438467994201572,0.5081254291599908
1682104750258617,-0.2234531166552225,0.7613031204699778,0.5607385366597999
1682104750274599,-0.2188143739986268,0.7457999542229343,0.5894254978255891
1682104750290496,-0.20086976424811187,0.7743648432135499,0.6154268711375597
1682104750306478,-0.1736476691844051,0.7711909666590371,0.5987029831387805
1682104750322460,-0.16168459601739515,0.7587396047913328,0.5709925993743799
1682104750338441,-0.15960936903944445,0.74189364461738,0.6079804684519718
1682104750354423,-0.15875486381322945,0.7527580682078279,0.6242160677500568
1682104750370405,-0.15533684290836947,0.7674067292286564,0.6333714808880755
1682104750386386,-0.1488670176241702,0.7851071946288242,0.6231174181734946
1682104750402368,-0.14654764629587236,0.7956054016937513,0.6063935301747154
1682104750418350,-0.1576562142366673,0.7862058442053863,0.6096894789044018
1682104750434332,-0.16827649347676799,0.7875486381322956,0.5943083848325319
1682104750450313,-0.16888685435263584,0.7881589990081634,0.5838101777676048
1682104750466295,-0.17340352483405796,0.7810788128480963,0.5950408178835733
1682104750482277,-0.17181658655680154,0.7870603494316013,0.6145723659113447
1682104750498258,-0.17462424658579367,0.7892576485847256,0.6205539024948497
1682104750514240,-0.1715724422064544,0.7923094529640649,0.6218966964217589
1682104750530222,-0.16791027695124727,0.7909666590371556,0.6044403753719383
1682104750546203,-0.16644541084916442,0.7914549477378499,0.6050507362478061
1682104750562185,-0.16876478217746227,0.787426565957122,0.5947966735332262
1682104750578167,-0.17145037003128083,0.7748531319142442,0.5963836118104826
1682104750594148,-0.1765774013885708,0.7844968337529563,0.6071259632257568
1682104750610046,-0.18060578316929865,0.7914549477378499,0.6207980468451968
1682104750626027,-0.18988326848249049,0.8026855878538184,0.6311741817349512
1682104750642008,-0.19354543373769761,0.8096437018387119,0.641184100099184
1682104750657990,-0.19769588769359903,0.8062256809338519,0.6253147173266198
1682104750673971,-0.19549858854047475,0.8118410009918362,0.6138399328603033
1682104750689952,-0.19708552681773117,0.8098878461890591,0.604806591897459
1682104750705933,-0.206240939955749,0.7974364843213548,0.612497138933394
1682104750721914,-0.20318913557640972,0.796826123445487,0.6271457999542234
1682104750737896,-0.1981841763942933,0.7948729686427098,0.6249485008010982
1682104750753877,-0.19684138246738403,0.7945067521171891,0.6631570916304268
1682104750769858,-0.19464408331425975,0.7931639581902798,0.6334935530632491
1682104750785839,-0.2048981460288397,0.7937743190661477,0.6300755321583891
1682104750801820,-0.21197833218890683,0.7853513389791713,0.6444800488288704
1682104750817802,-0.21149004348821254,0.7879148546578163,0.6325169756618605
1682104750833783,-0.20807202258335256,0.7927977416647591,0.6207980468451968
1682104750849764,-0.21014724956130326,0.7913328755626763,0.6245822842755775
1682104750865745,-0.21527428091859324,0.7875486381322956,0.6189669642175932
1682104750881726,-0.22833600366216533,0.7938963912413213,0.6256809338521405
1682104750897708,-0.23358510719462888,0.7946288242923627,0.6280003051804384
1682104750913689,-0.23541618982223245,0.7964599069199663,0.6319066147859926
1682104750929596,-0.24090943770504314,0.7965819790951398,0.6355687800411998
1682104750945576,-0.24298466468299385,0.7975585564965284,0.6229953459983211
1682104750961557,-0.24591439688715955,0.8079346913862819,0.6122529945830468
1682104750977538,-0.23443961242084388,0.8239261463340197,0.6004119935912104
1682104750993518,-0.2267490653849089,0.8263675898374911,0.5879606317235062
1682104751009499,-0.2348058289463646,0.8212405584802012,0.5961394674601355
1682104751025480,-0.24139772640573742,0.8030518043793391,0.5960173952849619
1682104751041461,-0.23736934462500958,0.8029297322041655,0.5974822613870447
1682104751057441,-0.23492790112153816,0.8070801861600669,0.5779507133592734
1682104751073422,-0.20343327992675686,0.7057602807660031,0.6701152056153203
1682104751089403,-0.241519798580911,0.7737544823376821,0.6663309681849396
1682104751105383,-0.25226214999618524,0.8070801861600669,0.5332722972457464
1682104751121364,-0.2586099031052109,0.780590524147402,0.5634241245136185
1682104751137345,-0.26263828488593877,0.7771725032425421,0.5460898756389714
1682104751153326,-0.2678873884184023,0.7696040283817807,0.5524376287479971
1682104751169306,-0.2666666666666666,0.7663080796520942,0.5560997940032042
1682104751185287,-0.26849774929427017,0.7702143892576485,0.5708705271992063
1682104751201268,-0.2705729762722209,0.7783932249942778,0.5651331349660484
1682104751217249,-0.2638590066376745,0.781445029373617,0.5706263828488591
1682104751233229,-0.25677882047760736,0.7769283588921949,0.572945754177157
1682104751249145,-0.2503089951934081,0.7779049362935835,0.5694056610971234
1682104751265126,-0.24835584039063097,0.7826657511253527,0.5653772793163956
1682104751281107,-0.2556801709010452,0.7884031433585106,0.5785610742351412
1682104751297087,-0.24957656214236668,0.7924315251392384,0.592843518730449
1682104751313068,-0.23932249942778672,0.8021972991531241,0.5949187457083998
1682104751329049,-0.23443961242084388,0.8100099183642326,0.5889372091248948
1682104751345029,-0.22357518883039607,0.8115968566414891,0.6010223544670783
1682104751361010,-0.21490806439307253,0.8100099183642326,0.5819790951400012
1682104751376991,-0.20404364080262472,0.8023193713282977,0.5811245899137862
1682104751392972,-0.20990310521095612,0.7979247730220491,0.5989471274891276
1682104751408952,-0.21612878614480824,0.7892576485847256,0.6225070572976268
1682104751424933,-0.2153963530937668,0.7892576485847256,0.6217746242465854
1682104751440914,-0.201968413824674,0.789135576409552,0.6140840772106504
1682104751456894,-0.18866254673075478,0.7997558556496527,0.5951628900587469
1682104751472875,-0.18487830930037363,0.7952391851682306,0.5833218890669105
1682104751488856,-0.1885404745555812,0.7869382772564277,0.6006561379415576
1682104751504837,-0.19354543373769761,0.7742427710383764,0.6016327153429462
1682104751520817,-0.1965972381170369,0.7711909666590371,0.6085908293278397
1682104751536798,-0.19769588769359903,0.7763179980163271,0.6239719233997096
1682104751552779,-0.19842832074464045,0.789990081635767,0.6238498512245361
1682104751568695,-0.1990386816205083,0.7964599069199663,0.607370107576104
1682104751584675,-0.1995269703212026,0.7995117112993055,0.5934538796063169
1682104751600655,-0.20587472343022828,0.8037842374303805,0.6074921797512776
1682104751616635,-0.21222247653925397,0.7975585564965284,0.6071259632257568
1682104751632616,-0.20477607385366614,0.7974364843213548,0.5994354161898219
1682104751648596,-0.203677424277104,0.8037842374303805,0.5927214465552755
1682104751664576,-0.1990386816205083,0.8058594644083312,0.6034637979705497
1682104751680556,-0.20440985732814543,0.7995117112993055,0.6154268711375597
1682104751696537,-0.21307698176546896,0.7989013504234377,0.6179903868162047
1682104751712517,-0.21368734264133682,0.8004882887006941,0.6115205615320054
1682104751728497,-0.2129549095902954,0.7990234225986113,0.591134508278019
1682104751744477,-0.2205233844510568,0.8013427939269091,0.6038300144960704
1682104751760458,-0.21637293049515538,0.8020752269779505,0.6033417257953761
1682104751776438,-0.20135805294880615,0.7996337834744791,0.5930876630807962
1682104751792418,-0.20465400167849257,0.8039063096055541,0.5947966735332262
1682104751808398,-0.21185626001373326,0.7981689173723963,0.6283665217059591
1682104751824379,-0.20526436255436042,0.7932860303654534,0.6061493858243683
1682104751840359,-0.20477607385366614,0.7938963912413213,0.5777065690089263
1682104751856339,-0.21564049744411395,0.7913328755626763,0.6164034485389482
1682104751872319,-0.21527428091859324,0.784863050278477,0.6071259632257568
1682104751888183,-0.20099183642328544,0.7866941329060806,0.6004119935912104
1682104751904163,-0.20184634164950044,0.7921873807888913,0.5784390020599677
1682104751920143,-0.21612878614480824,0.7903562981612877,0.6276340886549177
1682104751936123,-0.21478599221789896,0.7962157625696191,0.6217746242465854
1682104751952102,-0.20404364080262472,0.7998779278248263,0.5841763942931255
1682104751968082,-0.202822919050889,0.7997558556496527,0.5758754863813227
1682104751984062,-0.21661707484550252,0.7898680094605934,0.6033417257953761
1682104752000042,-0.2153963530937668,0.7881589990081634,0.6033417257953761
1682104752016021,-0.2133211261158161,0.7896238651102463,0.5963836118104826
1682104752032001,-0.20941481651026184,0.8009765774013884,0.6001678492408633
1682104752047981,-0.20404364080262472,0.7997558556496527,0.6057831692988476
1682104752063961,-0.20502021820401328,0.7990234225986113,0.6019989318684669
1682104752079940,-0.20172426947432687,0.8035400930800334,0.6078583962767983
1682104752095920,-0.19745174334325188,0.8026855878538184,0.6026092927443347
1682104752111900,-0.1961089494163426,0.7969481956206605,0.5968719005111769
1682104752127880,-0.19842832074464045,0.791699092088197,0.5939421683070112
1682104752143859,-0.20123598077363258,0.7866941329060806,0.5976043335622183
1682104752159839,-0.20233463035019472,0.7847409781033035,0.6011444266422519
1682104752175819,-0.20172426947432687,0.7818112458991378,0.5984588387884333
1682104752191799,-0.19842832074464045,0.7763179980163271,0.6010223544670783
1682104752207763,-0.1973296711680783,0.7793698023956663,0.5747768368047605
1682104752223743,-0.2100251773861297,0.7732661936369878,0.5989471274891276
1682104752239723,-0.20502021820401328,0.7816891737239642,0.6011444266422519
1682104752255703,-0.1995269703212026,0.789990081635767,0.6060273136491947
1682104752271682,-0.20550850690470757,0.8034180209048598,0.5871061264972912
1682104752287662,-0.2074616617074847,0.8092774853131912,0.5985809109636069
1682104752303642,-0.21014724956130326,0.8008545052262148,0.603952086671244
1682104752319622,-0.2108796826123447,0.8068360418097198,0.604806591897459
1682104752335601,-0.21234454871442754,0.8086671244373234,0.6117647058823525
1682104752351581,-0.21368734264133682,0.8162355992980848,0.598825055313954
1682104752367561,-0.2213778896772718,0.8203860532539862,0.5980926222629126
1682104752383541,-0.2229648279545282,0.8187991149767297,0.579781795986877
1682104752399520,-0.2238193331807432,0.8163576714732583,0.5817349507896541
1682104752415500,-0.22772564278629748,0.8081788357366291,0.5886930647745476
1682104752431480,-0.23114366369115746,0.8050049591821162,0.6052948805981533
1682104752447460,-0.23212024109254603,0.8041504539559012,0.5935759517814905
1682104752463440,-0.23334096284428174,0.803662165255207,0.5825894560158691
1682104752479419,-0.239810788128481,0.8017090104524298,0.5725795376516363
1682104752495399,-0.24408331425955598,0.7948729686427098,0.5718471046005948
1682104752511379,-0.2499427786678874,0.7890135042343784,0.5827115281910427
1682104752527313,-0.25091935606927596,0.788281071183337,0.5935759517814905
1682104752543292,-0.2494544899671931,0.7915770199130234,0.5864957656214234
1682104752559271,-0.2523842221713588,0.7954833295185777,0.5752651255054548
1682104752575251,-0.2515297169451438,0.8006103608758677,0.5717250324254213
1682104752591230,-0.23749141680018315,0.8274662394140533,0.5646448462653542
1682104752607209,-0.2322423132677196,0.8352788586251618,0.5670862897688256
1682104752623189,-0.23797970550087744,0.8148928053711755,0.5745326924544134
1682104752639168,-0.23736934462500958,0.8009765774013884,0.5742885481040663
1682104752655147,-0.2322423132677196,0.7971923399710077,0.5816128786144805
1682104752671126,-0.23150988021667818,0.794262607766842,0.5824673838406955
1682104752687106,-0.23004501411459533,0.7987792782482641,0.5858854047455555
1682104752703085,-0.22955672541390104,0.7989013504234377,0.5752651255054548
1682104752719064,-0.22735942626077676,0.7982909895475698,0.5818570229648277
1682104752735044,-0.23163195239185175,0.7956054016937513,0.5788052185854884
1682104752751023,-0.23736934462500958,0.7876707103074692,0.5752651255054548
1682104752767002,-0.23273060196841389,0.7813229571984435,0.5783169298847941
1682104752782981,-0.22784771496147105,0.7875486381322956,0.5706263828488591
1682104752798961,-0.22784771496147105,0.7975585564965284,0.5875944151979855
1682104752814940,-0.22919050888838033,0.8056153200579841,0.5891813534752419
1682104752830919,-0.23529411764705888,0.8058594644083312,0.592843518730449
1682104752846862,-0.24200808728160528,0.8058594644083312,0.5841763942931255
1682104752862842,-0.243228809033341,0.8021972991531241,0.5825894560158691
1682104752878821,-0.24200808728160528,0.7987792782482641,0.5630579079880977
1682104752894800,-0.24542610818646526,0.7915770199130234,0.5718471046005948
1682104752910780,-0.2477454795147631,0.7903562981612877,0.5739223315785456
1682104752926759,-0.24933241779201953,0.7945067521171891,0.5736781872281984
1682104752942738,-0.2544594491493095,0.7938963912413213,0.5701380941481649
1682104752958717,-0.25519188220035094,0.7890135042343784,0.5707484550240327
1682104752974697,-0.2590981918059052,0.7819333180743113,0.5736781872281984
1682104752990676,-0.25799954222934307,0.7791256580453192,0.5619592584115356
1682104753006655,-0.2523842221713588,0.7781490806439306,0.5657434958419163
1682104753022635,-0.2477454795147631,0.7868162050812542,0.5698939497978177
1682104753038614,-0.23797970550087744,0.7930418860151063,0.5863736934462498
1682104753054593,-0.23297474631876103,0.7895017929350727,0.5692835889219499
1682104753070572,-0.23065537499046318,0.7836423285267413,0.5687953002212556
1682104753086552,-0.23871213855191886,0.7757076371404592,0.5831998168917369
1682104753102531,-0.243228809033341,0.7796139467460135,0.578072785534447
1682104753118510,-0.2503089951934081,0.7884031433585106,0.5925993743801019
1682104753134490,-0.2518959334706645,0.803662165255207,0.5878385595483326
1682104753150469,-0.24798962386511025,0.813305867093919,0.5958953231097883
1682104753166381,-0.24896620126649882,0.8179446097505148,0.5939421683070112
1682104753182361,-0.2494544899671931,0.821850919356069,0.5831998168917369
1682104753198340,-0.24579232471198598,0.8178225375753412,0.5924773022049283
1682104753214319,-0.25091935606927596,0.8113527122911419,0.5882047760738534
1682104753230299,-0.24798962386511025,0.8093995574883648,0.5886930647745476
1682104753246278,-0.239810788128481,0.8063477531090255,0.5935759517814905
1682104753262257,-0.23627069504844744,0.8051270313572898,0.579781795986877
1682104753278236,-0.2410315098802167,0.7958495460440984,0.5993133440146483
1682104753294216,-0.24139772640573742,0.7936522468909741,0.5999237048905162
1682104753310195,-0.23297474631876103,0.7921873807888913,0.5889372091248948
1682104753326174,-0.2258945601586939,0.7901121538109406,0.5828336003662162
1682104753342154,-0.22369726100556964,0.7873044937819484,0.5940642404821848
1682104753358133,-0.22162203402761893,0.784863050278477,0.6115205615320054
1682104753374112,-0.21649500267032895,0.7826657511253527,0.5944304570077055
1682104753390092,-0.22272068360418107,0.7813229571984435,0.5907682917524983
1682104753406071,-0.2313878080415046,0.7783932249942778,0.6041962310215911
1682104753422050,-0.22394140535591678,0.7804684519722285,0.601388570992599
1682104753438029,-0.21564049744411395,0.7836423285267413,0.5895475700007626
1682104753454009,-0.21258869306477468,0.7913328755626763,0.6046845197222854
1682104753469988,-0.21271076523994825,0.7943846799420156,0.6194552529182875
1682104753485931,-0.21185626001373326,0.7978027008468755,0.6292210269321741
1682104753501910,-0.20819409475852613,0.7991454947737848,0.602243076218814
1682104753517889,-0.20587472343022828,0.793408102540627,0.6027313649195083
1682104753533867,-0.2108796826123447,0.7858396276798656,0.5935759517814905
1682104753549846,-0.21258869306477468,0.7855954833295185,0.5977264057373919
1682104753565825,-0.21258869306477468,0.784008545052262,0.5873502708476384
1682104753581804,-0.2129549095902954,0.792553597314412,0.6045624475471119
1682104753597783,-0.20856031128404684,0.7980468451972227,0.6173800259403368
1682104753613762,-0.20135805294880615,0.7978027008468755,0.6154268711375597
1682104753629740,-0.201968413824674,0.7947508964675363,0.6028534370946819
1682104753645719,-0.20758373388265827,0.8089112687876705,0.6146944380865182
1682104753661698,-0.2179598687724118,0.8106202792401005,0.6165255207141218
1682104753677677,-0.22565041580834677,0.8001220721751734,0.5991912718394747
1682104753693656,-0.22320897230487535,0.7940184634164948,0.5847867551689934
1682104753709634,-0.2208896009765775,0.7910887312123291,0.5799038681620505
1682104753725613,-0.22455176623178463,0.7860837720302127,0.6019989318684669
1682104753741592,-0.22699320973525605,0.7887693598840313,0.5930876630807962
1682104753757571,-0.22748149843595034,0.7921873807888913,0.5985809109636069
1682104753773550,-0.2310215915159839,0.7918211642633706,0.6076142519264511
1682104753789528,-0.23089951934081032,0.7879148546578163,0.6140840772106504
1682104753805481,-0.22162203402761893,0.7884031433585106,0.5982146944380862
1682104753821459,-0.22101167315175108,0.787426565957122,0.5956511787594412
1682104753837438,-0.21734950789654395,0.7866941329060806,0.6087129015030133
1682104753853417,-0.2103913939116504,0.7880369268329899,0.6045624475471119
1682104753869396,-0.20465400167849257,0.7892576485847256,0.6112764171816583
1682104753885375,-0.20904859998474112,0.7877927824826427,0.6162813763637747
1682104753901353,-0.21075761043717112,0.7858396276798656,0.6153047989623861
1682104753917332,-0.2112458991378654,0.7843747615777827,0.6054169527733269
1682104753933311,-0.22149996185244536,0.7757076371404592,0.6076142519264511
1682104753949290,-0.23077744716563675,0.7613031204699778,0.613351644159609
1682104753965269,-0.2348058289463646,0.7669184405279621,0.6306858930342569
1682104753981248,-0.21771572442206466,0.8111085679407948,0.6062714579995419
1682104753997226,-0.20416571297779829,0.8314946211947811,0.6109102006561375
1682104754013205,-0.20257877470054186,0.857984283207446,0.6179903868162047
1682104754029184,-0.21368734264133682,0.8405279621576254,0.6336156252384226
1682104754045163,-0.22613870450904106,0.8163576714732583,0.6111543450064847
1682104754061142,-0.23358510719462888,0.7958495460440984,0.6004119935912104
1682104754077120,-0.23651483939879459,0.7919432364385441,0.5769741359578848
1682104754093099,-0.2418860151064317,0.7672846570534828,0.5834439612420841
1682104754109078,-0.2582436865796902,0.761547264820325,0.5748989089799341
1682104754125030,-0.27411306935225443,0.764965285725185,0.6250705729762727
1682104754141009,-0.2737468528267337,0.7699702449073014,0.6068818188754097
1682104754156988,-0.26446936751354233,0.7686274509803921,0.5764858472571905
1682104754172967,-0.26227206836041805,0.7628900587472343,0.5593957427328906
1682104754188945,-0.2630045014114595,0.7565423056382086,0.5681849393453877
1682104754204924,-0.25641260395208665,0.76411078049897,0.5807583733882655
1682104754220903,-0.26056305790798806,0.7703364614328221,0.5935759517814905
1682104754236882,-0.2573891813534752,0.7816891737239642,0.6297093156328684
1682104754252861,-0.25006485084306096,0.7876707103074692,0.5991912718394747
1682104754268839,-0.2448157473105974,0.7841306172274356,0.5825894560158691
1682104754284818,-0.25091935606927596,0.7794918745708399,0.5879606317235062
1682104754300797,-0.25763332570382236,0.7810788128480963,0.6021210040436404
1682104754316776,-0.2578774700541695,0.7766842145418478,0.6272678721293969
1682104754332755,-0.2523842221713588,0.8009765774013884,0.6269016556038762
1682104754348734,-0.24628061341268026,0.8072022583352405,0.6010223544670783
1682104754364712,-0.241519798580911,0.8108644235904476,0.6115205615320054
1682104754380691,-0.23675898374914173,0.8024414435034712,0.6041962310215911
1682104754396670,-0.23749141680018315,0.7866941329060806,0.6145723659113447
1682104754412649,-0.240665293354696,0.7720454718852521,0.5932097352559698
1682104754428628,-0.2507972838941024,0.7556878004119936,0.5757534142061491
1682104754444549,-0.25970855268177306,0.7468986037994965,0.5905241474021512
1682104754460528,-0.25885404745555807,0.7488517586022736,0.5969939726863505
1682104754476506,-0.25775539787899593,0.7567864499885557,0.5891813534752419
1682104754492484,-0.2638590066376745,0.7763179980163271,0.5346150911726557
1682104754508463,-0.25055313954375524,0.7732661936369878,0.5891813534752419
1682104754524441,-0.2528725108720531,0.7725337605859464,0.5980926222629126
1682104754540419,-0.25091935606927596,0.7737544823376821,0.6002899214160369
1682104754556398,-0.2558022430762188,0.7748531319142442,0.6037079423208969
1682104754572376,-0.25726710917830165,0.7746089875638971,0.6227512016479739
1682104754588354,-0.25299458304722666,0.7815671015487906,0.6243381399252304
1682104754604333,-0.2461585412375067,0.7890135042343784,0.6137178606851297
1682104754620311,-0.24090943770504314,0.8017090104524298,0.6128633554589147
1682104754636289,-0.2401770046540017,0.794262607766842,0.6210421911955439
1682104754652268,-0.23993286030365457,0.7849851224536506,0.6062714579995419
1682104754668246,-0.24811169604028382,0.7733882658121614,0.603952086671244
1682104754684224,-0.2554360265506981,0.7672846570534828,0.5994354161898219
1682104754700203,-0.25397116044861523,0.7650873579003585,0.5956511787594412
1682104754716181,-0.25091935606927596,0.7707026779583428,0.6044403753719383
1682104754732159,-0.24090943770504314,0.7775387197680628,0.6117647058823525
1682104754748138,-0.23932249942778672,0.7783932249942778,0.6303196765087362
1682104754764099,-0.2427405203326467,0.7815671015487906,0.6226291294728004
1682104754780077,-0.24725719081406883,0.7829098954756999,0.6083466849774926
1682104754796055,-0.2499427786678874,0.7807125963225756,0.6034637979705497
1682104754812034,-0.24835584039063097,0.7750972762645914,0.601388570992599
1682104754828012,-0.24432745860990313,0.7728999771114671,0.6001678492408633
1682104754843990,-0.24701304646372169,0.7699702449073014,0.6068818188754097
1682104754859969,-0.2482337682154574,0.7711909666590371,0.6055390249485004
1682104754875947,-0.25299458304722666,0.7727779049362935,0.6112764171816583
1682104754891925,-0.2523842221713588,0.7765621423666742,0.6207980468451968
1682104754907904,-0.24603646906233312,0.7741206988632028,0.6050507362478061
1682104754923882,-0.2477454795147631,0.7747310597390706,0.6083466849774926
1682104754939860,-0.2499427786678874,0.7720454718852521,0.6144502937361711
1682104754955839,-0.2444495307850767,0.7728999771114671,0.612497138933394
1682104754971817,-0.24005493247882814,0.7736324101625085,0.5895475700007626
1682104754987795,-0.24225223163195242,0.7732661936369878,0.606515602349889
1682104755003774,-0.24213015945677885,0.7656977187762264,0.6092011902037076
1682104755019752,-0.2427405203326467,0.7645990691996642,0.6121309224078733
1682104755035730,-0.24725719081406883,0.7713130388342107,0.6220187685969325
1682104755051709,-0.2418860151064317,0.7768062867170213,0.6166475928892954
1682104755067687,-0.2394445716029603,0.7764400701915006,0.6046845197222854
1682104755083648,-0.24701304646372169,0.7725337605859464,0.6196993972686347
1682104755099627,-0.24457160296025027,0.7730220492866406,0.6193331807431139
1682104755115605,-0.2435950255588617,0.7747310597390706,0.6001678492408633
1682104755131583,-0.24383916990920884,0.7769283588921949,0.6033417257953761
1682104755147562,-0.24493781948577098,0.7768062867170213,0.608224612802319
1682104755163540,-0.24469367513542384,0.7748531319142442,0.613351644159609
1682104755179518,-0.24176394293125814,0.7726558327611199,0.6118867780575261
1682104755195497,-0.24225223163195242,0.7750972762645914,0.6126192111085675
1682104755211475,-0.24383916990920884,0.7768062867170213,0.6098115510795754
1682104755227453,-0.24628061341268026,0.7783932249942778,0.6010223544670783
1682104755243432,-0.2516517891203174,0.7763179980163271,0.6017547875181197
1682104755259410,-0.25604638742656594,0.7733882658121614,0.6145723659113447
1682104755275388,-0.2583657587548638,0.7727779049362935,0.6171358815899897
1682104755291367,-0.2553139543755245,0.7782711528191042,0.6277561608300912
1682104755307345,-0.2510414282444495,0.7847409781033035,0.6055390249485004
1682104755323323,-0.24628061341268026,0.786572060730907,0.6029755092698554
1682104755339302,-0.25018692301823453,0.7918211642633706,0.6096894789044018
1682104755355280,-0.24921034561684596,0.7870603494316013,0.6149385824368654
1682104755371258,-0.25018692301823453,0.7854734111543449,0.6123750667582204
1682104755387237,-0.2554360265506981,0.783154039826047,0.6110322728313111
1682104755403198,-0.25555809872587165,0.7818112458991378,0.6218966964217589
1682104755419176,-0.2518959334706645,0.7801022354467078,0.6121309224078733
1682104755435155,-0.24420538643472955,0.7860837720302127,0.6189669642175932
1682104755451133,-0.25506981002517737,0.7697261005569542,0.5961394674601355
1682104755467111,-0.2548256656748302,0.7716792553597314,0.6128633554589147
1682104755483090,-0.2587319752803845,0.7693598840314335,0.6063935301747154
1682104755499068,-0.26105134660868234,0.7739986266880292,0.6035858701457233
1682104755515046,-0.2621499961852445,0.7776607919432363,0.6051728084229797
1682104755531025,-0.2562905317769131,0.7824216067750056,0.6138399328603033
1682104755547003,-0.2482337682154574,0.7864499885557334,0.6194552529182875
1682104755562981,-0.2439612420843824,0.7838864728770885,0.614206149385824
1682104755578960,-0.24408331425955598,0.782299534599832,0.6138399328603033
1682104755594938,-0.25091935606927596,0.7841306172274356,0.6173800259403368
1682104755610916,-0.25091935606927596,0.7824216067750056,0.6101777676050961
1682104755626895,-0.2494544899671931,0.7862058442053863,0.6061493858243683
1682104755642873,-0.2453040360112917,0.7846189059281299,0.6011444266422519
1682104755658851,-0.24579232471198598,0.7826657511253527,0.6110322728313111
1682104755674830,-0.24261844815747313,0.7760738536659799,0.6104219119554433
1682104755690808,-0.24261844815747313,0.7709468223086899,0.5978484779125655
1682104755706786,-0.24493781948577098,0.7659418631265735,0.6137178606851297
1682104755722747,-0.24249637598229956,0.7628900587472343,0.6162813763637747
1682104755738726,-0.23968871595330743,0.7676508735790035,0.6027313649195083
1682104755754704,-0.238956282902266,0.7735103379873349,0.6052948805981533
1682104755770682,-0.2499427786678874,0.782299534599832,0.5250934615091172
1682104755786661,-0.24213015945677885,0.7680170901045242,0.5998016327153426
1682104755802639,-0.23468375677119102,0.7736324101625085,0.6297093156328684
1682104755818617,-0.22858014801251247,0.7829098954756999,0.6078583962767983
1682104755834596,-0.2318760967421989,0.7875486381322956,0.6096894789044018
1682104755850574,-0.23749141680018315,0.7888914320592049,0.5987029831387805
1682104755866552,-0.24518196383611812,0.7783932249942778,0.6157930876630804
1682104755882531,-0.24371709773403527,0.7731441214618142,0.6128633554589147
1682104755898509,-0.24042114900434886,0.7667963683527885,0.610788128480964
1682104755914487,-0.23761348897535672,0.7661860074769207,0.606515602349889
1682104755930466,-0.23736934462500958,0.7726558327611199,0.594552529182879
1682104755946444,-0.24347295338368813,0.7732661936369878,0.6095674067292283
1682104755962422,-0.24298466468299385,0.7753414206149385,0.6083466849774926
1682104755978401,-0.24164187075608456,0.7749752040894178,0.6221408407721061
1682104755994379,-0.23712520027466244,0.7743648432135499,0.6138399328603033
1682104756010357,-0.23321889066910817,0.7824216067750056,0.6210421911955439
1682104756026336,-0.23077744716563675,0.7761959258411535,0.610788128480964
1682104756042297,-0.23761348897535672,0.7711909666590371,0.6076142519264511
1682104756058275,-0.238956282902266,0.7715571831845578,0.6155489433127332
1682104756074254,-0.23358510719462888,0.7743648432135499,0.6050507362478061
1682104756090232,-0.23553826199740602,0.7791256580453192,0.6063935301747154
1682104756106210,-0.23456168459601745,0.781445029373617,0.6173800259403368
1682104756122189,-0.23553826199740602,0.7821774624246585,0.6233615625238418
1682104756138167,-0.23639276722362101,0.7761959258411535,0.6201876859693289
1682104756154145,-0.23956664377813386,0.7733882658121614,0.6144502937361711
1682104756170124,-0.24493781948577098,0.7704585336079957,0.6210421911955439
1682104756186102,-0.242374303807126,0.7674067292286564,0.6045624475471119
1682104756202080,-0.24249637598229956,0.766674296177615,0.5952849622339205
1682104756218059,-0.24457160296025027,0.7664301518272678,0.5941863126573583
1682104756234037,-0.2520180056458381,0.7638666361486228,0.6144502937361711
1682104756250015,-0.25262836652170595,0.7656977187762264,0.6187228198672461
1682104756265994,-0.24725719081406883,0.7699702449073014,0.6121309224078733
1682104756281972,-0.24786755168993668,0.7709468223086899,0.6088349736781868
1682104756297950,-0.25140764476997024,0.7720454718852521,0.6109102006561375
1682104756313929,-0.25311665522240023,0.7747310597390706,0.6218966964217589
1682104756329907,-0.2465247577630274,0.7791256580453192,0.6093232623788811
1682104756345885,-0.24310673685816742,0.7765621423666742,0.6043183031967647
1682104756361816,-0.24591439688715955,0.7731441214618142,0.6050507362478061
1682104756377794,-0.25299458304722666,0.7688715953307392,0.6172579537651632
1682104756393772,-0.25397116044861523,0.764965285725185,0.6070038910505833
1682104756409750,-0.2510414282444495,0.76240177004654,0.606515602349889
1682104756425727,-0.24640268558785383,0.7696040283817807,0.602243076218814
1682104756441705,-0.24542610818646526,0.7742427710383764,0.6078583962767983
1682104756457683,-0.24847791256580454,0.7721675440604256,0.6253147173266198
1682104756473661,-0.25262836652170595,0.7704585336079957,0.6281223773556119
1682104756489639,-0.24969863431754025,0.7728999771114671,0.6165255207141218
1682104756505617,-0.2427405203326467,0.7748531319142442,0.597116044861524
1682104756521595,-0.24164187075608456,0.7765621423666742,0.5982146944380862
1682104756537572,-0.238101777676051,0.7830319676508735,0.6093232623788811
1682104756553550,-0.240665293354696,0.7829098954756999,0.6190890363927668
1682104756569528,-0.24286259250782027,0.7833981841763942,0.6194552529182875
1682104756585506,-0.24933241779201953,0.7803463797970549,0.6139620050354768
1682104756601484,-0.25214007782101167,0.7758297093156328,0.6194552529182875
1682104756617462,-0.24298466468299385,0.7742427710383764,0.6049286640726326
1682104756633440,-0.23212024109254603,0.7827878233005263,0.5967498283360033
1682104756649418,-0.2310215915159839,0.7774166475928892,0.6154268711375597
1682104756665395,-0.2258945601586939,0.7777828641184099,0.6182345311665518
1682104756681366,-0.23248645761806674,0.7746089875638971,0.6135957885099561
1682104756697343,-0.24432745860990313,0.7763179980163271,0.6187228198672461
1682104756713321,-0.24786755168993668,0.7771725032425421,0.6001678492408633
1682104756729299,-0.24713511863889526,0.7810788128480963,0.5855191882200348
1682104756745277,-0.2418860151064317,0.784863050278477,0.5850308995193405
1682104756761255,-0.2448157473105974,0.794262607766842,0.5905241474021512
1682104756777233,-0.24969863431754025,0.799389639124132,0.6157930876630804
1682104756793211,-0.25726710917830165,0.801098649576562,0.6332494087129019
1682104756809188,-0.25506981002517737,0.8068360418097198,0.6218966964217589
1682104756825166,-0.2565346761272602,0.818432898451209,0.6043183031967647
1682104756841144,-0.2623941405355916,0.8194094758525976,0.6128633554589147
1682104756857122,-0.2650797283894102,0.8206301976043333,0.6186007476920725
1682104756873100,-0.26153963530937663,0.8162355992980848,0.6355687800411998
1682104756889078,-0.25433737697413594,0.8136720836194398,0.6498512245365076
1682104756905056,-0.25128557259479667,0.8048828870069427,0.6511940184634168
1682104756921033,-0.2456702525368124,0.8024414435034712,0.6221408407721061
1682104756937011,-0.2465247577630274,0.8042725261310748,0.6077363241016247
1682104756952989,-0.2641031509880216,0.7902342259861141,0.6055390249485004
1682104756968967,-0.2780193789578087,0.7749752040894178,0.6270237277790498
1682104756984945,-0.275089646753643,0.7674067292286564,0.6057831692988476
1682104757000915,-0.27411306935225443,0.7663080796520942,0.6016327153429462
1682104757016893,-0.27106126497291516,0.7655756466010528,0.6261692225528348
1682104757032871,-0.2633707179369802,0.7664301518272678,0.6212863355458911
1682104757048849,-0.25799954222934307,0.7774166475928892,0.6337376974135962
1682104757064827,-0.2515297169451438,0.7665522240024414,0.6425268940260933
1682104757080804,-0.2518959334706645,0.7610589761196307,0.6345922026398112
1682104757096782,-0.2444495307850767,0.7493400473029679,0.6410620279240105
1682104757112760,-0.23663691157396816,0.7476310368505379,0.657419699397269
1682104757128738,-0.23089951934081032,0.7462882429236286,0.6742656595712218
1682104757144716,-0.22833600366216533,0.7385976958876936,0.6991683833066302
1682104757160694,-0.22357518883039607,0.7550774395361257,0.6763408865491725
1682104757176672,-0.23004501411459533,0.7600823987182421,0.654001678492409
1682104757192649,-0.24628061341268026,0.7635004196231021,0.6240939955748832
1682104757208627,-0.24591439688715955,0.7493400473029679,0.6483863584344247
1682104757224605,-0.24310673685816742,0.7360341802090486,0.6996566720073245
1682104757240583,-0.22613870450904106,0.756420233463035,0.7096665903715573
1682104757256561,-0.2150301365682461,0.7664301518272678,0.7309071488517587
1682104757272539,-0.1850003814755472,0.76752880140383,0.7527580682078279
1682104757288517,-0.18780804150453978,0.7489738307774472,0.780590524147402
1682104757304494,-0.19891660944533474,0.7028305485618374,0.7617914091706721
1682104757320434,-0.20672922865644328,0.6979476615548945,0.7233386739909973
1682104757336412,-0.21319905394064254,0.6349584191653319,0.728831921873808
1682104757352390,-0.22491798275730535,0.6154268711375597,0.7250476844434273
1682104757368368,-0.23907835507743957,0.5985809109636069,0.7172350652323187
1682104757384346,-0.23614862287327387,0.5893034256504155,0.7003891050583659
1682104757400323,-0.2401770046540017,0.5893034256504155,0.6846417944609753
1682104757416301,-0.25091935606927596,0.6095674067292283,0.6736552986953539
1682104757432279,-0.2594644083314259,0.6261692225528348,0.6786602578774703
1682104757448257,-0.2504310673685817,0.6852521553368431,0.6585183489738311
1682104757464235,-0.2133211261158161,0.7112535286488137,0.6843976501106281
1682104757480213,-0.2103913939116504,0.7103990234225988,0.7121080338750287
1682104757496191,-0.22735942626077676,0.6914778362706953,0.7107652399481195
1682104757512169,-0.22626077668421463,0.603097581445029,0.75727473868925
1682104757528146,-0.237247272449836,0.5565880827038985,0.7514152742809186
1682104757544124,-0.22601663233386748,0.5908903639276719,0.7229724574654766
1682104757560102,-0.21637293049515538,0.6231174181734946,0.696971084153506
1682104757576080,-0.22394140535591678,0.6181124589913782,0.6859845883878846
1682104757592058,-0.22369726100556964,0.6260471503776612,0.6831769283588924
1682104757608036,-0.22198825055313964,0.6327611200122076,0.6719462882429239
1682104757624014,-0.22162203402761893,0.6106660563057904,0.690989547570001
1682104757639984,-0.2276035706111239,0.6259250782024877,0.6863508049134053
1682104757655962,-0.23285267414358746,0.657419699397269,0.6947737850003817
1682104757671939,-0.23419546807049674,0.6891584649423974,0.7040512703135731
1682104757687917,-0.22198825055313964,0.7249256122682537,0.7058823529411766
1682104757703895,-0.2138094148165104,0.7370107576104372,0.7057602807660031
1682104757719873,-0.21136797131303897,0.7410391393911651,0.7111314564736402
1682104757735851,-0.2112458991378654,0.7377431906614786,0.7191882200350959
1682104757751829,-0.20135805294880615,0.7445792324711986,0.7094224460212102
1682104757767807,-0.1782864118410008,0.7659418631265735,0.7263904783703365
1682104757783784,-0.15411612115663376,0.7714351110093842,0.696971084153506
1682104757799762,-0.13092240787365528,0.7559319447623407,0.7234607461661708
1682104757815740,-0.12823682001983672,0.7278553444724194,0.7698481727321278
1682104757831718,-0.11175707637140464,0.7619134813458457,0.8264896620126647
1682104757847696,-0.05218585488670158,0.8035400930800334,0.7871824216067749
1682104757863674,-0.04730296787975874,0.8012207217517355,0.7892576485847256
1682104757879652,-0.07306019684138265,0.7481193255512322,0.7694819562066071
1682104757895630,-0.10748455024032966,0.7274891279468987,0.7880369268329899
1682104757911607,-0.12140077821011674,0.7394522011139086,0.731395437552453
1682104757927585,-0.11834897383077747,0.7486076142519265,0.7099107347219045
1682104757943563,-0.12249942778667888,0.7697261005569542,0.6955062180514231
1682104757959533,-0.1182269016556039,0.75556572823682,0.7184557869840544
1682104757975511,-0.1290913252460517,0.7255359731441215,0.6950179293507288
1682104757991489,-0.13812466620889596,0.7042954146639202,0.7035629816128788
1682104758007467,-0.13482871747920955,0.7036850537880524,0.7047837033646145
1682104758023445,-0.11859311818112461,0.6963607232776381,0.6814679179064624
1682104758039423,-0.10272373540856039,0.6787823300526439,0.6962386511024645
1682104758055400,-0.10150301365682468,0.6710917830167089,0.6760967421988253
1682104758071378,-0.11212329289692535,0.674753948271916,0.6851300831616696
1682104758087356,-0.12555123216601816,0.6780498970016025,0.6880598153658353
1682104758103334,-0.12127870603494317,0.6856183718623639,0.681589990081636
1682104758119312,-0.10699626153963537,0.709178301670863,0.6575417715724425
1682104758135290,-0.10260166323338682,0.710032806897078,0.6419165331502255
1682104758151268,-0.10504310673685824,0.7193102922102694,0.646311131456474
1682104758167245,-0.11139085984588393,0.7379873350118258,0.6779278248264289
1682104758183223,-0.11163500419623107,0.758129243915465,0.6699931334401468
1682104758199201,-0.1123674372472725,0.756420233463035,0.6596169985503932
1682104758215179,-0.12225528343633174,0.7506828412298772,0.6443579766536969
1682104758231157,-0.13434042877851526,0.7489738307774472,0.6830548561837189
1682104758247135,-0.14349584191653308,0.7389639124132144,0.7013656824597545
1682104758263113,-0.15411612115663376,0.7417715724422065,0.6970931563286795
1682104758279083,-0.16083009079118016,0.7328603036545358,0.6822003509575039
1682104758295061,-0.1719386587319751,0.7414053559166858,0.6288548104066534
1682104758311039,-0.16888685435263584,0.6989242389562831,0.6518043793392847
1682104758327016,-0.16754406042572656,0.7342030975814451,0.6019989318684669
1682104758342994,-0.1765774013885708,0.7096665903715573,0.6546120393682768
1682104758358972,-0.19830624856946688,0.7165026321812773,0.6355687800411998
1682104758374950,-0.20257877470054186,0.7376211184863051,0.6493629358358133
1682104758390928,-0.19049362935835834,0.778027008468757,0.6461890592813004
1682104758406906,-0.16925307087815655,0.7947508964675363,0.6649881742580304
1682104758422884,-0.15008773937590592,0.7886472877088577,0.716014343480583
1682104758438861,-0.13678187228198668,0.7718013275349049,0.74531166552224
1682104758454839,-0.13739223315785454,0.7716792553597314,0.7272449835965515
1682104758470817,-0.1464255741206988,0.7637445639734493,0.6988021667811095
1682104758486795,-0.1585107194628823,0.753002212558175,0.6822003509575039
1682104758502773,-0.16815442130159441,0.7356679636835279,0.7017318989852752
1682104758518751,-0.1727931639581901,0.7280994888227665,0.7171129930571452
1682104758534729,-0.16961928740367727,0.7233386739909973,0.7077134355687802
1682104758550706,-0.17059586480506583,0.726268406195163,0.7129625391012437
1682104758566684,-0.17560082398718224,0.7243152513923858,0.7252918287937744
1682104758582662,-0.1749904631113144,0.7326161593041887,0.7042954146639202
1682104758598602,-0.17059586480506583,0.7307850766765851,0.6962386511024645
1682104758614579,-0.17181658655680154,0.7241931792172123,0.6996566720073245
1682104758630557,-0.16083009079118016,0.7156481269550623,0.716014343480583
1682104758646534,-0.1555809872587166,0.7128404669260702,0.7161364156557566
1682104758662511,-0.1572899977111466,0.718577859159228,0.7114976729991609
1682104758678489,-0.16559090562294942,0.7204089417868316,0.716014343480583
1682104758694466,-0.167421988250553,0.7251697566186008,0.7147936217288473
1682104758710444,-0.16412603952086657,0.7294422827496758,0.7317616540779737
1682104758726421,-0.16180666819256873,0.7407949950408179,0.7406729228656443
1682104758742398,-0.15667963683527875,0.7528801403830014,0.7680170901045242
1682104758758376,-0.14911116197451735,0.7620355535210193,0.761547264820325
1682104758774353,-0.14703593499656664,0.7818112458991378,0.7411612115663386
1682104758790331,-0.163149462119478,0.8507820248722053,0.6886701762417031
1682104758806308,-0.13104448004882885,0.8386968795300218,0.7251697566186008
1682104758822285,-0.131288624399176,0.833813992523079,0.7674067292286564
1682104758838263,-0.1333638513771267,0.8214847028305483,0.7614251926451514
1682104758854240,-0.131288624399176,0.7687495231555657,0.7639887083237964
1682104758870217,-0.11981383993286032,0.7360341802090486,0.7317616540779737
1682104758886195,-0.11956969558251318,0.6991683833066302,0.7190661478599223
1682104758902172,-0.1438620584420538,0.659128709849699,0.7136949721522852
1682104758918151,-0.1598535133897916,0.6320286869611662,0.7238269626916916
1682104758934129,-0.16388189517051943,0.6384985122453655,0.723704890516518
1682104758950106,-0.1707179369802394,0.6382543678950183,0.7239490348668651
1682104758966084,-0.17584496833752938,0.6304417486839098,0.6953841458762495
1682104758982061,-0.17010757610437155,0.6542458228427561,0.6920881971465631
1682104758998038,-0.17425803006027296,0.6577859159227897,0.6859845883878846
1682104759014016,-0.18182650492103436,0.6450904097047383,0.6903791866941331
1682104759029993,-0.17230487525749583,0.6452124818799119,0.7011215381094074
1682104759045971,-0.16839856565194156,0.6555886167696654,0.6990463111314567
1682104759061948,-0.1808499275196458,0.656565194171054,0.7075913633936066
1682104759077925,-0.18280308232242293,0.6714579995422296,0.7186999313344016
1682104759093903,-0.17096208133058655,0.6915999084458688,0.7252918287937744
1682104759109880,-0.16595712214847014,0.6931868467231252,0.7293202105745022
1682104759125857,-0.1660791943236437,0.7019760433356224,0.7317616540779737
1682104759141835,-0.166567483024338,0.708323796444648,0.7169909208819716
1682104759157812,-0.17376974135957868,0.7073472190432595,0.7238269626916916
1682104759173790,-0.17389181353475225,0.7112535286488137,0.7348134584573129
1682104759189767,-0.17267109178301654,0.7152819104295416,0.7404287785152972
1682104759205744,-0.1619287403677423,0.7093003738460366,0.7484855420767529
1682104759221722,-0.1505760280766002,0.7114976729991609,0.7497062638284886
1682104759237701,-0.1488670176241702,0.7116197451743345,0.7497062638284886
1682104759253678,-0.14862287327382306,0.7067368581673916,0.7493400473029679
1682104759269656,-0.14410620279240094,0.7013656824597545,0.7511711299305714
1682104759285633,-0.14459449149309522,0.6886701762417031,0.7549553673609521
1682104759301611,-0.14996566720073234,0.6801251239795532,0.7566643778133821
1682104759317588,-0.14703593499656664,0.6846417944609753,0.7565423056382086
1682104759333565,-0.1467917906462195,0.6796368352788589,0.7472648203250172
1682104759349543,-0.1447165636682688,0.6759746700236517,0.7420157167925536
1682104759365520,-0.14618142977035165,0.6712138551918825,0.7451895933470665
1682104759381497,-0.1497215228503852,0.6638895246814682,0.7488517586022736
1682104759397475,-0.15240711070420376,0.6699931334401468,0.7416495002670329
1682104759413452,-0.15533684290836947,0.6791485465781646,0.7407949950408179
1682104759429430,-0.16339360646982515,0.6800030518043796,0.7431143663691158
1682104759445407,-0.16119630731670087,0.6873273823147938,0.744457160296025
1682104759461384,-0.16156252384222158,0.6912336919203481,0.7372549019607844
1682104759477362,-0.1690089265278094,0.6856183718623639,0.7338368810559244
1682104759493339,-0.17230487525749583,0.686717021438926,0.7350576028076601
1682104759509317,-0.17022964827954512,0.7058823529411766,0.7422598611429008
1682104759525294,-0.17181658655680154,0.7061264972915238,0.7433585107194629
1682104759541271,-0.17389181353475225,0.7068589303425652,0.7414053559166858
1682104759557251,-0.18097199969481936,0.7025864042114902,0.7362783245593958
1682104759573228,-0.17901884489204223,0.6975814450293738,0.7294422827496758
1682104759589205,-0.1820706492713815,0.6950179293507288,0.7162584878309302
1682104759605183,-0.1867093919279772,0.7030746929121845,0.7213855191882201
1682104759621160,-0.1841458762493322,0.7094224460212102,0.7257801174944687
1682104759637138,-0.17462424658579367,0.7009994659342338,0.7266346227206837
1682104759653115,-0.17303730830853725,0.6914778362706953,0.7256580453192951
1682104759669092,-0.18255893797207579,0.6842755779354546,0.7246814679179066
1682104759685070,-0.1906157015335319,0.6786602578774703,0.7248035400930801
1682104759701047,-0.18780804150453978,0.6778057526512553,0.7180895704585337
1682104759717024,-0.18890669108110192,0.6768291752498667,0.7130846112764173
1682104759733002,-0.1919584954604412,0.6786602578774703,0.7207751583123523
1682104759748979,-0.19415579461356547,0.6856183718623639,0.7232166018158237
1682104759764957,-0.1862211032272829,0.6937972075989931,0.7217517357137408
1682104759780934,-0.1841458762493322,0.6942854962996874,0.7169909208819716
1682104759796911,-0.1890287632562755,0.6885481040665296,0.715159838254368
1682104759812889,-0.1902494850080112,0.6900129701686124,0.7197985809109637
1682104759828866,-0.1850003814755472,0.6900129701686124,0.721995880064088
1682104759844843,-0.18475623712520006,0.6963607232776381,0.7207751583123523
1682104759860821,-0.19012741283283763,0.7020981155107959,0.7261463340199894
1682104759876770,-0.1943999389639126,0.6979476615548945,0.7277332722972458
1682104759892747,-0.19073777370870548,0.6891584649423974,0.7218738078889144
1682104759908724,-0.18634317540245648,0.6797589074540324,0.7216296635385673
1682104759924702,-0.1914702067597469,0.6752422369726103,0.7255359731441215
1682104759940679,-0.1965972381170369,0.678171969176776,0.7298084992751965
1682104759956657,-0.1914702067597469,0.685008010986496,0.7312733653772794
1682104759972634,-0.1876859693293662,0.6891584649423974,0.7310292210269322
1682104759988611,-0.19073777370870548,0.6861066605630581,0.7364003967345694
1682104760004589,-0.19464408331425975,0.6817120622568096,0.7423819333180743
1682104760020566,-0.19549858854047475,0.6763408865491725,0.744457160296025
1682104760036543,-0.1965972381170369,0.6787823300526439,0.7407949950408179
1682104760052521,-0.19586480506599546,0.6848859388113224,0.731395437552453
1682104760068498,-0.19098191805905262,0.685862516212711,0.7229724574654766
1682104760084476,-0.19586480506599546,0.6831769283588924,0.7282215609979401
1682104760100453,-0.19708552681773117,0.6746318760967425,0.742748149843595
1682104760116430,-0.19378957808804476,0.6640115968566418,0.7578850995651178
1682104760132408,-0.18402380407415864,0.6564431219958804,0.7685053788052185
1682104760148385,-0.1703517204547187,0.6636453803311211,0.7677729457541771
1682104760164363,-0.16632333867399085,0.6717021438925768,0.7570305943389029
1682104760180340,-0.1677882047760737,0.6878156710154881,0.7473868925001907
1682104760196319,-0.16729991607537942,0.6947737850003817,0.7656977187762264
1682104760212297,-0.13055619134813456,0.6677958342870225,0.8109864957656212
1682104760228274,-0.1001602197299154,0.6836652170595867,0.8479743648432132
1682104760244251,-0.06366063935301769,0.6894026092927446,0.8620126649881739
1682104760260229,-0.004455634393835339,0.7847409781033035,0.9784695201037614
1682104760276206,0.047913328755626594,0.8091554131380176,1.0581826504921032
1682104760292184,0.0651255054551001,0.8430914778362704,1.063675898374914
1682104760308161,0.026916914625772392,0.8772716868848711,1.073075455863279
1682104760324138,-0.022400244144350268,0.8361333638513768,1.0890669108110167
1682104760340116,-0.049134050507362304,0.7763179980163271,1.1001754787518117
1682104760356093,-0.03961242084382377,0.7008773937590602,1.0805218585488667
1682104760372070,-0.04132143129625376,0.6038300144960704,1.0305943389028762
1682104760388048,-0.029724574654764524,0.5103227283131151,0.9616235599298086
1682104760404025,-0.03717097734035235,0.4312199588006411,0.8852063782711532
1682104760420003,-0.08563363088426046,0.3950865949492641,0.8390630960555425
1682104760435980,-0.05157549401083372,0.3460135805294877,0.7895017929350727
1682104760451957,-0.04229800869764233,0.3389333943694206,0.7551995117112993
1682104760467935,-0.026184481574730967,0.32281986724650924,0.7200427252613109
1682104760483912,-0.007507438773174613,0.3262378881513692,0.7060044251163502
1682104760499889,0.008606088349736751,0.3638361181048291,0.7149156939040209
1682104760515869,0.04119935912108019,0.426703288319219,0.7627679865720607
1682104760531846,0.08416876478217716,0.4986037994964523,0.8452887769893946
1682104760547824,0.09088273441672357,0.5657434958419163,0.8938735027084768
1682104760563801,0.07489127946898577,0.6339818417639433,0.901197833218891
1682104760579778,0.07110704203860507,0.6724345769436182,0.8914320592050053
1682104760595756,0.09845120927748496,0.6913557640955217,0.913160906385901
1682104760611733,0.09735255970092282,0.6612039368276497,0.9361104753185323
1682104760627710,0.31061264972915215,0.48285648889906163,0.9367208361944002
1682104760643688,0.11822690165560346,0.6081025406271454,0.9184100099183645
1682104760659665,0.12115663385976916,0.5767299916075377,0.8729991607537952
1682104760675643,0.14422827496757495,0.46393530174715814,0.8008545052262148
1682104760691620,0.09588769359883997,0.45429159990844603,0.7809567406729228
1682104760707597,0.10345616845960137,0.40595101853971194,0.7428702220187686
1682104760723575,0.11529716945143775,0.3817807278553449,0.706614785992218
1682104760739552,0.14959945067521208,0.3833676661326013,0.7056382085908295
1682104760755530,0.16571297779812344,0.41132219424734906,0.7357900358587015
1682104760771507,0.14789044022278208,0.3909361409933627,0.8035400930800334
1682104760787484,0.15851071946288275,0.41058976119630763,0.8147707331960019
1682104760803462,0.17999542229343124,0.44708934157320535,0.7819333180743113
1682104760819439,0.19134813458457334,0.5038529030289158,0.7608148317692836
1682104760835388,0.1377584496833757,0.42694743266956614,0.721141374837873
1682104760851365,0.1343404287785157,0.4039978637369348,0.7396963454642558
1682104760867343,0.1381246662088964,0.39118028534370985,0.778027008468757
1682104760883320,0.13324177920195357,0.395696955825132,0.835523002975509
1682104760899297,0.13934538796063212,0.424139772640574,0.8660410467689017
1682104760915275,0.1515526054779892,0.4455024032959489,0.8861829556725418
1682104760931252,0.15436026550698134,0.456855115587091,0.9228046082246131
1682104760947229,0.13629358358129284,0.4569771877622646,0.9478294041351951
1682104760963207,0.14093232623788854,0.5137407492179751,0.9346456092164495
1682104760979184,0.1633936064698256,0.5418173495078964,0.9506370641641873
1682104760995162,0.15777828641184133,0.5595178149080642,0.9964141298542764
1682104761011139,0.13665980010681356,0.5650110627908749,1.0056916151674677
1682104761027116,0.12664988174258074,0.5159380483710994,1.0045929655909056
1682104761043094,0.06842145418478651,0.5039749752040894,0.9970244907301442
1682104761059071,0.04864576180666802,0.4926222629129473,0.9805447470817121
1682104761075049,0.0499885557335773,0.49372091248950944,0.9677271686884872
1682104761091026,0.12689402609292788,0.6607156481269554,0.8839856565194175
1682104761107003,0.12628366521706003,0.6917219806210424,0.7947508964675363
1682104761122981,0.07428091859311792,0.6210421911955439,0.8079346913862819
1682104761138958,0.057068741893644415,0.6148165102616918,0.7750972762645914
1682104761154907,0.04754711223010588,0.6052948805981533,0.7539787899595636
1682104761170884,-0.007995727473868897,0.6669413290608075,0.717723353933013
1682104761186862,0.010437170977340315,0.7842526894026092,0.5001907377737087
1682104761202839,0.1155413138017849,0.9237811856260016,0.3478446631570913
1682104761218816,0.12481879911497629,1.1200732433051037,0.2771648737315937
1682104761234794,0.06976424811169579,0.9831082627603571,0.4624704356450753
1682104761250771,-6.103608758678547E-5,0.9427023727779051,0.6054169527733269
1682104761266749,-3.0518043793392735E-4,0.9248798352025638,0.6516823071641111
1682104761282726,0.0327763790341038,0.9276874952315559,0.6325169756618605
1682104761298703,0.03216601815823594,0.8982681010147253,0.6659647516594189
1682104761314681,0.020447089341573133,0.8963149462119482,0.6806134126802474
1682104761330658,0.03204394598306237,0.9068131532768753,0.693553063248646
1682104761346635,0.03961242084382377,0.8853284504463268,0.7005111772335395
1682104761362613,0.03314259555962451,0.8367437247272447,0.7068589303425652
1682104761378590,0.01995880064087885,0.801098649576562,0.7001449607080188
1682104761394568,0.0214236667429617,0.7852292668039977,0.6453345540550854
1682104761410545,0.012756542305638163,0.7869382772564277,0.5694056610971234
1682104761426522,0.01495384145876244,0.7691157396810864,0.5204547188525215
1682104761442500,-0.014465552758068156,0.74189364461738,0.5138628213931486
1682104761458477,-0.029602502479590953,0.714305333028153,0.5343709468223086
1682104761474456,-0.032532234683756656,0.6917219806210424,0.5467002365148392
1682104761490434,-0.028747997253375956,0.691844052796216,0.5556115053025099
1682104761506411,-0.02789349202716096,0.719432364385443,0.5651331349660484
1682104761522389,-0.036194399938963784,0.7608148317692836,0.559273670557717
1682104761538366,-0.026184481574730967,0.7809567406729228,0.5698939497978177
1682104761554343,-0.027649347676813818,0.7901121538109406,0.5868619821469441
1682104761570321,-0.046692607003890885,0.7827878233005263,0.6242160677500568
1682104761586298,-0.04437323567559304,0.7727779049362935,0.6601052872510875
1682104761602275,-0.03546196688792236,0.7739986266880292,0.6701152056153203
1682104761618253,-0.029724574654764524,0.7898680094605934,0.6635233081559475
1682104761634230,-0.02288853284504455,0.8009765774013884,0.6509498741130697
1682104761650208,-0.03460746166170736,0.8037842374303805,0.642038605325399
1682104761666185,-0.03546196688792236,0.793408102540627,0.6426489662012669
1682104761682162,-0.03155565728236809,0.7963378347447927,0.6569314106965747
1682104761698140,-0.0327763790341038,0.8096437018387119,0.6680399786373696
1682104761714117,-0.03973449301899734,0.8255130846112761,0.6770733196002139
1682104761730095,-0.04229800869764233,0.8412603952086668,0.670481422140841
1682104761746072,-0.04205386434729519,0.8421149004348818,0.6586404211490047
1682104761762049,-0.04693675135423803,0.832959487296864,0.6431372549019612
1682104761778027,-0.058533607995727266,0.8135500114442662,0.6314183260852984
1682104761794006,-0.06475928892957983,0.7909666590371556,0.6277561608300912
1682104761809983,-0.06475928892957983,0.7919432364385441,0.6250705729762727
1682104761825961,-0.06427100022888554,0.8067139696345462,0.6311741817349512
1682104761841938,-0.05926604104676869,0.8145265888456548,0.6380102235446712
1682104761857916,-0.061097123674372256,0.815014877546349,0.644602121004044
1682104761873893,-0.0631723506523234,0.8107423514152741,0.6448462653543912
1682104761889870,-0.059754329747462975,0.8047608148317691,0.6347142748149848
1682104761905848,-0.059632257572289404,0.7940184634164948,0.6258030060273141
1682104761921825,-0.06756694895857196,0.7893797207598992,0.614206149385824
1682104761937802,-0.07061875333791123,0.8074464026855876,0.6001678492408633
1682104761953780,-0.07611200122072193,0.815869382772564,0.5897917143511098
1682104761969757,-0.11993591210803389,0.8538338292515446,0.5857633325703819
1682104761985735,-0.09515526054779899,0.8264896620126647,0.5899137865262833
1682104762001712,-0.094300755321584,0.8092774853131912,0.608224612802319
1682104762017689,-0.09918364232852683,0.801953154802777,0.6312962539101248
1682104762033667,-0.08856336308842616,0.8187991149767297,0.6297093156328684
1682104762049644,-0.08465705348287189,0.8354009308003354,0.6236057068741889
1682104762065621,-0.07806515602349906,0.8454108491645682,0.6261692225528348
1682104762081599,-0.06744487678339839,0.8383306630045011,0.6273899443045705
1682104762097576,-0.062439917601281536,0.8267338063630119,0.6308079652094305
1682104762113556,-0.05389486533913157,0.8153810940718698,0.6378881513694976
1682104762129533,-0.04473945220111375,0.8037842374303805,0.6315403982604719
1682104762145510,-0.042786297398336615,0.8004882887006941,0.6195773250934611
1682104762161488,-0.04217593652246876,0.7971923399710077,0.5990691996643012
1682104762177465,-0.04827954528114731,0.7932860303654534,0.5860074769207291
1682104762193442,-0.04132143129625376,0.7820553902494849,0.5869840543221176
1682104762209420,-0.04315251392385733,0.7655756466010528,0.5855191882200348
1682104762225397,-0.043030441748683756,0.7571526665140764,0.5901579308766305
1682104762241375,-0.041565575646600905,0.7603265430685893,0.5943083848325319
1682104762257352,-0.03729304951552592,0.7635004196231021,0.5968719005111769
1682104762273329,-0.03436331731136022,0.7677729457541771,0.6018768596932933
1682104762289307,-0.03436331731136022,0.7799801632715342,0.6034637979705497
1682104762305284,-0.032532234683756656,0.7932860303654534,0.5946746013580526
1682104762321262,-0.02935835812924381,0.7998779278248263,0.5849088273441669
1682104762337239,-0.037659266041046635,0.7978027008468755,0.5890592813000683
1682104762353216,-0.04986648355840373,0.8023193713282977,0.596261539635309
1682104762369194,-0.0604867627985044,0.8173342488746469,0.6088349736781868
1682104762385171,-0.06292820630197626,0.8310063324940868,0.6270237277790498
1682104762401148,-0.05230792706187515,0.8349126420996411,0.6347142748149848
1682104762417126,-0.042908369573510186,0.8394293125810632,0.6345922026398112
1682104762433075,-0.044251163500419466,0.849439230945296,0.6248264286259246
1682104762449052,-0.044007019150072324,0.8347905699244675,0.6173800259403368
1682104762465029,-0.04437323567559304,0.8018310826276034,0.6094453345540547
1682104762481007,-0.05120927748531301,0.7859616998550392,0.596261539635309
1682104762496984,-0.044007019150072324,0.7886472877088577,0.582345311665522
1682104762512961,-0.04315251392385733,0.7918211642633706,0.5861295490959026
1682104762528939,-0.035217822537575216,0.799389639124132,0.5963836118104826
1682104762544916,-0.028381780727855244,0.7954833295185777,0.607370107576104
1682104762560894,-0.028137636377508102,0.7932860303654534,0.6168917372396425
1682104762576871,-0.03338673990997165,0.7924315251392384,0.6240939955748832
1682104762592848,-0.03839169909208806,0.7997558556496527,0.6303196765087362
1682104762608826,-0.040222781719691625,0.8043945983062484,0.6375219348439769
1682104762624803,-0.04107728694590662,0.8032959487296862,0.639475089646754
1682104762640781,-0.044251163500419466,0.815869382772564,0.6266575112535291
1682104762656758,-0.049134050507362304,0.8238040741588462,0.6154268711375597
1682104762672735,-0.06634622720683625,0.8012207217517355,0.6076142519264511
1682104762688713,-0.07989623865110262,0.7852292668039977,0.6041962310215911
1682104762704690,-0.0820935378042269,0.7870603494316013,0.5922331578545812
1682104762720667,-0.07513542381933336,0.7936522468909741,0.5900358587014569
1682104762736645,-0.06378271152819126,0.7876707103074692,0.6046845197222854
1682104762752624,-0.06610208285648911,0.7989013504234377,0.6072480354009304
1682104762768602,-0.07135118638895266,0.8109864957656212,0.6054169527733269
1682104762784579,-0.06793316548409267,0.8172121766994733,0.6071259632257568
1682104762800556,-0.07122911421377909,0.8172121766994733,0.6004119935912104
1682104762816534,-0.07208361943999408,0.8136720836194398,0.5977264057373919
1682104762832511,-0.08087281605249119,0.8109864957656212,0.6089570458533604
1682104762848488,-0.08807507438773188,0.8177004654001676,0.6218966964217589
1682104762864466,-0.0753795681696805,0.8291752498664833,0.6267795834287027
1682104762880443,-0.06683451590753053,0.8371099412527654,0.6267795834287027
1682104762896421,-0.06427100022888554,0.8477302204928661,0.6215304798962382
1682104762912398,-0.0657358663309684,0.828686961165789,0.6305638208590834
1682104762928375,-0.09503318837262542,0.7979247730220491,0.6126192111085675
1682104762944353,-0.0800183108262762,0.7912108033875027,0.6102998397802697
1682104762960330,-0.07598992904554835,0.788281071183337,0.598825055313954
1682104762976307,-0.06610208285648911,0.7904783703364613,0.5987029831387805
1682104762992285,-0.07208361943999408,0.8034180209048598,0.6121309224078733
1682104763008262,-0.055848020141908705,0.8097657740138855,0.6148165102616918
1682104763024240,-0.05523765926604085,0.8058594644083312,0.6160372320134275
1682104763040217,-0.05426108186465228,0.7815671015487906,0.6321507591363398
1682104763056194,-0.03533989471274879,0.7633783474479285,0.6129854276340883
1682104763072174,-0.011413748378728883,0.7655756466010528,0.5813687342641334
1682104763088151,0.01239032578011745,0.7670405127031357,0.5724574654764627
1682104763104128,0.01995880064087885,0.7396963454642558,0.5978484779125655
1682104763120106,0.011535820553902454,0.7047837033646145,0.6193331807431139
1682104763136083,0.007507438773174613,0.7055161364156559,0.6186007476920725
1682104763152061,-0.008728160524910322,0.7334706645304037,0.606515602349889
1682104763168038,-0.034851606012054503,0.7604486152437628,0.6211642633707175
1682104763184015,-0.049378194857709445,0.7648432135500114,0.6413061722743576
1682104763199993,-0.054383154039825854,0.7638666361486228,0.6660868238345925
1682104763215970,-0.045471885252155175,0.7726558327611199,0.689280537117571
1682104763231948,-0.04119935912108019,0.793408102540627,0.7009994659342338
1682104763247925,-0.033875028610665936,0.8318608377203018,0.7110093842984666
1682104763263902,-0.027283131151293105,0.8828870069428554,0.7133287556267645
1682104763279880,-0.033752956435492365,0.9110856794079503,0.729686427100023
1682104763295857,-0.04498359655146089,0.904615854123751,0.7403067063401236
1682104763311834,-0.046570534828717314,0.8777599755855654,0.7360341802090486
1682104763327812,-0.062439917601281536,0.8749523155565724,0.7570305943389029
1682104763343789,-0.06170748455024011,0.8791027695124747,0.7621576256961928
1682104763359767,-0.0640268558785384,0.874219882505531,0.7520256351567864
1682104763375744,-0.06720073243305125,0.8700694285496295,0.7265125505455101
1682104763391723,-0.062317845426107965,0.8740978103303574,0.6936751354238195
1682104763407701,-0.059754329747462975,0.8623788815136946,0.6736552986953539
1682104763423678,-0.06463721675440626,0.8130617227435719,0.6347142748149848
1682104763439655,-0.07318226901655622,0.790844586861982,0.6277561608300912
1682104763455633,-0.07733272297245763,0.7790035858701456,0.6001678492408633
1682104763471610,-0.06671244373235696,0.7654535744258792,0.568673228046082
1682104763487588,-0.05230792706187515,0.7519035629816129,0.5474326695658807
1682104763503565,-0.030945296406500233,0.7838864728770885,0.5346150911726557
1682104763519542,-0.01373311970702673,0.7183337148088809,0.5563439383535513
1682104763535520,0.007629510948348184,0.7179674982833602,0.5680628671702141
1682104763551497,0.03997863736934448,0.732249942778668,0.5940642404821848
1682104763567474,0.06939803158617508,0.7442130159456779,0.6187228198672461
1682104763583452,0.09527733272297212,0.76069275959411,0.6392309452964069
1682104763599429,0.11444266422522276,0.7661860074769207,0.6409399557488369
1682104763615407,0.1293354695963993,0.764965285725185,0.6458228427557797
1682104763631384,0.11810482948042988,0.7517814908064393,0.6355687800411998
1682104763647361,0.11895933470664488,0.7393301289387351,0.6349584191653319
1682104763663339,0.11749446860456203,0.7343251697566187,0.6448462653543912
1682104763679316,0.1062638284885935,0.7396963454642558,0.6529030289158468
1682104763695294,0.10150301365682424,0.7346913862821394,0.6543678950179297
1682104763711242,0.10150301365682424,0.7486076142519265,0.6558327611200125
1682104763727220,0.11285572594796633,0.7628900587472343,0.6560769054703597
1682104763743197,0.11981383993285988,0.7824216067750056,0.6682841229877168
1682104763759174,0.13165484092469715,0.7932860303654534,0.6702372777904939
1682104763775152,0.14142061493858282,0.794262607766842,0.6663309681849396
1682104763791129,0.14886701762417065,0.7868162050812542,0.6682841229877168
1682104763807107,0.1486228732738235,0.7721675440604256,0.6797589074540324
1682104763823084,0.14679179064621994,0.7639887083237964,0.694407568474861
1682104763839061,0.13507286182955713,0.7591058213168536,0.7027084763866638
1682104763855039,0.1205462729839013,0.7631342030975814,0.6970931563286795
1682104763871016,0.1193255512321656,0.7644769970244907,0.6968490119783324
1682104763886994,0.11810482948042988,0.7597161821927214,0.6870832379644467
1682104763902971,0.10577553978789922,0.7526359960326543,0.6699931334401468
1682104763918948,0.0928358892195007,0.7476310368505379,0.655710688944839
1682104763934926,0.0823376821545736,0.7438467994201572,0.6530251010910204
1682104763950903,0.07879758907454004,0.7477531090257115,0.651438162813764
1682104763966880,0.07660028992141577,0.751293202105745,0.6527809567406733
1682104763982858,0.06732280460822437,0.7558098725871671,0.6749980926222632
1682104763998835,0.06121919584954583,0.76411078049897,0.6874494544899674
1682104764014813,0.058533607995727266,0.7703364614328221,0.685008010986496
1682104764030792,0.05548180361638799,0.7725337605859464,0.6664530403601132
1682104764046769,0.05120927748531301,0.7687495231555657,0.648020141908904
1682104764062747,0.04437323567559304,0.7655756466010528,0.6413061722743576
1682104764078724,0.03399710078583951,0.7670405127031357,0.6466773479819947
1682104764094701,0.02935835812924381,0.7687495231555657,0.6493629358358133
1682104764110679,0.018249790188448856,0.7761959258411535,0.6485084306095983
1682104764126656,0.008606088349736751,0.7841306172274356,0.6500953688868547
1682104764142634,-0.0017700465400167786,0.7896238651102463,0.6519264515144583
1682104764158611,-0.007995727473868897,0.7956054016937513,0.6601052872510875
1682104764174588,-0.0109254596780346,0.796826123445487,0.6575417715724425
1682104764190566,-0.016662851911192433,0.8024414435034712,0.6500953688868547
1682104764206543,-0.029480430304417382,0.7998779278248263,0.6424048218509197
1682104764222520,-0.034851606012054503,0.8034180209048598,0.6425268940260933
1682104764238498,-0.03607232776379021,0.8112306401159683,0.6502174410620283
1682104764254475,-0.0357061112382695,0.803662165255207,0.643747615777829
1682104764270453,-0.03179980163271523,0.7945067521171891,0.6314183260852984
1682104764286430,-0.03326466773479808,0.7892576485847256,0.6187228198672461
1682104764302407,-0.03265430685893023,0.7843747615777827,0.6072480354009304
1682104764318385,-0.029968719005111666,0.778881513694972,0.608224612802319
1682104764334362,-0.02777141985198739,0.7820553902494849,0.6179903868162047
1682104764350341,-0.025696192874036683,0.7915770199130234,0.6245822842755775
1682104764366319,-0.03741512169069949,0.791699092088197,0.6419165331502255
1682104764382296,-0.03595025558861664,0.7836423285267413,0.6458228427557797
1682104764398274,-0.024841687647821686,0.7707026779583428,0.6322728313115134
1682104764414251,-0.023132677195391693,0.76240177004654,0.6066376745250626
1682104764430228,-0.018493934538795997,0.7560540169375143,0.5904020752269776
1682104764446206,-0.018493934538795997,0.7537346456092164,0.5995574883649955
1682104764462183,-0.01861600671396957,0.761547264820325,0.6259250782024877
1682104764478160,-0.010681315327687457,0.7777828641184099,0.6542458228427561
1682104764494138,-0.0036011291676203427,0.7765621423666742,0.6707255664911882
1682104764510115,-0.013977264057373873,0.7926756694895856,0.6856183718623639
1682104764526093,-0.017639429312581,0.7929198138399327,0.6897688258182653
1682104764542070,-0.028625925078202386,0.790844586861982,0.6931868467231252
1682104764558047,-0.03839169909208806,0.7940184634164948,0.687571526665141
1682104764574025,-0.05426108186465228,0.7914549477378499,0.677317463950561
1682104764590002,-0.06927595941100195,0.7853513389791713,0.6585183489738311
1682104764605980,-0.08636606393530188,0.778881513694972,0.642893110551614
1682104764621957,-0.10077058060578326,0.7759517814908063,0.6261692225528348
1682104764637934,-0.09600976577401399,0.7716792553597314,0.6100556954299226
1682104764653912,-0.0879530022125583,0.7638666361486228,0.6134737163347825
1682104764669891,-0.07672236209658978,0.7653315022507057,0.6231174181734946
1682104764685868,-0.06732280460822482,0.778027008468757,0.6389868009460598
1682104764701846,-0.05889982452124798,0.7897459372854199,0.6560769054703597
1682104764717823,-0.05023270008392444,0.8001220721751734,0.6666971847104604
1682104764733801,-0.044007019150072324,0.8108644235904476,0.6736552986953539
1682104764749778,-0.048157473105973736,0.8081788357366291,0.6787823300526439
1682104764765755,-0.058411535820553695,0.8034180209048598,0.6874494544899674
1682104764781733,-0.0657358663309684,0.8039063096055541,0.6913557640955217
1682104764797710,-0.07013046463721695,0.8080567635614555,0.6908674753948274
1682104764813687,-0.07989623865110262,0.8170901045242998,0.6912336919203481
1682104764829665,-0.09112687876707115,0.8212405584802012,0.6787823300526439
1682104764845642,-0.09674219882505541,0.8067139696345462,0.6635233081559475
1682104764861620,-0.09271381704432757,0.7853513389791713,0.652292668039979
1682104764877597,-0.09649805447470827,0.7645990691996642,0.6436255436026554
1682104764893574,-0.09698634317540256,0.758129243915465,0.6442359044785233
1682104764909552,-0.09356832227054257,0.7571526665140764,0.644602121004044
1682104764925529,-0.09027237354085615,0.7602044708934157,0.652292668039979
1682104764941506,-0.07989623865110262,0.7663080796520942,0.6596169985503932
1682104764957484,-0.07708857862211049,0.7680170901045242,0.6712138551918825
1682104764973461,-0.07232776379034123,0.7722896162355992,0.6769512474250403
1682104764989380,-0.06268406195162912,0.7790035858701456,0.6765850308995196
1682104765005356,-0.05926604104676869,0.7802243076218813,0.6698710612649732
1682104765021333,-0.05499351491569371,0.7812008850232699,0.6714579995422296
1682104765037310,-0.0613412680247194,0.7714351110093842,0.6671854734111546
1682104765053287,-0.07464713511863907,0.7631342030975814,0.6657206073090718
1682104765069264,-0.06720073243305125,0.7654535744258792,0.6671854734111546
1682104765085241,-0.07098496986343195,0.7680170901045242,0.6642557412069889
1682104765101218,-0.07525749599450693,0.7738765545128556,0.6654764629587246
1682104765117195,-0.0762340733958955,0.7735103379873349,0.6696269169146261
1682104765133172,-0.07196154726482051,0.7707026779583428,0.6717021438925768
1682104765149149,-0.07464713511863907,0.7714351110093842,0.6709697108415353
1682104765165125,-0.07953002212558191,0.7724116884107728,0.6674296177615018
1682104765181102,-0.08441290913252475,0.7719233997100785,0.6658426794842454
1682104765197079,-0.08392462043183047,0.7698481727321278,0.6635233081559475
1682104765213056,-0.08160524910353262,0.7700923170824749,0.6614480811779968
1682104765229033,-0.07782101167315192,0.7676508735790035,0.6587624933241782
1682104765245010,-0.07769893949797835,0.7645990691996642,0.6561989776455333
1682104765260987,-0.08038452735179691,0.7670405127031357,0.6559548332951861
1682104765276964,-0.092591744869154,0.7724116884107728,0.6621805142290382
1682104765292941,-0.09893949797817969,0.7802243076218813,0.6671854734111546
1682104765308929,-0.094300755321584,0.783154039826047,0.6687724116884111
1682104765324906,-0.08734264133669045,0.7794918745708399,0.6588845654993518
1682104765340883,-0.07818722819867263,0.7742427710383764,0.653147173266194
1682104765356860,-0.08441290913252475,0.7626459143968871,0.6530251010910204
1682104765372837,-0.08624399176012831,0.7600823987182421,0.654001678492409
1682104765388814,-0.0812390325780119,0.7638666361486228,0.6526588845654997
1682104765404791,-0.08978408484016187,0.7697261005569542,0.6504615854123754
1682104765420767,-0.08722056916151688,0.7714351110093842,0.6492408636606397
1682104765436744,-0.08075074387731762,0.7655756466010528,0.6442359044785233
1682104765452721,-0.07757686732280478,0.7694819562066071,0.6461890592813004
1682104765468698,-0.07513542381933336,0.7807125963225756,0.651438162813764
1682104765484675,-0.07586785687037478,0.7997558556496527,0.6652323186083775
1682104765500652,-0.07428091859311836,0.7893797207598992,0.7006332494087131
1682104765516629,-0.057068741893644415,0.7760738536659799,0.6655985351338982
1682104765532606,-0.05889982452124798,0.7833981841763942,0.680735484855421
1682104765548583,-0.05169756618600729,0.7665522240024414,0.6797589074540324
1682104765564560,-0.059754329747462975,0.764965285725185,0.680735484855421
1682104765580536,-0.07769893949797835,0.9016861219195853,0.6160372320134275
1682104765596513,-0.028625925078202386,0.8703135728999767,0.6448462653543912
1682104765612490,-0.02679484245059882,0.7898680094605934,0.6724345769436182
1682104765628479,-0.054627298390172996,0.836377508201724,0.709178301670863
1682104765644456,-0.03985656519417091,0.7316395819028001,0.7511711299305714
1682104765660432,-0.049500267032883016,0.7608148317692836,0.754711223010605
1682104765676409,-0.07086289768825837,0.7880369268329899,0.7057602807660031
1682104765692386,-0.062317845426107965,0.8880140383001454,0.7249256122682537
1682104765708363,-0.08465705348287189,0.7422598611429008,0.783154039826047
1682104765724340,-0.132143129625391,0.838086518654154,0.8246585793850612
1682104765740317,0.03070115205615309,0.8361333638513768,0.7045395590142673
1682104765756294,0.08941786831464071,0.821850919356069,0.6316624704356455
1682104765772271,-0.019226367589837423,0.9119401846341653,0.6601052872510875
1682104765788248,-0.0879530022125583,0.7674067292286564,0.726268406195163
1682104765804225,-0.11432059205004963,0.9513694972152287,0.6754863813229575
1682104765820201,0.013122758831158876,0.7536125734340429,0.7040512703135731
1682104765836178,-0.1030899519340811,0.7655756466010528,0.6686503395132375
1682104765852155,-0.11224536507209892,0.9180437933928438,0.598825055313954
1682104765868132,-0.060852979324025114,0.8371099412527654,0.673899443045701
1682104765884109,0.004455634393835339,0.8216067750057219,0.6378881513694976
1682104765900086,0.0060425726710917615,0.839795529106584,0.6381322957198448
1682104765916063,0.005065995269703194,0.827832455939574,0.6138399328603033
1682104765932040,-0.0022583352407110624,0.8216067750057219,0.7195544365606166
1682104765948028,0.003112840466926059,0.7440909437705043,0.7516594186312657
1682104765964005,0.006408789196612474,0.8451667048142211,0.8250247959105819
1682104765979982,0.1155413138017849,0.7111314564736402,0.727977416647593
1682104765995959,0.10101472495612995,0.7342030975814451,0.7541008621347371
1682104766011936,0.10431067368581637,0.6467994201571683,0.6825665674830246
1682104766027913,0.12018005645838059,0.9256122682536052,0.53510337987335
1682104766043890,0.4131532768749526,0.7633783474479285,0.5667200732433049
1682104766059867,0.13482871747921,0.7384756237125201,0.5318074311436636
1682104766075843,0.060852979324025114,0.6759746700236517,0.6509498741130697
1682104766091820,0.08087281605249075,0.5680628671702141,0.7576409552147707
1682104766107797,0.14373998626688067,0.6712138551918825,0.7954833295185777
1682104766123774,0.21734950789654395,0.6111543450064847,0.7954833295185777
1682104766139751,0.26520180056458376,0.5615930418860149,0.7654535744258792
1682104766155728,0.3246509498741128,0.39044785229266843,0.8102540627145798
1682104766171705,0.3574883649958034,0.43915465018692323,0.74702067597467
1682104766187682,0.40509651331349694,0.4191348134584576,0.7609369039444571
1682104766203659,0.3419851987487599,0.4052185854886705,0.728831921873808
1682104766219636,0.34296177615014845,0.386297398336767,0.747875181200885
1682104766235612,0.3457694361791406,0.32355230029755067,0.673899443045701
1682104766251589,0.3355153734645606,0.30731670099946573,0.6784161135271232
1682104766267547,0.34296177615014845,0.3612726024261841,0.6472877088578626
1682104766283524,0.3537041275654227,0.3795834287022206,0.6171358815899897
1682104766299501,0.3428397039749749,0.4120546272983905,0.6177462424658575
1682104766315478,0.32440680552376566,0.42267490653849116,0.6118867780575261
1682104766331455,0.32916762035553493,0.41254291599908477,0.6294651712825212
1682104766347432,0.35089646753643056,0.3967956054016941,0.6537575341420618
1682104766363409,0.29462119478141435,0.39288929579613985,0.7222400244144351
1682104766379386,0.28412298771648725,0.41718165865568047,0.8042725261310748
1682104766395362,0.24896620126649882,0.383733882658122,0.862256809338521
1682104766411339,0.34210727092393345,0.3191577019913021,0.9303730830853745
1682104766427316,0.2704509040970473,0.3037766079194322,0.8861829556725418
1682104766443293,0.23334096284428174,0.29340047302967864,0.8328374151216904
1682104766459270,0.3195239185168228,0.2918135347524222,0.8581063553826196
1682104766475247,0.24261844815747313,0.31512932021057427,0.9376974135957887
1682104766491224,0.19891660944533474,0.2902265964751658,0.9947051194018464
1682104766507201,0.18194857709620837,0.2238193331807432,1.0313267719539176
1682104766523178,-0.025818265049210254,0.20843823910887327,1.1309376668955524
1682104766539155,-0.001159685664148924,0.08783093003738429,1.2412909132524605
1682104766555132,-0.19806210421911974,0.14117647058823568,1.1418020904860002
1682104766571108,0.046692607003890885,-0.05511558709086728,1.088700694285496
1682104766587097,0.015808346684977437,-0.02923628595407024,1.0469520103761347
1682104766603074,0.09527733272297212,0.028625925078202386,1.0540321965362018
1682104766619051,0.06793316548409223,0.12408636606393486,1.0773479819943539
1682104766635028,0.12530708781567146,0.1117570763714042,0.9984893568322271
1682104766651004,0.13470664530403642,0.1704737926298927,0.9411154345006487
1682104766666981,0.1432516975661864,0.1998931868467233,0.9790798809796293
1682104766682958,0.05877775234607441,0.15387197680628706,1.0677042801556418
1682104766698935,-0.019836728465705278,0.09796292057679068,1.148149843595026
1682104766714912,-0.06890974288548124,0.11541924162661132,1.2493476768139162
1682104766730889,0.024353398947127403,0.11944762340733917,1.1818417639429315
1682104766746866,0.10907148851758564,0.14166475928892996,1.0927290760662238
1682104766762843,0.11737239642938846,0.21686121919584966,1.093217364766918
1682104766778820,0.17035172045471914,0.2927901121538108,1.081010147249561
1682104766794797,0.16827649347676843,0.2924238956282901,1.0876020447089338
1682104766810773,0.06305027847714939,0.3048752574959943,1.1271534294651717
1682104766826750,0.002990768291752488,0.31488517586022713,1.1121385519188216
1682104766842727,-0.03167772945754166,0.29974822613870433,1.0849164568551153
1682104766858704,-0.06439307240405912,0.2894941634241244,1.0846723125047681
1682104766874681,-0.06378271152819126,0.29376668955519936,1.1249561303120466
1682104766890658,-0.05633630884260299,0.2763103685053787,1.2881666285191118
1682104766906646,-0.08929579613946759,0.22662699320973534,1.4198825055313957
1682104766922623,-0.050476844434271584,0.1461814297703521,1.4179293507286186
1682104766938600,-0.02655069810025168,0.1264057373922336,1.4046234836346994
1682104766954577,0.017151140611886717,0.17438010223544698,1.3308918898298616
1682104766970554,0.08380254825665645,0.2456702525368124,1.178301670862898
1682104766986531,0.206240939955749,0.19794003204394617,1.2123598077363242
1682104767002508,0.21893644617380037,0.17828641184100125,1.2393377584496834
1682104767018485,0.2121004043640804,0.15948729686427132,1.2432440680552377
1682104767034462,0.24420538643472955,0.12835889219501073,1.2715648126955061
1682104767050439,0.24957656214236668,0.10943770504310635,1.2410467689021134
1682104767066415,0.26776531624322875,0.1231097886625463,1.2284733348592356
1682104767082392,0.3518730449378191,0.12982375829709358,1.185992217898833
1682104767098369,0.2894941634241244,0.11822690165560346,1.1005416952773324
1682104767114346,0.35931944762340695,0.11663996337834703,1.111772335393301
1682104767130323,0.3642023346303498,0.2003814755474176,1.168902113374533
1682104767146300,0.3776302738994435,0.13043411917296144,1.098954757000076
1682104767162277,0.3745784695201033,0.08880750743877286,1.001052872510872
1682104767178254,0.35345998321507555,0.11529716945143775,1.0135042343785763
1682104767194231,0.31183337148088786,0.15057602807660064,0.9895780880445564
1682104767210208,0.3187914854657814,0.14471656366826924,1.0020294499122606
1682104767226196,0.3229419394216828,0.14178683146410354,0.9944609750514992
1682104767242173,0.3062180514229036,0.16107423514152774,0.9724879835202564
1682104767258150,0.32611581597619566,0.16888685435263628,0.8854505226215004
1682104767274127,0.3367360952162963,0.18951705195696977,0.8352788586251618
1682104767290104,0.35126268406195127,0.17560082398718269,0.839795529106584
1682104767306080,0.36932936598763977,0.19842832074464045,0.8096437018387119
1682104767322057,0.36603341725795335,0.20013733119707044,0.824414435034714
1682104767338034,0.3692072938124662,0.22113374532692465,0.8402838178072782
1682104767354011,0.36273746852826694,0.2255283436331732,0.7843747615777827
1682104767369988,0.3552910658426791,0.23956664377813386,0.7813229571984435
1682104767385965,0.34039826047150346,0.25018692301823453,0.7771725032425421
1682104767401942,0.3497978179598684,0.2847333485923551,0.7718013275349049
1682104767417919,0.3402761882963299,0.28754100862134724,0.7428702220187686
1682104767433896,0.3554131380178527,0.25812161440451664,0.7809567406729228
1682104767449873,0.33990997177080917,0.29462119478141435,0.7569085221637293
1682104767465850,0.35590142671854696,0.34503700312809915,0.7449454489967193
1682104767481826,0.3851987487602049,0.3573662928206298,0.7244373235675594
1682104767497803,0.40631723506523265,0.37274738689249975,0.6830548561837189
1682104767513780,0.4372014953841461,0.3385671778438999,0.6664530403601132
1682104767529757,0.467963683527886,0.2638590066376745,0.7335927367055772
1682104767545715,0.43537041275654254,0.32916762035553493,0.690135042343786
1682104767561692,0.44879835202563534,0.3183031967650871,0.6995345998321509
1682104767577669,0.47858396276798665,0.3165941863126571,0.7162584878309302
1682104767593646,0.5142290379186694,0.31683833066300426,0.7294422827496758
1682104767609623,0.5292439154650186,0.3075608453498129,0.7468986037994965
1682104767625599,0.5352254520485236,0.29340047302967864,0.7642328526741435
1682104767641576,0.5476768139162278,0.2840009155413137,0.790844586861982
1682104767657553,0.5532921339742121,0.30011444266422505,0.8131837949187455
1682104767673530,0.5663538567177842,0.3224536507209885,0.824414435034714
1682104767689507,0.5872281986724648,0.34723430228122343,0.8037842374303805
1682104767705484,0.5916227969787133,0.3583428702220184,0.7851071946288242
1682104767721461,0.5781948577096205,0.37726405737392277,0.8048828870069427
1682104767737438,0.5667200732433049,0.39423208972304913,0.8234378576333254
1682104767753415,0.5564660105287249,0.4112001220721755,0.7995117112993055
1682104767769392,0.5523155565728235,0.41266498817425834,0.7742427710383764
1682104767785369,0.5469443808651864,0.4010681315327691,0.7586175326161593
1682104767801345,0.5377889677271686,0.3986266880292977,0.7522697795071336
1682104767817322,0.5235065232318608,0.388860914015412,0.7659418631265735
1682104767833299,0.5215533684290836,0.38495460440985774,0.763256275272755
1682104767849276,0.5330281528953993,0.3843442435339899,0.7707026779583428
1682104767865265,0.5490196078431371,0.39911497672999197,0.7429922941939422
1682104767881241,0.5668421454184784,0.38788433661402344,0.7494621194781415
1682104767897218,0.5653772793163956,0.389715419241627,0.7481193255512322
1682104767913195,0.5623254749370563,0.38324559395742774,0.7467765316243229
1682104767929172,0.5673304341191727,0.3733577477683676,0.7422598611429008
1682104767945149,0.5728236820019834,0.37189288166628476,0.7442130159456779
1682104767961126,0.575509269855802,0.3624933241779198,0.7429922941939422
1682104767977103,0.5819790951400012,0.348210879682612,0.7503166247043564
1682104767993080,0.5786831464103148,0.3419851987487599,0.7597161821927214
1682104768009057,0.5723353933012891,0.3375906004425113,0.7742427710383764
1682104768025034,0.5709925993743799,0.3288014038300142,0.7825436789501792
1682104768041010,0.5723353933012891,0.3200122072175171,0.7787594415197985
1682104768056987,0.5723353933012891,0.32990005340657635,0.7610589761196307
1682104768072964,0.5757534142061491,0.3220874341954678,0.7832761120012206
1682104768088941,0.5821011673151748,0.31525139238574784,0.7819333180743113
1682104768104918,0.5768520637827113,0.30682841229877145,0.8009765774013884
1682104768120895,0.5770962081330584,0.3081712062256807,0.8130617227435719
1682104768136872,0.5987029831387805,0.2528725108720531,0.8792248416876483
1682104768152849,0.5817349507896541,0.32318608377202995,0.8126955062180512
1682104768168826,0.557564660105287,0.31866941329060783,0.768383306630045
1682104768184814,0.573800259403372,0.3443045700770577,0.7388418402380408
1682104768200791,0.5641565575646599,0.3157396810864421,0.7509269855802243
1682104768216768,0.5641565575646599,0.30475318532082074,0.7647211413748378
1682104768232745,0.5550011444266421,0.3012130922407872,0.7803463797970549
1682104768248722,0.5480430304417485,0.2902265964751658,0.7833981841763942
1682104768264699,0.5514610513466085,0.28082703898680084,0.7700923170824749
1682104768280676,0.5534142061493856,0.278507667658503,0.7597161821927214
1682104768296652,0.5451132982375828,0.2772869459067673,0.763256275272755
1682104768312629,0.5386434729533836,0.27411306935225443,0.7718013275349049
1682104768328606,0.5497520408941785,0.27826352330815585,0.7855954833295185
1682104768344583,0.5681849393453877,0.2831464103150987,0.7909666590371556
1682104768360560,0.5656214236667427,0.2977950713359272,0.7826657511253527
1682104768376537,0.5679407949950406,0.2999923704890515,0.7849851224536506
1682104768392514,0.5552452887769892,0.31683833066300426,0.801098649576562
1682104768408491,0.5390096894789043,0.33453879606317205,0.8113527122911419
1682104768424468,0.5335164415960936,0.3432059205004956,0.7954833295185777
1682104768440445,0.5270466163118943,0.35968566414892766,0.7969481956206605
1682104768456421,0.5265583276112,0.37030594338902834,0.8262455176623176
1682104768472398,0.508369573510338,0.383733882658122,0.8493171587701225
1682104768488375,0.4997024490730144,0.39447623407339627,0.851148241397726
1682104768504364,0.47235828183413453,0.4166933699549862,0.8484626535439075
1682104768520341,0.4704051270313574,0.4162050812542919,0.8565194171053632
1682104768536317,0.4686961165789274,0.44208438239108894,0.8437018387121382
1682104768552294,0.4862745098039216,0.46466773479819956,0.8650644693675131
1682104768568271,0.4909132524605173,0.48529793240253305,0.8490730144197753
1682104768584248,0.47516594186312666,0.4831006332494088,0.8428473334859232
1682104768600225,0.4547798886091403,0.4831006332494088,0.8368657969024182
1682104768616202,0.44916456855115605,0.48114747844663164,0.821850919356069
1682104768632179,0.45551232166018174,0.4733348592355231,0.7954833295185777
1682104768648156,0.45673304341191745,0.464545662623026,0.76923781185626
1682104768664133,0.45673304341191745,0.45673304341191745,0.7576409552147707
1682104768680110,0.4490424963759825,0.4404974441138325,0.7707026779583428
1682104768696087,0.4566109712367439,0.42780193789578114,0.7824216067750056
1682104768712063,0.4666208896009767,0.4225528343633176,0.8015869382772562
1682104768728040,0.47772945754177165,0.4174258030060276,0.7898680094605934
1682104768744017,0.48151369497215235,0.40387579156176123,0.7873044937819484
1682104768759994,0.4733348592355231,0.4107118333714812,0.7787594415197985
1682104768775971,0.4614938582436867,0.36859693293659834,0.7705806057831692
1682104768791948,0.45087357900358604,0.3662775616083005,0.7509269855802243
1682104768807925,0.4633249408712903,0.35419241626611697,0.7689936675059128
1682104768823913,0.47052719920653097,0.3502861066605627,0.7730220492866406
1682104768839890,0.4838330663004502,0.34125276569771845,0.778881513694972
1682104768855867,0.4796826123445488,0.33038834210727064,0.7912108033875027
1682104768871844,0.4690623331044481,0.32611581597619566,0.8076905470359348
1682104768887821,0.4561226825360496,0.3297779812314028,0.8302738994430454
1682104768903798,0.4430609597924775,0.33112077515831206,0.853711757076371
1682104768919775,0.4358587014572368,0.3394216830701149,0.8698252841992824
1682104768935752,0.4304875257495997,0.34076447699702417,0.8758068207827883
1682104768951728,0.42951094834821113,0.35297169451438126,0.8853284504463268
1682104768967705,0.4299992370489054,0.36981765468833405,0.9052262149996189
1682104768983682,0.4262149996185247,0.38532082093537845,0.9176775768673231
1682104768999659,0.42389562829022687,0.4022888532845048,0.908033875028611
1682104769015636,0.4094911116197455,0.42194247348744973,0.8689707789730674
1682104769031613,0.4079041733424891,0.42731364919508685,0.8427252613107497
1682104769047590,0.40631723506523265,0.44452582589456036,0.8198977645532919
1682104769063567,0.424994277866789,0.42475013351644186,0.8196536202029447
1682104769079544,0.4265812161440454,0.4081483176928362,0.8383306630045011
1682104769095521,0.4216983291371026,0.3909361409933627,0.8526131074998089
1682104769111498,0.4245059891660947,0.3805600061036092,0.8546883344777596
1682104769127474,0.42938887617303756,0.3729915312428469,0.851148241397726
1682104769143432,0.43366140230411254,0.37323567559319404,0.8567635614557103
1682104769159409,0.4356145571068897,0.37238117036697904,0.8727550164034481
1682104769175386,0.4464789806973375,0.37311360341802047,0.8802014190890368
1682104769191363,0.4573434042877853,0.3842221713588163,0.8802014190890368
1682104769207340,0.4530708781567103,0.39044785229266843,0.8705577172503238
1682104769223317,0.4650339513237203,0.3759212634470135,0.882154573891814
1682104769239294,0.46857404440375383,0.40216678110933124,0.8577401388570989
1682104769255271,0.4624704356450753,0.40631723506523265,0.872510872053101
1682104769271247,0.4603952086671246,0.4079041733424891,0.8889906157015339
