Timestamp (microseconds),Gyro X (°/s),Gyro Y (°/s),Gyro Z (°/s)
1682104743898681,9.506370641641865,6.332494087129021,0.8697642481116645
1682104743914676,8.804455634393776,3.372243839169869,0.2899214160372594
1682104743930671,6.1493858243686645,0.5951018539711868,1.7242694743266611
1682104743946666,0.07629510948345342,-1.9989318684672526,2.3651483939879654
1682104743962661,-2.090485999847374,-1.6632333867398756,2.639810788128443
1682104743978656,1.5411612115663047,-1.7853055619134466,2.2430762188143945
1682104743994651,2.2735942626077303,-1.4190890363927338,2.2430762188143945
1682104744010646,2.9449912260623705,-3.250171663996298,0.106813153276903
1682104744026641,7.125963225757232,-3.250171663996298,-2.0294499122605885
1682104744042636,9.719996948195558,-2.9449912260623705,-2.4872205691615363
1682104744058632,6.72922865644307,-5.813687342641288,-5.966277561608308
1682104744074627,5.142290379186647,-6.820782787823305,-8.62134737163342
1682104744090622,8.651865415426869,-6.9733730067902115,-7.858396276798658
1682104744106617,9.048599984740918,-5.569542992294146,-5.203326466773433
1682104744122612,7.980468451972229,-6.546120393682713,-6.301976043335571
1682104744138607,0.9918364232852355,-7.797360189211872,-10.910200656137931
1682104744154602,8.010986495765565,-6.88181887541009,-12.954909590295188
1682104744170597,6.240939955748786,-5.966277561608308,-13.290608072022565
1682104744186592,8.834973678187225,-3.8605325398641526,-10.482948043030433
1682104744202587,8.1025406271458,-2.30411230640118,-9.353780422674845
1682104744218597,9.262226291294724,-1.022354467078685,-7.461661707484495
1682104744234592,7.125963225757232,-0.5645838101777372,-6.607156481269499
1682104744250587,4.440375371938671,-1.5716792553597543,-7.919432364385443
1682104744266582,1.7547875181201107,-0.3509575036240449,-9.201190203707938
1682104744282577,0.5951018539711868,0.7171740291447577,-9.99465934233615
1682104744298572,-0.3204394598305953,1.968413824673803,-10.78812848096436
1682104744314567,0.41199359121083035,2.5177386129548722,-11.032272831311502
1682104744330562,0.5951018539711868,3.1586175326161765,-10.66605630579079
1682104744346557,-0.015259021896667946,3.097581445029391,-10.055695429922935
1682104744362552,-0.015259021896667946,2.731364919508678,-9.44533455405508
1682104744378547,1.3580529488059483,1.968413824673803,-8.62134737163342
1682104744394542,2.9449912260623705,0.8087281605248791,-7.888914320591994
1682104744410537,2.883955138475585,-0.015259021896667946,-7.217517357137353
1682104744426532,2.8229190508887996,-0.8697642481116645,-6.9733730067902115
1682104744442527,4.043640802624509,-0.7476920729380936,-6.240939955748786
1682104744458522,5.172808422980097,-0.22888532845047393,-6.088349736781879
1682104744474517,5.874723430228073,-0.8697642481116645,-6.790264744029855
1682104744490512,6.607156481269499,-1.3885709925993979,-6.88181887541009
1682104744506507,7.949950408178779,-1.8768596932936816,-5.966277561608308
1682104744522503,7.705806057831637,-1.8768596932936816,-5.355916685740453
1682104744538482,13.473716334782921,-5.050736247806526,-5.0202182040130765
1682104744554477,4.684519722285813,-2.212558175020945,-5.294880598153668
1682104744570472,3.891050583657602,-2.9449912260623705,-6.515602349889377
1682104744586467,2.9144731822690346,-1.9989318684672526,-7.3090714885175885
1682104744602462,3.4332799267566543,-1.968413824673803,-7.278553444724139
1682104744618457,2.883955138475585,-2.30411230640118,-8.77393759060044
1682104744634452,3.1891355764095124,-2.6092927443351073,-8.834973678187225
1682104744650447,3.9826047150377235,-2.5787747005416577,-7.431143663691159
1682104744666442,3.9826047150377235,-2.8229190508887996,-6.088349736781879
1682104744682438,2.4872205691615363,-2.7008468757152286,-5.661097123674381
1682104744698433,0.38147554741738077,-2.334630350194516,-5.386434729533789
1682104744714428,-1.2970168612191628,-1.846341649500232,-5.752651255054502
1682104744730423,-1.4801251239795192,-1.6021972991530902,-5.630579079880931
1682104744746418,-1.1139085984588064,-1.2359807736323773,-5.1117723353933116
1682104744762413,-1.6327153429465397,-0.8392462043183286,-4.959182116426291
1682104744778408,-0.5340657663844013,-1.6327153429465397,-4.257267109178315
1682104744794403,0.2594033722438098,-1.7547875181201107,-3.250171663996298
1682104744810398,1.1139085984588064,-1.6937514305333252,-2.2735942626077303
1682104744826393,1.5411612115663047,-0.6256198977645226,-1.1139085984588064
1682104744842388,2.2735942626077303,0.1373311970702389,0.44251163500416624
1682104744858062,2.090485999847374,0.045777065690117524,1.5716792553597543
1682104744874056,1.2970168612191628,-1.0833905546654705,1.968413824673803
1682104744890050,-0.7476920729380936,-1.2359807736323773,0.6866559853513081
1682104744906043,-3.4027618829633184,-1.2054627298390415,-1.5716792553597543
1682104744922037,-3.3112077515830833,-1.4496070801861833,-1.937895780880467
1682104744938030,-1.4801251239795192,-1.8158236057068962,-1.6327153429465397
1682104744954024,-0.41199359121083035,-1.8158236057068962,-1.3885709925993979
1682104744970018,0.9918364232852355,-2.090485999847374,-1.2359807736323773
1682104744986011,0.1373311970702389,-2.2430762188143945,-1.2054627298390415
1682104745002005,-0.4730296787976158,-1.8158236057068962,-1.5411612115663047
1682104745017998,-0.4730296787976158,-1.6632333867398756,-1.9989318684672526
1682104745033992,0.22888532845047393,-1.3275349050126124,-2.0294499122605885
1682104745049986,0.93080033569845,-1.0833905546654705,-1.4496070801861833
1682104745065979,1.0833905546654705,-0.3204394598305953,-1.022354467078685
1682104745081973,1.5411612115663047,0.16784924086368846,-0.9002822919051141
1682104745097966,1.5411612115663047,0.9918364232852355,-1.4801251239795192
1682104745113960,1.6937514305333252,2.30411230640118,-2.090485999847374
1682104745129953,2.6703288319218927,2.7008468757152286,-2.6703288319218927
1682104745145947,2.883955138475585,3.3112077515830833,-2.6703288319218927
1682104745161941,2.1210040436408235,4.16571297779808,-2.3956664377813013
1682104745177642,2.5787747005416577,3.9520866712443876,-3.0670634012359415
1682104745193635,4.257267109178315,4.074158846417959,-3.891050583657602
1682104745209628,7.1869993133440175,4.043640802624509,-4.379339284351886
1682104745225620,23.17845426108181,3.7079423208972457,-3.585870145723675
1682104745241613,8.377203021286277,6.485084306095928,-5.53902494850081
1682104745257606,12.832837415121617,3.6469062333104603,-7.675288014038301
1682104745273598,12.497138933394353,3.250171663996298,-7.1869993133440175
1682104745289591,14.206149385824347,2.0294499122605885,-5.325398641947004
1682104745305584,15.457389181353392,1.7242694743266611,-2.0294499122605885
1682104745321576,14.419775692378039,3.219653620202962,0.7476920729380936
1682104745337569,13.3211261158159,3.250171663996298,2.4567025253680868
1682104745353562,13.046463721675423,2.639810788128443,2.731364919508678
1682104745369554,13.229571984435779,0.44251163500416624,2.1515220874341594
1682104745385547,16.55603875791553,-2.548256656748322,-0.015259021896667946
1682104745401539,19.516289005874683,-5.1117723353933116,0.015259021896667946
1682104745417532,24.399176012817406,-6.363012130922357,-2.761882963302014
1682104745433525,24.704356450751447,-5.630579079880931,-3.006027313649156
1682104745449517,27.542534523536915,-9.933623254749364,-4.074158846417959
1682104745465510,40.75684748607614,-24.643320363164776,-13.35164415960935
1682104745481503,31.967650873579032,-18.142977035172066,-14.297703517204468
1682104745497192,30.9605554283969,-15.732051575494097,-14.175631342030897
1682104745513183,27.32890821698311,-16.983291371023142,-18.265049210345637
1682104745529174,23.361562523842167,-21.98825055313955,-28.274967574578454
1682104745545166,17.13588158999005,-22.29343099107348,-32.455939574273316
1682104745561157,14.66392004272518,-22.049286640726336,-27.328908216983336
1682104745577148,14.175631342030897,-23.63622491798276,-22.171358815899907
1682104745593139,11.551079575799122,-22.110322728313122,-19.05851834897385
1682104745609130,11.398489356832215,-19.607843137254918,-14.877546349278987
1682104745625122,11.30693522545198,-16.556038757915644,-10.269321736476627
1682104745641113,9.903105210955914,-13.473716334782921,-8.285648889906156
1682104745657104,11.734187838559478,-12.344548714427333,-2.7008468757152286
1682104745673095,12.252994583047212,-9.41481651026163,4.16571297779808
1682104745689087,11.764705882352928,-5.569542992294146,12.069886320286855
1682104745705078,12.893873502708402,-3.9826047150377235,16.15930418860148
1682104745721069,8.22461280231937,-5.172808422980097,21.01167315175087
1682104745737060,7.1869993133440175,-13.778896772716848,21.80514229037908
1682104745753051,1.052872510872021,-16.49500267032886,16.46448462653541
1682104745769043,1.968413824673803,-20.12664988174265,12.13092240787364
1682104745785034,2.5787747005416577,-18.417639429312658,10.78812848096436
1682104745801025,2.97550926985582,-18.936446173800277,10.330357824063412
1682104745816772,1.2054627298390415,-21.011673151750983,5.722133211261166
1682104745832762,-3.4027618829633184,-20.828564888990627,-0.6561379415579722
1682104745848753,-5.722133211261166,-18.936446173800277,-4.074158846417959
1682104745864743,-2.1210040436408235,-14.02304112306399,-1.6327153429465397
1682104745880733,-0.4730296787976158,-10.208285648889841,-4.745555809872599
1682104745896723,-6.485084306095928,-2.426184481574751,-11.123826962691624
1682104745912714,-5.722133211261166,-2.2430762188143945,-13.138017853055544
1682104745928704,-6.668192568856284,1.4190890363927338,-10.08621347371627
1682104745944694,-6.21042191195545,3.1586175326161765,-8.468757152666512
1682104745960684,-5.661097123674381,4.287785152971651,-5.50850690470736
1682104745976675,-10.330357824063412,6.363012130922357,-1.022354467078685
1682104745992665,-10.360875867856862,6.637674525062948,-0.22888532845047393
1682104746008655,-11.734187838559478,7.431143663691159,3.2806897077897474
1682104746024645,-9.781033035782343,6.515602349889377,7.736324101625087
1682104746040636,-8.468757152666512,6.637674525062948,11.276417181658644
1682104746056626,-5.355916685740453,6.0578316929884295,14.114595254444112
1682104746072616,-3.799496452277367,6.393530174715806,18.72281986724647
1682104746088606,-5.874723430228073,4.135194934004744,20.4623483634698
1682104746104597,-11.093308918898288,-2.059967956054038,15.579461356526963
1682104746120587,-14.602883955138395,-6.301976043335571,10.421911955443647
1682104746136322,-14.236667429617683,-7.217517357137353,10.11673151750972
1682104746152311,-10.727092393377575,-8.010986495765565,12.222476539253762
1682104746168300,-5.53902494850081,-8.438239108873063,13.290608072022565
1682104746184290,-3.372243839169869,-8.316166933699492,12.283512626840547
1682104746200279,-1.2054627298390415,-10.421911955443647,11.581597619592571
1682104746216268,0.44251163500416624,-12.039368276493406,10.78812848096436
1682104746232257,2.6092927443351073,-12.985427634088637,8.89600976577401
1682104746248247,5.0202182040130765,-13.595788509956492,7.3090714885175885
1682104746264236,5.874723430228073,-13.015945677881973,4.745555809872599
1682104746280225,6.0578316929884295,-11.825741969939713,1.6021972991530902
1682104746296215,6.607156481269499,-8.74341954680699,-0.07629510948345342
1682104746312204,6.72922865644307,-7.125963225757232,0.38147554741738077
1682104746328193,7.827878233005208,-8.255130846112706,1.3580529488059483
1682104746344183,6.21042191195545,-8.529793240253298,3.097581445029391
1682104746360172,-0.045777065690117524,-7.919432364385443,5.203326466773433
1682104746376161,-3.372243839169869,-10.696574349584125,3.9520866712443876
1682104746392151,-8.529793240253298,-10.177767605096506,0.3204394598305953
1682104746408140,-10.452429999236983,-10.391393911650198,-1.5716792553597543
1682104746424129,-10.238803692683291,-9.719996948195558,-3.128099488822727
1682104746440118,-7.125963225757232,-5.355916685740453,-5.0202182040130765
1682104746455902,-6.1493858243686645,1.2054627298390415,-3.8605325398641526
1682104746471890,-4.959182116426291,4.1962310215915295,-3.006027313649156
1682104746487878,-8.560311284046634,8.77393759060044,-3.463797970550104
1682104746503867,-11.703669794766142,12.68024719615471,-4.562447547112242
1682104746519855,-14.602883955138395,16.128786144808032,-4.16571297779808
1682104746535843,-13.748378728923399,16.43396658274196,-2.059967956054038
1682104746551832,-12.466620889600904,14.908064393072323,0.6256198977645226
1682104746567820,-12.52765697718769,13.3211261158159,3.4943160143434397
1682104746583809,-13.839932860303634,10.452429999236983,5.966277561608308
1682104746599797,-15.060654612039343,6.363012130922357,8.499275196459848
1682104746615785,-15.579461356526963,3.4943160143434397,11.734187838559478
1682104746631774,-14.053559166857326,3.0365453574426056,14.114595254444112
1682104746647762,-11.825741969939713,2.5787747005416577,14.816510261692201
1682104746663750,-9.56740672922865,1.968413824673803,15.91515983825434
1682104746679739,-10.66605630579079,2.1210040436408235,17.502098115510762
1682104746695727,-13.839932860303634,4.745555809872599,16.647592889295765
1682104746711715,-14.602883955138395,8.74341954680699,12.954909590295188
1682104746727704,-14.57236591134506,13.290608072022565,8.346684977492941
1682104746743692,-11.459525444419,17.532616159304098,7.55321583886473
1682104746759680,-5.752651255054502,20.58442053864337,7.980468451972229
1682104746775421,-6.424048218509142,21.25581750209801,7.583733882658066
1682104746791408,-8.682383459220205,17.65468833447767,7.278553444724139
1682104746807396,-10.971236743724717,16.31189440756839,6.607156481269499
1682104746823383,-13.443198290989471,14.847028305485537,5.996795605401644
1682104746839370,-13.260090028229115,14.69443808651863,5.966277561608308
1682104746855358,-15.426871137560056,13.656824597543277,6.72922865644307
1682104746871345,-15.609979400320412,11.947814145113284,6.1493858243686645
1682104746887333,-14.145113298237561,11.062790875104838,3.1586175326161765
1682104746903320,-13.839932860303634,9.719996948195558,-1.5411612115663047
1682104746919307,-13.260090028229115,6.759746700236519,-5.844205386434737
1682104746935295,-11.154345006485073,2.9449912260623705,-9.201190203707938
1682104746951282,-9.109636072327703,-0.045777065690117524,-13.3211261158159
1682104746967270,-6.759746700236519,-1.846341649500232,-16.372930495155288
1682104746983257,-2.090485999847374,-2.7924010070954637,-17.44106202792409
1682104746999244,3.0365453574426056,-3.585870145723675,-16.983291371023142
1682104747015232,5.355916685740453,-3.372243839169869,-17.31898985275052
1682104747031219,3.4027618829633184,-5.447470817120575,-19.18059052414742
1682104747047207,0.6256198977645226,-5.203326466773433,-19.57732509346158
1682104747063194,0.19836728465702436,-5.53902494850081,-18.570229648279565
1682104747079181,1.0833905546654705,-6.0578316929884295,-18.326085297932423
1682104747095001,2.30411230640118,-6.515602349889377,-15.732051575494097
1682104747110988,2.8229190508887996,-6.21042191195545,-11.581597619592571
1682104747126975,3.5248340581368893,-5.53902494850081,-10.727092393377575
1682104747142962,1.9989318684672526,-5.203326466773433,-11.764705882352928
1682104747158949,0.7782101167315432,-5.172808422980097,-11.520561532005786
1682104747174935,2.7924010070954637,-4.3183031967651,-9.933623254749364
1682104747190922,5.050736247806526,-2.30411230640118,-8.77393759060044
1682104747206909,5.050736247806526,-1.1139085984588064,-8.1025406271458
1682104747222896,0.5645838101777372,-0.7171740291447577,-6.1493858243686645
1682104747238883,-6.027313649195094,-0.2899214160372594,-3.219653620202962
1682104747254870,-9.109636072327703,1.2359807736323773,-1.846341649500232
1682104747270857,-6.424048218509142,3.0365453574426056,-1.2970168612191628
1682104747286844,-0.8392462043183286,4.776073853665935,0.2899214160372594
1682104747302831,1.6021972991530902,5.874723430228073,0.9918364232852355
1682104747318818,0.07629510948345342,5.142290379186647,-2.090485999847374
1682104747334805,-4.287785152971651,4.257267109178315,-5.142290379186647
1682104747350792,-8.285648889906156,1.9073777370870175,-7.766842145418423
1682104747366778,-8.499275196459848,-1.4190890363927338,-9.597924773021987
1682104747382765,-7.370107576104374,-6.72922865644307,-10.849164568551146
1682104747398752,-9.018081940947582,-11.001754787518053,-12.00885023270007
1682104747414550,-11.97833218890662,-10.391393911650198,-11.85626001373305
1682104747430536,-11.85626001373305,-6.698710612649734,-9.99465934233615
1682104747446522,-13.290608072022565,-4.287785152971651,-9.506370641641865
1682104747462508,-18.966964217593727,-2.6092927443351073,-11.184863050278409
1682104747478494,-22.629129472800855,-0.3204394598305953,-10.849164568551146
1682104747494480,-21.805142290379194,3.585870145723675,-7.461661707484495
1682104747510466,-20.859082932784077,7.461661707484495,-3.799496452277367
1682104747526452,-21.164263370718004,7.156481269550568,-0.5951018539711868
1682104747542438,-23.270008392462046,3.372243839169869,2.1210040436408235
1682104747558424,-26.382848859388105,2.212558175020945,5.203326466773433
1682104747574410,-24.42969405661097,2.30411230640118,10.513466086823769
1682104747590396,-21.499961852445267,1.7242694743266611,14.480811779964824
1682104747606382,-19.607843137254918,-2.1515220874341594,14.114595254444112
1682104747622368,-17.349507896543855,-4.226749065384865,15.609979400320412
1682104747638354,-9.9641412985427,-6.240939955748786,17.38002594033719
1682104747654340,-3.6469062333104603,-7.827878233005208,17.837796597238025
1682104747670326,-3.4027618829633184,-7.797360189211872,16.58655680170898
1682104747686312,-0.19836728465702436,-6.546120393682713,14.938582436865772
1682104747702298,1.7853055619134466,-5.905241474021523,14.145113298237561
1682104747718284,0.2594033722438098,-2.426184481574751,12.52765697718769
1682104747734100,4.135194934004744,-0.6561379415579722,10.849164568551146
1682104747750085,7.888914320591994,0.8392462043183286,8.89600976577401
1682104747766071,6.546120393682713,3.006027313649156,5.966277561608308
1682104747782056,3.0365453574426056,6.1493858243686645,4.3183031967651
1682104747798042,3.1586175326161765,8.163576714732585,4.86762798504617
1682104747814027,7.431143663691159,9.048599984740918,6.027313649195094
1682104747830013,10.910200656137931,10.177767605096506,6.759746700236519
1682104747845998,11.093308918898288,11.001754787518053,6.424048218509142
1682104747861984,5.53902494850081,13.565270466163042,5.569542992294146
1682104747877969,-0.2899214160372594,16.03723201342791,5.905241474021523
1682104747893955,1.968413824673803,16.067750057221247,7.125963225757232
1682104747909940,4.989700160219741,14.785992217898752,9.29274433508806
1682104747925926,5.752651255054502,14.66392004272518,11.093308918898288
1682104747941911,6.1493858243686645,14.206149385824347,14.358739604791253
1682104747957897,5.2338445105668825,14.114595254444112,16.70862897688255
1682104747973882,1.1749446860455919,14.908064393072323,18.204013122758738
1682104747989868,-3.0365453574426056,16.220340276188267,18.204013122758738
1682104748005853,-5.630579079880931,16.830701152056122,17.837796597238025
1682104748021839,-6.363012130922357,16.800183108262672,17.532616159304098
1682104748037824,-4.745555809872599,16.70862897688255,16.15930418860148
1682104748053619,-3.097581445029391,16.00671396963446,15.091172655832679
1682104748069604,-2.212558175020945,16.58655680170898,13.748378728923399
1682104748085588,-1.1749446860455919,17.441062027923977,12.375066758220783
1682104748101573,-1.2054627298390415,17.166399633783385,10.147249561303056
1682104748117557,-0.6561379415579722,17.410543984130527,7.217517357137353
1682104748133542,1.052872510872021,17.410543984130527,4.86762798504617
1682104748149526,3.555352101930225,17.532616159304098,2.4872205691615363
1682104748165511,1.937895780880467,17.92935072861826,0.7782101167315432
1682104748181495,1.2054627298390415,18.02090485999838,-0.6866559853513081
1682104748197480,0.44251163500416624,17.074845502403264,-2.182040131227609
1682104748213464,0.22888532845047393,16.31189440756839,-3.0670634012359415
1682104748229449,-2.5787747005416577,16.70862897688255,-3.8300144960708167
1682104748245433,-4.135194934004744,20.675974670023606,-3.4027618829633184
1682104748261418,-0.07629510948345342,11.947814145113284,-5.691615167467717
1682104748277403,5.416952773327239,8.22461280231937,-4.776073853665935
1682104748293387,9.536888685435201,5.294880598153668,-3.463797970550104
1682104748309372,8.194094758525921,4.776073853665935,-3.768978408484031
1682104748325356,5.905241474021523,4.501411459525457,-4.562447547112242
1682104748341341,6.21042191195545,3.1586175326161765,-5.53902494850081
1682104748357325,9.231708247501274,1.5106431677729688,-6.576638437476163
1682104748373199,13.015945677881973,0.045777065690117524,-8.041504539559014
1682104748389183,15.701533531700534,-0.41199359121083035,-10.238803692683291
1682104748405167,19.0280003051804,-0.19836728465702436,-13.19905394064233
1682104748421151,20.309758144502894,-1.3885709925993979,-15.823605706874218
1682104748437135,17.288471808956956,-2.1515220874341594,-17.502098115510876
1682104748453119,9.170672159914488,-0.16784924086368846,-18.814373998626706
1682104748469103,0.6561379415579722,4.440375371938671,-18.75333791103992
1682104748485087,-6.668192568856284,8.377203021286277,-17.929350728618374
1682104748501072,-6.393530174715806,9.658960860608772,-16.18982223239493
1682104748517056,-1.8158236057068962,7.064927138170447,-13.565270466163042
1682104748533040,-2.5787747005416577,6.179903868162,-11.642633707179357
1682104748549024,-7.003891050583661,8.499275196459848,-11.123826962691624
1682104748565008,-5.294880598153668,8.682383459220205,-10.177767605096506
1682104748580992,-0.3509575036240449,7.858396276798658,-9.506370641641865
1682104748596976,-0.1373311970702389,7.736324101625087,-9.262226291294724
1682104748612960,-1.6632333867398756,8.804455634393776,-9.719996948195558
1682104748628944,-4.16571297779808,9.384298466468294,-9.231708247501274
1682104748644928,-8.194094758525921,10.696574349584125,-8.041504539559014
1682104748660912,-15.21324483100625,11.30693522545198,-5.874723430228073
1682104748676896,-21.408407721065146,21.225299458304676,-3.9826047150377235
1682104748692749,-11.276417181658644,14.297703517204468,-3.6163881895170107
1682104748708732,-5.691615167467717,11.612115663385907,-4.1962310215915295
1682104748724716,-7.675288014038301,11.215381094071859,-4.287785152971651
1682104748740699,-10.025177386129485,10.452429999236983,-4.745555809872599
1682104748756683,3.006027313649156,7.583733882658066,-5.813687342641288
1682104748772667,7.949950408178779,4.226749065384865,-6.698710612649734
1682104748788650,7.125963225757232,5.081254291599862,-8.89600976577401
1682104748804634,5.355916685740453,5.844205386434737,-10.269321736476627
1682104748820617,-6.240939955748786,19.485770962081233,-10.391393911650198
1682104748836601,-6.607156481269499,15.21324483100625,-7.797360189211872
1682104748852584,0.9918364232852355,8.987563897154132,-5.783169298847952
1682104748868568,8.499275196459848,5.844205386434737,-3.1891355764095124
1682104748884552,11.917296101319835,3.4027618829633184,-1.022354467078685
1682104748900535,8.255130846112706,3.8605325398641526,0.5340657663844013
1682104748916519,0.3204394598305953,5.691615167467717,2.090485999847374
1682104748932502,-6.9733730067902115,5.50850690470736,5.081254291599862
1682104748948486,0.106813153276903,7.644769970244852,5.661097123674381
1682104748964470,1.0833905546654705,6.424048218509142,6.912336919203426
1682104748980453,0.2899214160372594,6.1493858243686645,7.461661707484495
1682104748996437,2.334630350194516,4.379339284351886,7.827878233005208
1682104749012298,-0.7171740291447577,3.555352101930225,6.393530174715806
1682104749028281,-1.8158236057068962,2.7008468757152286,6.820782787823305
1682104749044264,-8.285648889906156,7.248035400930803,10.391393911650198
1682104749060248,-5.294880598153668,1.1749446860455919,11.062790875104838
1682104749076231,-7.217517357137353,-0.5645838101777372,12.13092240787364
1682104749092214,-17.105363546196713,8.194094758525921,15.060654612039343
1682104749108197,-0.16784924086368846,-1.5411612115663047,11.551079575799122
1682104749124180,6.546120393682713,-3.128099488822727,8.316166933699492
1682104749140163,10.177767605096506,-2.2430762188143945,5.844205386434737
1682104749156146,7.003891050583661,1.3885709925993979,4.226749065384865
1682104749172129,2.212558175020945,5.172808422980097,3.891050583657602
1682104749188112,1.3885709925993979,6.424048218509142,4.226749065384865
1682104749204095,0.16784924086368846,7.949950408178779,4.287785152971651
1682104749220079,-1.6937514305333252,8.926527809567347,4.013122758831173
1682104749236062,-3.006027313649156,9.170672159914488,3.3112077515830833
1682104749252045,-0.41199359121083035,8.255130846112706,2.182040131227609
1682104749268028,4.013122758831173,6.240939955748786,0.5645838101777372
1682104749284011,5.600061036087595,4.989700160219741,-0.8697642481116645
1682104749299994,4.806591897459384,4.3183031967651,-1.3885709925993979
1682104749315977,1.8158236057068962,5.416952773327239,-1.4801251239795192
1682104749331848,-0.7171740291447577,6.1493858243686645,-0.8392462043183286
1682104749347830,0.6256198977645226,5.1117723353933116,0.5035477225909517
1682104749363813,3.463797970550104,3.555352101930225,1.4190890363927338
1682104749379796,6.301976043335571,2.3956664377813013,1.3275349050126124
1682104749395778,8.285648889906156,1.2970168612191628,0.8392462043183286
1682104749411761,8.010986495765565,1.2359807736323773,-0.4730296787976158
1682104749427744,5.813687342641288,1.7242694743266611,-1.7853055619134466
1682104749443726,6.942854962996876,1.4801251239795192,-2.8229190508887996
1682104749459709,11.703669794766142,0.16784924086368846,-3.372243839169869
1682104749475691,18.265049210345524,-1.1139085984588064,-4.1962310215915295
1682104749491674,26.87113756008239,-2.2735942626077303,-6.1493858243686645
1682104749507657,34.439612420844014,-2.7924010070954637,-9.56740672922865
1682104749523639,35.41618982223258,-6.301976043335571,-11.764705882352928
1682104749539622,30.59433890287619,-9.56740672922865,-11.367971313038765
1682104749555605,28.58014801251238,-9.872587167162578,-10.696574349584125
1682104749571587,23.758297093156216,-8.804455634393776,-8.163576714732585
1682104749587570,26.901655603875724,-2.7008468757152286,-7.40062561989771
1682104749603552,20.279240100709444,2.731364919508678,-3.1586175326161765
1682104749619535,14.816510261692201,10.025177386129485,0.6866559853513081
1682104749635518,7.217517357137353,14.02304112306399,5.905241474021523
1682104749651397,2.7008468757152286,18.966964217593613,11.001754787518053
1682104749667379,-0.7171740291447577,23.72777904936288,15.91515983825434
1682104749683362,0.9613183794918996,27.389944304570008,20.06561379415575
1682104749699344,3.1891355764095124,29.67879758907452,23.819333180743
1682104749715326,1.5411612115663047,31.876096742199024,26.779583428702153
1682104749731308,-3.3112077515830833,32.97474631876116,29.55672541390095
1682104749747290,-2.7924010070954637,33.70717936980259,30.869001297016666
1682104749763272,1.4190890363927338,33.18837262531474,29.770351720454528
1682104749779255,3.6469062333104603,33.06630045014117,26.29129472800787
1682104749795237,1.6021972991530902,33.737697413595924,21.71358815899896
1682104749811219,-1.0833905546654705,34.47013046463735,17.044327458609814
1682104749827201,-0.5951018539711868,34.74479285877783,13.626306553749828
1682104749843183,0.5340657663844013,33.70717936980259,12.00885023270007
1682104749859165,2.5787747005416577,32.0897230487526,11.093308918898288
1682104749875147,6.790264744029855,29.587243457694285,9.262226291294724
1682104749891130,11.367971313038765,26.68802929732192,7.248035400930803
1682104749907112,13.687342641336613,24.002441443503358,4.531929503318793
1682104749923094,13.87045090409697,20.767528801403728,1.8158236057068962
1682104749939076,13.138017853055544,17.288471808956956,-0.9918364232852355
1682104749955058,13.138017853055544,14.419775692378039,-4.287785152971651
1682104749970947,15.121690699626129,11.42900740062555,-6.668192568856284
1682104749986929,16.55603875791553,8.468757152666512,-7.858396276798658
1682104750002910,17.288471808956956,6.393530174715806,-8.560311284046634
1682104750018892,20.309758144502894,3.0670634012359415,-8.834973678187225
1682104750034874,22.873273823147883,-0.015259021896667946,-9.719996948195558
1682104750050855,24.582284275577877,-2.9144731822690346,-9.536888685435201
1682104750066837,25.741969939726687,-6.454566262302592,-8.926527809567347
1682104750082819,25.131609063858832,-9.506370641641865,-7.583733882658066
1682104750098800,22.3849851224536,-11.612115663385907,-5.874723430228073
1682104750114782,22.35446707866015,-12.80231937132828,-5.1117723353933116
1682104750130764,23.819333180743,-14.145113298237561,-4.654001678492364
1682104750146745,24.460212100404306,-14.938582436865772,-4.562447547112242
1682104750162727,25.375753414205974,-15.854123750667668,-4.715037766079149
1682104750178709,26.596475165941683,-16.556038757915644,-5.50850690470736
1682104750194690,27.908751049057628,-17.044327458609928,-6.454566262302592
1682104750210672,32.30334935530641,-17.44106202792409,-7.034409094376997
1682104750226654,36.362249179827586,-19.88250553139551,-4.3183031967651
1682104750242635,39.84130617227447,-11.154345006485073,-5.905241474021523
1682104750258617,42.191195544365655,-9.9641412985427,-9.658960860608772
1682104750274599,31.23521782253738,-10.66605630579079,-13.290608072022565
1682104750290496,14.389257648584703,-4.348821240558436,-21.89669642175943
1682104750306478,2.883955138475585,-3.0365453574426056,-21.591515983825502
1682104750322460,1.846341649500232,-1.8158236057068962,-17.807278553444803
1682104750338441,2.9449912260623705,-0.5035477225909517,-15.915159838254453
1682104750354423,5.996795605401644,-3.1586175326161765,-14.938582436865772
1682104750370405,3.7079423208972457,-4.135194934004744,-12.985427634088637
1682104750386386,-0.3204394598305953,-5.050736247806526,-11.367971313038765
1682104750402368,-3.5248340581368893,-5.264362554360218,-9.048599984740918
1682104750418350,-5.264362554360218,-4.348821240558436,-6.9733730067902115
1682104750434332,-5.844205386434737,-4.562447547112242,-6.668192568856284
1682104750450313,-4.470893415732007,-4.226749065384865,-5.9357595178148586
1682104750466295,-1.8768596932936816,-3.4027618829633184,-5.50850690470736
1682104750482277,0.1373311970702389,-3.250171663996298,-6.546120393682713
1682104750498258,0.5035477225909517,-4.348821240558436,-8.89600976577401
1682104750514240,-1.4190890363927338,-5.142290379186647,-11.703669794766142
1682104750530222,-2.853437094682249,-6.179903868162,-14.480811779964824
1682104750546203,-2.182040131227609,-5.966277561608308,-16.433966582742073
1682104750562185,0.5035477225909517,-7.949950408178779,-16.61707484550243
1682104750578167,4.715037766079149,-9.781033035782343,-17.349507896543855
1682104750594148,7.583733882658066,-10.177767605096506,-19.30266269932099
1682104750610046,7.949950408178779,-9.658960860608772,-18.78385595483337
1682104750626027,5.630579079880931,-7.1869993133440175,-18.20401312275885
1682104750642008,0.41199359121083035,-5.722133211261166,-17.013809414816592
1682104750657990,-3.7079423208972457,-6.424048218509142,-16.128786144808146
1682104750673971,-5.355916685740453,-6.240939955748786,-16.128786144808146
1682104750689952,-4.776073853665935,-5.264362554360218,-14.450293736171488
1682104750705933,-2.3956664377813013,-4.684519722285813,-12.588693064774475
1682104750721914,-0.9613183794918996,-5.569542992294146,-13.412680247196135
1682104750737896,0.3204394598305953,-6.912336919203426,-13.565270466163042
1682104750753877,-0.8697642481116645,-5.783169298847952,-13.076981765468759
1682104750769858,-0.7476920729380936,-7.827878233005208,-12.069886320286855
1682104750785839,-1.3580529488059483,-7.736324101625087,-11.795223926146264
1682104750801820,-2.5787747005416577,-7.492179751277945,-12.497138933394353
1682104750817802,-3.2806897077897474,-8.133058670939135,-14.419775692378039
1682104750833783,-1.6021972991530902,-9.048599984740918,-14.999618524452558
1682104750849764,2.4872205691615363,-10.11673151750972,-13.656824597543277
1682104750865745,7.0954451819637825,-11.032272831311502,-12.375066758220783
1682104750881726,11.245899137865194,-10.66605630579079,-12.00885023270007
1682104750897708,13.260090028229115,-11.093308918898288,-12.283512626840547
1682104750913689,15.060654612039343,-12.100404364080191,-12.52765697718769
1682104750929596,16.922255283436243,-13.473716334782921,-12.619211108567924
1682104750945576,19.180590524147306,-14.816510261692201,-12.344548714427333
1682104750961557,19.363698786907662,-13.87045090409697,-13.382162203402686
1682104750977538,16.525520714122194,-13.443198290989471,-13.90096894789042
1682104750993518,13.931486991683755,-12.52765697718769,-12.619211108567924
1682104751009499,11.917296101319835,-10.971236743724717,-10.940718699931267
1682104751025480,10.08621347371627,-10.849164568551146,-10.605020218204004
1682104751041461,8.499275196459848,-10.971236743724717,-11.001754787518053
1682104751057441,9.018081940947582,-11.33745326924543,-9.719996948195558
1682104751073422,11.85626001373305,-10.055695429922935,-5.874723430228073
1682104751089403,11.093308918898288,-11.551079575799122,-4.928664072632955
1682104751105383,6.546120393682713,-11.215381094071859,-5.264362554360218
1682104751121364,-0.22888532845047393,-7.370107576104374,-2.853437094682249
1682104751137345,1.266498817425827,-7.0954451819637825,-2.3651483939879654
1682104751153326,2.090485999847374,-5.203326466773433,-1.7547875181201107
1682104751169306,3.128099488822727,-3.585870145723675,-1.7242694743266611
1682104751185287,3.097581445029391,-1.4190890363927338,-1.266498817425827
1682104751201268,2.3956664377813013,0.3509575036240449,-0.5645838101777372
1682104751217249,0.5340657663844013,1.2054627298390415,0.07629510948345342
1682104751233229,-0.6256198977645226,1.6327153429465397,0.7171740291447577
1682104751249145,-1.2054627298390415,2.883955138475585,0.9613183794918996
1682104751265126,-1.1139085984588064,5.355916685740453,1.5716792553597543
1682104751281107,-1.1749446860455919,7.797360189211872,2.4872205691615363
1682104751297087,-1.266498817425827,8.682383459220205,2.6703288319218927
1682104751313068,-2.0294499122605885,8.987563897154132,2.426184481574751
1682104751329049,-3.341725795376533,8.957045853360796,2.6092927443351073
1682104751345029,-5.477988860914024,9.750514991989007,3.097581445029391
1682104751361010,-5.416952773327239,9.9641412985427,4.1962310215915295
1682104751376991,-4.1962310215915295,11.062790875104838,5.874723430228073
1682104751392972,-1.3275349050126124,11.520561532005786,7.55321583886473
1682104751408952,-1.2970168612191628,11.42900740062555,7.614251926451516
1682104751424933,-2.731364919508678,9.903105210955914,6.332494087129021
1682104751440914,-5.447470817120575,8.285648889906156,4.806591897459384
1682104751456894,-7.0954451819637825,7.766842145418423,4.043640802624509
1682104751472875,-6.576638437476163,8.255130846112706,5.050736247806526
1682104751488856,-5.325398641947004,9.384298466468294,6.21042191195545
1682104751504837,-2.6092927443351073,8.957045853360796,6.2714579995422355
1682104751520817,0.07629510948345342,7.919432364385443,5.142290379186647
1682104751536798,2.090485999847374,6.363012130922357,3.585870145723675
1682104751552779,2.5177386129548722,4.623483634699028,2.1515220874341594
1682104751568695,1.9989318684672526,3.372243839169869,1.6021972991530902
1682104751584675,1.3885709925993979,3.341725795376533,1.5716792553597543
1682104751600655,0.9918364232852355,4.226749065384865,1.7853055619134466
1682104751616635,0.5035477225909517,4.013122758831173,1.3580529488059483
1682104751632616,-0.8392462043183286,3.585870145723675,0.07629510948345342
1682104751648596,0.6561379415579722,3.128099488822727,0.015259021896667946
1682104751664576,2.6703288319218927,2.8229190508887996,0.4730296787976158
1682104751680556,3.555352101930225,2.30411230640118,0.9613183794918996
1682104751696537,2.731364919508678,1.5411612115663047,1.1139085984588064
1682104751712517,0.106813153276903,1.052872510872021,0.4730296787976158
1682104751728497,-0.6866559853513081,0.7171740291447577,0.1373311970702389
1682104751744477,-1.0833905546654705,1.7242694743266611,0.2899214160372594
1682104751760458,-1.2359807736323773,1.7853055619134466,-0.44251163500416624
1682104751776438,-0.9918364232852355,1.846341649500232,-0.93080033569845
1682104751792418,0.9918364232852355,1.7242694743266611,-0.5035477225909517
1682104751808398,0.6866559853513081,1.5716792553597543,-0.41199359121083035
1682104751824379,0.16784924086368846,0.2899214160372594,-1.144426642252256
1682104751840359,1.0833905546654705,0.106813153276903,-0.7171740291447577
1682104751856339,1.052872510872021,1.3580529488059483,0.07629510948345342
1682104751872319,0.6561379415579722,0.93080033569845,-0.5951018539711868
1682104751888183,-0.2899214160372594,0.44251163500416624,-1.7853055619134466
1682104751904163,2.4567025253680868,-0.106813153276903,-1.3885709925993979
1682104751920143,2.30411230640118,0.93080033569845,-1.0833905546654705
1682104751936123,0.7476920729380936,-0.2594033722438098,-2.3651483939879654
1682104751952102,-0.4730296787976158,-1.1749446860455919,-2.97550926985582
1682104751968082,1.052872510872021,-0.6866559853513081,-1.9073777370870175
1682104751984062,2.761882963302014,0.4730296787976158,-1.1139085984588064
1682104752000042,2.9449912260623705,0.5340657663844013,-1.9989318684672526
1682104752016021,2.5177386129548722,0.5645838101777372,-2.853437094682249
1682104752032001,3.128099488822727,0.19836728465702436,-3.250171663996298
1682104752047981,2.6703288319218927,0.44251163500416624,-2.6703288319218927
1682104752063961,2.853437094682249,0.3509575036240449,-1.9989318684672526
1682104752079940,2.639810788128443,0.07629510948345342,-2.1515220874341594
1682104752095920,2.883955138475585,-0.2899214160372594,-2.0294499122605885
1682104752111900,3.6469062333104603,-0.38147554741738077,-1.7853055619134466
1682104752127880,4.86762798504617,-0.2594033722438098,-1.5411612115663047
1682104752143859,5.355916685740453,-0.07629510948345342,-1.6327153429465397
1682104752159839,4.409857328145222,-0.22888532845047393,-2.5787747005416577
1682104752175819,2.639810788128443,-0.6561379415579722,-3.8605325398641526
1682104752191799,1.937895780880467,-1.144426642252256,-5.142290379186647
1682104752207763,3.799496452277367,-2.426184481574751,-6.576638437476163
1682104752223743,2.8229190508887996,-2.8229190508887996,-8.438239108873063
1682104752239723,3.128099488822727,-3.1891355764095124,-8.682383459220205
1682104752255703,2.182040131227609,-3.799496452277367,-9.048599984740918
1682104752271682,3.5248340581368893,-4.86762798504617,-8.712901503013654
1682104752287662,3.5248340581368893,-4.501411459525457,-8.163576714732585
1682104752303642,3.585870145723675,-4.654001678492364,-7.827878233005208
1682104752319622,3.921568627450938,-5.172808422980097,-7.949950408178779
1682104752335601,3.799496452277367,-6.240939955748786,-8.468757152666512
1682104752351581,4.3183031967651,-7.705806057831637,-9.048599984740918
1682104752367561,4.379339284351886,-8.407721065079727,-9.109636072327703
1682104752383541,4.776073853665935,-8.77393759060044,-8.682383459220205
1682104752399520,5.142290379186647,-7.980468451972229,-7.858396276798658
1682104752415500,6.088349736781879,-7.980468451972229,-6.942854962996876
1682104752431480,5.172808422980097,-7.705806057831637,-6.607156481269499
1682104752447460,4.16571297779808,-8.560311284046634,-6.72922865644307
1682104752463440,2.548256656748322,-8.346684977492941,-6.912336919203426
1682104752479419,3.1586175326161765,-8.285648889906156,-6.790264744029855
1682104752495399,4.715037766079149,-8.041504539559014,-6.88181887541009
1682104752511379,6.668192568856284,-7.736324101625087,-7.40062561989771
1682104752527313,7.858396276798658,-7.888914320591994,-8.22461280231937
1682104752543292,7.888914320591994,-7.736324101625087,-8.62134737163342
1682104752559271,7.217517357137353,-7.461661707484495,-9.079118028534367
1682104752575251,6.607156481269499,-7.339589532310924,-10.269321736476627
1682104752591230,6.240939955748786,-6.88181887541009,-10.75761043717091
1682104752607209,3.4943160143434397,-4.470893415732007,-7.583733882658066
1682104752623189,0.16784924086368846,-1.4190890363927338,-3.9520866712443876
1682104752639168,-0.106813153276903,-0.9918364232852355,-3.0365453574426056
1682104752655147,0.3509575036240449,-0.7476920729380936,-2.731364919508678
1682104752671126,0.8392462043183286,-1.0833905546654705,-2.182040131227609
1682104752687106,0.5035477225909517,-1.3885709925993979,-2.1515220874341594
1682104752703085,0.19836728465702436,-1.937895780880467,-2.212558175020945
1682104752719064,-0.3204394598305953,-1.846341649500232,-1.6937514305333252
1682104752735044,-0.106813153276903,-1.6937514305333252,-0.9002822919051141
1682104752751023,-0.6256198977645226,-0.7782101167315432,-0.8087281605248791
1682104752767002,-0.7171740291447577,-0.5951018539711868,-1.8768596932936816
1682104752782981,1.052872510872021,-0.93080033569845,-2.883955138475585
1682104752798961,2.853437094682249,-0.9918364232852355,-3.0365453574426056
1682104752814940,4.226749065384865,-1.5106431677729688,-2.6092927443351073
1682104752830919,3.7384603646905816,-1.8768596932936816,-1.937895780880467
1682104752846862,2.30411230640118,-2.090485999847374,-1.3580529488059483
1682104752862842,0.5951018539711868,-1.6021972991530902,-1.2359807736323773
1682104752878821,1.2359807736323773,-1.846341649500232,-1.144426642252256
1682104752894800,2.1515220874341594,-1.1139085984588064,-0.6256198977645226
1682104752910780,2.97550926985582,-0.7782101167315432,-0.5035477225909517
1682104752926759,2.6703288319218927,0.015259021896667946,-0.07629510948345342
1682104752942738,1.266498817425827,0.8697642481116645,0.5035477225909517
1682104752958717,-0.16784924086368846,1.6632333867398756,0.7782101167315432
1682104752974697,-1.6632333867398756,2.3651483939879654,0.8392462043183286
1682104752990676,-2.548256656748322,3.097581445029391,0.3509575036240449
1682104753006655,-2.4567025253680868,4.043640802624509,-0.5035477225909517
1682104753022635,-1.6937514305333252,4.623483634699028,-1.144426642252256
1682104753038614,-1.8768596932936816,5.1117723353933116,-0.93080033569845
1682104753054593,-1.8768596932936816,5.081254291599862,-0.07629510948345342
1682104753070572,-1.4496070801861833,5.355916685740453,0.9918364232852355
1682104753086552,-0.2899214160372594,5.630579079880931,1.2970168612191628
1682104753102531,0.9918364232852355,5.172808422980097,0.6561379415579722
1682104753118510,0.8697642481116645,5.325398641947004,0.07629510948345342
1682104753134490,0.41199359121083035,4.989700160219741,-0.5340657663844013
1682104753150469,-2.731364919508678,5.783169298847952,-0.7782101167315432
1682104753166381,-5.264362554360218,6.393530174715806,-0.5951018539711868
1682104753182361,-7.064927138170447,6.88181887541009,-0.41199359121083035
1682104753198340,-8.010986495765565,7.217517357137353,0.6561379415579722
1682104753214319,-7.675288014038301,7.858396276798658,1.8158236057068962
1682104753230299,-8.133058670939135,9.201190203707938,2.7008468757152286
1682104753246278,-7.980468451972229,9.719996948195558,3.250171663996298
1682104753262257,-5.386434729533789,8.89600976577401,4.348821240558436
1682104753278236,-5.1117723353933116,9.475852597848416,5.416952773327239
1682104753294216,-4.83710994125272,8.89600976577401,5.477988860914024
1682104753310195,-5.325398641947004,8.62134737163342,5.294880598153668
1682104753326174,-4.470893415732007,8.682383459220205,5.630579079880931
1682104753342154,-2.9449912260623705,9.018081940947582,6.301976043335571
1682104753358133,-2.4872205691615363,9.018081940947582,6.240939955748786
1682104753374112,-1.5106431677729688,8.041504539559014,6.1493858243686645
1682104753390092,-0.7171740291447577,8.285648889906156,6.88181887541009
1682104753406071,-0.9613183794918996,8.77393759060044,6.9733730067902115
1682104753422050,-1.6327153429465397,8.1025406271458,5.752651255054502
1682104753438029,-1.3275349050126124,7.156481269550568,4.928664072632955
1682104753454009,-1.052872510872021,7.461661707484495,4.83710994125272
1682104753469988,-0.8087281605248791,6.698710612649734,5.1117723353933116
1682104753485931,-2.9449912260623705,6.240939955748786,4.989700160219741
1682104753501910,-4.226749065384865,4.989700160219741,4.562447547112242
1682104753517889,-5.0202182040130765,4.86762798504617,4.83710994125272
1682104753533867,-3.4027618829633184,4.806591897459384,4.928664072632955
1682104753549846,-1.5411612115663047,4.348821240558436,4.013122758831173
1682104753565825,0.9002822919051141,2.5787747005416577,2.426184481574751
1682104753581804,2.1210040436408235,2.883955138475585,2.1210040436408235
1682104753597783,2.3956664377813013,2.212558175020945,1.7242694743266611
1682104753613762,1.9073777370870175,1.4801251239795192,1.6937514305333252
1682104753629740,2.0294499122605885,0.6561379415579722,2.059967956054038
1682104753645719,1.2970168612191628,0.07629510948345342,2.548256656748322
1682104753661698,-0.41199359121083035,-0.5340657663844013,3.006027313649156
1682104753677677,-2.7008468757152286,-0.38147554741738077,3.372243839169869
1682104753693656,-2.883955138475585,0.015259021896667946,3.921568627450938
1682104753709634,-1.052872510872021,0.5035477225909517,4.257267109178315
1682104753725613,0.16784924086368846,1.0833905546654705,3.8605325398641526
1682104753741592,1.5106431677729688,0.5951018539711868,2.8229190508887996
1682104753757571,1.3885709925993979,0.7782101167315432,2.2430762188143945
1682104753773550,0.16784924086368846,0.93080033569845,1.7547875181201107
1682104753789528,-2.1210040436408235,1.2359807736323773,1.1139085984588064
1682104753805481,-2.639810788128443,1.266498817425827,0.3509575036240449
1682104753821459,-1.6021972991530902,1.6327153429465397,-0.07629510948345342
1682104753837438,-0.6561379415579722,2.182040131227609,-0.9918364232852355
1682104753853417,1.144426642252256,1.3885709925993979,-2.1210040436408235
1682104753869396,1.9989318684672526,1.022354467078685,-3.250171663996298
1682104753885375,2.761882963302014,0.8087281605248791,-4.013122758831173
1682104753901353,2.7008468757152286,0.5035477225909517,-4.83710994125272
1682104753917332,3.006027313649156,-0.07629510948345342,-5.844205386434737
1682104753933311,3.097581445029391,-0.015259021896667946,-7.40062561989771
1682104753949290,3.341725795376533,0.1373311970702389,-11.398489356832215
1682104753965269,4.379339284351886,-0.93080033569845,-17.28847180895707
1682104753981248,6.851300831616641,-3.9520866712443876,-21.77462424658586
1682104753997226,5.630579079880931,-3.8605325398641526,-21.77462424658586
1682104754013205,2.883955138475585,-2.639810788128443,-18.722819867246585
1682104754029184,-3.0365453574426056,-0.4730296787976158,-14.206149385824347
1682104754045163,-5.874723430228073,-0.8392462043183286,-11.581597619592571
1682104754061142,-6.088349736781879,-1.6021972991530902,-9.658960860608772
1682104754077120,-3.4332799267566543,-3.555352101930225,-7.949950408178779
1682104754093099,0.5340657663844013,-6.0578316929884295,-6.0578316929884295
1682104754109078,7.55321583886473,-8.590829327840083,-5.630579079880931
1682104754125030,7.003891050583661,-5.752651255054502,-4.623483634699028
1682104754141009,2.883955138475585,-4.776073853665935,-4.531929503318793
1682104754156988,-1.6632333867398756,-3.3112077515830833,-4.409857328145222
1682104754172967,-1.5106431677729688,-1.9989318684672526,-3.891050583657602
1682104754188945,1.266498817425827,-1.1749446860455919,-3.799496452277367
1682104754204924,4.623483634699028,-0.6256198977645226,-4.16571297779808
1682104754220903,6.790264744029855,-0.2899214160372594,-4.16571297779808
1682104754236882,4.135194934004744,1.1139085984588064,-3.7384603646905816
1682104754252861,1.9989318684672526,0.2899214160372594,-3.1586175326161765
1682104754268839,0.106813153276903,0.9002822919051141,-1.846341649500232
1682104754284818,0.6256198977645226,1.8158236057068962,-0.6256198977645226
1682104754300797,0.93080033569845,2.639810788128443,-0.5951018539711868
1682104754316776,-0.5035477225909517,2.30411230640118,-1.846341649500232
1682104754332755,-1.846341649500232,0.8697642481116645,-3.8605325398641526
1682104754348734,-3.677424277103796,-0.5035477225909517,-3.5248340581368893
1682104754364712,-6.088349736781879,-0.38147554741738077,-2.2430762188143945
1682104754380691,-6.820782787823305,-0.44251163500416624,-0.5340657663844013
1682104754396670,-8.194094758525921,0.1373311970702389,1.052872510872021
1682104754412649,-6.790264744029855,-0.93080033569845,1.6327153429465397
1682104754428628,-4.013122758831173,-1.4190890363927338,1.6021972991530902
1682104754444549,-2.1210040436408235,0.106813153276903,0.9613183794918996
1682104754460528,-0.3204394598305953,0.8392462043183286,-0.19836728465702436
1682104754476506,1.2970168612191628,0.9613183794918996,-1.144426642252256
1682104754492484,5.264362554360218,3.1891355764095124,-2.212558175020945
1682104754508463,-0.2899214160372594,3.1891355764095124,-0.8697642481116645
1682104754524441,-0.045777065690117524,2.9449912260623705,-0.015259021896667946
1682104754540419,0.8392462043183286,3.097581445029391,0.1373311970702389
1682104754556398,1.937895780880467,3.6469062333104603,0.2899214160372594
1682104754572376,1.8158236057068962,4.257267109178315,0.045777065690117524
1682104754588354,0.8697642481116645,3.921568627450938,-0.9613183794918996
1682104754604333,0.2594033722438098,3.097581445029391,-1.6021972991530902
1682104754620311,-0.2594033722438098,2.639810788128443,-0.9918364232852355
1682104754636289,-0.9918364232852355,2.2430762188143945,-0.106813153276903
1682104754652268,-0.38147554741738077,1.2054627298390415,0.44251163500416624
1682104754668246,0.44251163500416624,1.3580529488059483,0.9918364232852355
1682104754684224,1.1139085984588064,1.7242694743266611,0.8697642481116645
1682104754700203,1.4801251239795192,2.4872205691615363,0.41199359121083035
1682104754716181,1.4496070801861833,3.585870145723675,-0.16784924086368846
1682104754732159,1.2359807736323773,3.5248340581368893,-0.7171740291447577
1682104754748138,0.2899214160372594,2.883955138475585,-0.6561379415579722
1682104754764099,-0.8087281605248791,1.6632333867398756,-0.44251163500416624
1682104754780077,-1.937895780880467,1.052872510872021,-0.2594033722438098
1682104754796055,-1.9989318684672526,1.144426642252256,-0.2899214160372594
1682104754812034,-1.3580529488059483,1.0833905546654705,-0.44251163500416624
1682104754828012,0.1373311970702389,1.052872510872021,-0.4730296787976158
1682104754843990,1.846341649500232,1.1749446860455919,0.045777065690117524
1682104754859969,2.7008468757152286,1.2970168612191628,0.16784924086368846
1682104754875947,2.6092927443351073,1.3885709925993979,0.1373311970702389
1682104754891925,0.5340657663844013,1.6937514305333252,-0.2594033722438098
1682104754907904,-1.022354467078685,1.5106431677729688,-0.5340657663844013
1682104754923882,-1.1749446860455919,1.6937514305333252,-0.16784924086368846
1682104754939860,-1.052872510872021,1.7242694743266611,-0.22888532845047393
1682104754955839,-2.1210040436408235,1.846341649500232,-0.5951018539711868
1682104754971817,-1.2054627298390415,1.5106431677729688,-0.44251163500416624
1682104754987795,-0.045777065690117524,2.4872205691615363,0.2594033722438098
1682104755003774,1.3885709925993979,2.212558175020945,0.3509575036240449
1682104755019752,1.6632333867398756,1.968413824673803,0.16784924086368846
1682104755035730,0.9918364232852355,1.5106431677729688,-0.44251163500416624
1682104755051709,0.22888532845047393,0.6561379415579722,-1.0833905546654705
1682104755067687,-0.1373311970702389,0.5035477225909517,-1.0833905546654705
1682104755083648,-0.5951018539711868,0.9918364232852355,-0.7171740291447577
1682104755099627,-1.7853055619134466,0.9002822919051141,-1.0833905546654705
1682104755115605,-1.7242694743266611,0.2594033722438098,-1.4190890363927338
1682104755131583,-0.8697642481116645,0.3204394598305953,-1.3580529488059483
1682104755147562,-0.015259021896667946,0.44251163500416624,-0.93080033569845
1682104755163540,-0.106813153276903,0.9613183794918996,-0.7476920729380936
1682104755179518,0.07629510948345342,1.1139085984588064,-0.6256198977645226
1682104755195497,1.1139085984588064,0.6561379415579722,-0.7476920729380936
1682104755211475,2.090485999847374,0.16784924086368846,-0.6866559853513081
1682104755227453,2.639810788128443,0.41199359121083035,-0.3204394598305953
1682104755243432,2.853437094682249,0.6561379415579722,-0.015259021896667946
1682104755259410,2.3956664377813013,0.106813153276903,-0.3509575036240449
1682104755275388,1.5411612115663047,-0.22888532845047393,-1.144426642252256
1682104755291367,0.16784924086368846,0.16784924086368846,-2.182040131227609
1682104755307345,-0.3204394598305953,0.07629510948345342,-3.1586175326161765
1682104755323323,-2.0294499122605885,0.38147554741738077,-4.1962310215915295
1682104755339302,-0.8392462043183286,1.6632333867398756,-2.639810788128443
1682104755355280,-0.1373311970702389,2.7924010070954637,-1.144426642252256
1682104755371258,0.6866559853513081,2.97550926985582,-0.015259021896667946
1682104755387237,0.8392462043183286,3.372243839169869,0.93080033569845
1682104755403198,-0.16784924086368846,3.585870145723675,1.3580529488059483
1682104755419176,-0.9002822919051141,2.853437094682249,1.2970168612191628
1682104755435155,-1.3275349050126124,2.6703288319218927,1.5411612115663047
1682104755451133,-0.41199359121083035,2.1515220874341594,1.9989318684672526
1682104755467111,-2.5787747005416577,3.341725795376533,1.8768596932936816
1682104755483090,-1.846341649500232,3.097581445029391,1.846341649500232
1682104755499068,-0.93080033569845,3.4943160143434397,1.4496070801861833
1682104755515046,-0.2594033722438098,3.799496452277367,0.8087281605248791
1682104755531025,-0.16784924086368846,3.9520866712443876,0.2594033722438098
1682104755547003,-0.6866559853513081,3.768978408484031,-0.106813153276903
1682104755562981,-0.8392462043183286,3.2806897077897474,-0.19836728465702436
1682104755578960,-0.5645838101777372,3.1586175326161765,0.3509575036240449
1682104755594938,0.015259021896667946,2.5787747005416577,0.7782101167315432
1682104755610916,0.22888532845047393,1.7242694743266611,0.8697642481116645
1682104755626895,0.6866559853513081,1.7547875181201107,1.1139085984588064
1682104755642873,1.3275349050126124,1.5716792553597543,1.9073777370870175
1682104755658851,0.2594033722438098,2.182040131227609,2.2430762188143945
1682104755674830,-1.052872510872021,3.4027618829633184,2.548256656748322
1682104755690808,-0.8087281605248791,4.074158846417959,2.6092927443351073
1682104755706786,0.015259021896667946,4.470893415732007,1.937895780880467
1682104755722747,0.7782101167315432,3.7384603646905816,0.2899214160372594
1682104755738726,1.8768596932936816,2.731364919508678,-0.8087281605248791
1682104755754704,2.7924010070954637,2.7008468757152286,-1.2054627298390415
1682104755770682,10.208285648889841,2.334630350194516,-2.6092927443351073
1682104755786661,1.8158236057068962,3.372243839169869,-0.9613183794918996
1682104755802639,-0.41199359121083035,3.5248340581368893,-1.2970168612191628
1682104755818617,-0.41199359121083035,2.334630350194516,-1.7853055619134466
1682104755834596,-0.015259021896667946,2.059967956054038,-1.5411612115663047
1682104755850574,1.4190890363927338,1.5106431677729688,-0.93080033569845
1682104755866552,0.6866559853513081,1.968413824673803,-0.1373311970702389
1682104755882531,-0.106813153276903,1.5411612115663047,-0.3509575036240449
1682104755898509,-0.6561379415579722,1.4801251239795192,-0.6866559853513081
1682104755914487,-0.3509575036240449,1.4496070801861833,-1.2970168612191628
1682104755930466,1.144426642252256,0.9918364232852355,-1.6327153429465397
1682104755946444,1.6327153429465397,0.8697642481116645,-1.6327153429465397
1682104755962422,1.2359807736323773,0.4730296787976158,-2.182040131227609
1682104755978401,-0.5645838101777372,0.2594033722438098,-2.4872205691615363
1682104755994379,-1.7853055619134466,-0.5645838101777372,-2.4872205691615363
1682104756010357,-2.9144731822690346,-1.1139085984588064,-2.2735942626077303
1682104756026336,-2.731364919508678,-1.3275349050126124,-1.6937514305333252
1682104756042297,-2.2735942626077303,-0.9002822919051141,-1.9073777370870175
1682104756058275,-1.4801251239795192,-1.3580529488059483,-2.548256656748322
1682104756074254,0.16784924086368846,-2.334630350194516,-3.4943160143434397
1682104756090232,1.6937514305333252,-2.6092927443351073,-3.891050583657602
1682104756106210,1.7853055619134466,-2.6703288319218927,-4.013122758831173
1682104756122189,0.8697642481116645,-3.341725795376533,-3.921568627450938
1682104756138167,-0.5951018539711868,-3.7079423208972457,-3.372243839169869
1682104756154145,-0.7171740291447577,-4.1962310215915295,-3.097581445029391
1682104756170124,-1.3580529488059483,-4.1046768902112944,-3.219653620202962
1682104756186102,-1.3885709925993979,-4.501411459525457,-3.7384603646905816
1682104756202080,-0.5035477225909517,-4.257267109178315,-3.6163881895170107
1682104756218059,1.3275349050126124,-3.9520866712443876,-3.2806897077897474
1682104756234037,2.090485999847374,-3.585870145723675,-3.128099488822727
1682104756250015,1.3580529488059483,-3.8300144960708167,-3.555352101930225
1682104756265994,-0.3204394598305953,-3.9520866712443876,-4.013122758831173
1682104756281972,-1.1749446860455919,-3.7384603646905816,-4.043640802624509
1682104756297950,-1.2054627298390415,-3.6163881895170107,-4.074158846417959
1682104756313929,-1.9989318684672526,-3.5248340581368893,-4.409857328145222
1682104756329907,-1.6327153429465397,-4.745555809872599,-4.86762798504617
1682104756345885,-1.4190890363927338,-4.776073853665935,-4.623483634699028
1682104756361816,-1.144426642252256,-4.470893415732007,-3.6163881895170107
1682104756377794,-1.937895780880467,-3.585870145723675,-2.7924010070954637
1682104756393772,-2.7008468757152286,-3.463797970550104,-2.97550926985582
1682104756409750,-2.7008468757152286,-3.6163881895170107,-3.4943160143434397
1682104756425727,-1.3275349050126124,-3.799496452277367,-3.799496452277367
1682104756441705,-0.015259021896667946,-3.7079423208972457,-3.6469062333104603
1682104756457683,-0.38147554741738077,-3.219653620202962,-3.1586175326161765
1682104756473661,-2.212558175020945,-3.0365453574426056,-2.8229190508887996
1682104756489639,-4.1046768902112944,-3.0670634012359415,-3.128099488822727
1682104756505617,-4.135194934004744,-3.0670634012359415,-3.3112077515830833
1682104756521595,-2.6703288319218927,-2.9449912260623705,-3.250171663996298
1682104756537572,-1.2054627298390415,-2.8229190508887996,-2.883955138475585
1682104756553550,-0.7171740291447577,-3.097581445029391,-2.3651483939879654
1682104756569528,-1.5106431677729688,-3.463797970550104,-1.937895780880467
1682104756585506,-2.090485999847374,-3.891050583657602,-1.5716792553597543
1682104756601484,-3.585870145723675,-3.4943160143434397,-1.6021972991530902
1682104756617462,-4.043640802624509,-3.6163881895170107,-2.182040131227609
1682104756633440,-3.5248340581368893,-3.799496452277367,-2.4872205691615363
1682104756649418,-3.097581445029391,-3.219653620202962,-1.8768596932936816
1682104756665395,-2.3956664377813013,-3.6469062333104603,-1.846341649500232
1682104756681366,-1.1749446860455919,-4.745555809872599,-1.7853055619134466
1682104756697343,-1.3885709925993979,-4.592965590905578,-1.6632333867398756
1682104756713321,-2.639810788128443,-4.013122758831173,-1.6937514305333252
1682104756729299,-3.341725795376533,-3.128099488822727,-1.7853055619134466
1682104756745277,-1.968413824673803,-2.548256656748322,-1.7547875181201107
1682104756761255,0.3204394598305953,-2.426184481574751,-1.6632333867398756
1682104756777233,0.9613183794918996,-1.6632333867398756,-1.0833905546654705
1682104756793211,-0.2594033722438098,-1.022354467078685,-0.6866559853513081
1682104756809188,-1.5411612115663047,-1.2970168612191628,-0.7171740291447577
1682104756825166,-1.8768596932936816,-0.7171740291447577,-0.106813153276903
1682104756841144,-1.8158236057068962,0.6256198977645226,0.44251163500416624
1682104756857122,-1.5106431677729688,1.6937514305333252,0.41199359121083035
1682104756873100,-0.93080033569845,1.846341649500232,-0.22888532845047393
1682104756889078,0.19836728465702436,0.7476920729380936,-0.93080033569845
1682104756905056,0.16784924086368846,-0.5035477225909517,-1.2970168612191628
1682104756921033,-0.38147554741738077,-1.2054627298390415,-1.0833905546654705
1682104756937011,0.16784924086368846,-1.022354467078685,-0.106813153276903
1682104756952989,2.059967956054038,-0.44251163500416624,1.1139085984588064
1682104756968967,1.4801251239795192,1.4496070801861833,1.0833905546654705
1682104756984945,1.8158236057068962,1.7547875181201107,-0.5340657663844013
1682104757000915,3.0365453574426056,2.6092927443351073,-2.1210040436408235
1682104757016893,4.348821240558436,3.768978408484031,-3.1891355764095124
1682104757032871,5.53902494850081,4.1962310215915295,-4.043640802624509
1682104757048849,5.569542992294146,4.989700160219741,-3.8300144960708167
1682104757064827,4.379339284351886,5.996795605401644,-1.937895780880467
1682104757080804,4.16571297779808,6.424048218509142,-1.5716792553597543
1682104757096782,3.341725795376533,6.820782787823305,-1.4801251239795192
1682104757112760,3.250171663996298,6.607156481269499,-1.4496070801861833
1682104757128738,1.5106431677729688,6.515602349889377,0.5035477225909517
1682104757144716,-2.30411230640118,6.179903868162,2.2735942626077303
1682104757160694,-3.250171663996298,3.6163881895170107,2.548256656748322
1682104757176672,-2.97550926985582,1.6327153429465397,3.2806897077897474
1682104757192649,-2.6092927443351073,-0.2594033722438098,3.372243839169869
1682104757208627,-32.02868696116582,9.842069123369129,4.1962310215915295
1682104757224605,-56.626230258640476,21.56099794003194,4.776073853665935
1682104757240583,-67.27702754253448,30.13656824597524,7.3090714885175885
1682104757256561,-65.17128252079044,26.99320973525596,10.818646524757696
1682104757272539,-63.21812771801331,23.392080567635503,13.076981765468759
1682104757288517,-58.09109636072333,33.18837262531474,14.480811779964824
1682104757304494,-60.7156481269551,18.936446173800164,17.044327458609814
1682104757320434,-49.39345387960634,8.377203021286277,19.516289005874683
1682104757336412,-29.343099107347257,-3.1891355764095124,20.21820401312266
1682104757352390,-11.398489356832215,-13.046463721675423,17.38002594033719
1682104757368368,-4.135194934004744,-15.091172655832679,12.558175020981139
1682104757384346,-2.334630350194516,-13.717860685130063,6.424048218509142
1682104757400323,4.531929503318793,-13.565270466163042,2.6092927443351073
1682104757416301,14.69443808651863,-12.497138933394353,0.38147554741738077
1682104757432279,20.431830319676465,-9.201190203707938,-1.6937514305333252
1682104757448257,24.64332036316455,-6.637674525062948,-4.287785152971651
1682104757464235,28.061341268024535,-7.858396276798658,-1.0833905546654705
1682104757480213,32.30334935530641,-17.31898985275052,6.515602349889377
1682104757496191,34.28702220187688,-24.795910582131683,17.715724422064454
1682104757512169,28.183413443198106,-27.298390173189887,23.636224917982645
1682104757528146,26.41336690318144,-22.720683604180977,20.187685969329323
1682104757544124,19.94354161898218,-15.091172655832679,7.522697795071281
1682104757560102,9.29274433508806,-8.468757152666512,-0.1373311970702389
1682104757576080,1.968413824673803,-4.135194934004744,-3.1891355764095124
1682104757592058,1.266498817425827,-2.182040131227609,-5.722133211261166
1682104757608036,4.928664072632955,-3.799496452277367,-6.301976043335571
1682104757624014,10.63553826199734,-3.3112077515830833,-6.72922865644307
1682104757639984,22.78171969176765,-4.989700160219741,-11.001754787518053
1682104757655962,25.497825589379545,-2.761882963302014,-14.877546349278987
1682104757671939,18.265049210345524,1.1139085984588064,-17.380025940337305
1682104757687917,9.842069123369129,5.477988860914024,-18.966964217593727
1682104757703895,7.156481269550568,7.583733882658066,-18.20401312275885
1682104757719873,9.018081940947582,8.74341954680699,-16.586556801709094
1682104757735851,9.140154116121153,9.231708247501274,-13.626306553749828
1682104757751829,5.264362554360218,9.475852597848416,-10.849164568551146
1682104757767807,-0.9002822919051141,10.177767605096506,-7.248035400930803
1682104757783784,0.7782101167315432,6.820782787823305,-1.7853055619134466
1682104757799762,2.212558175020945,6.332494087129021,4.86762798504617
1682104757815740,2.761882963302014,8.22461280231937,13.656824597543277
1682104757831718,-4.043640802624509,4.928664072632955,19.424734874494447
1682104757847696,-6.088349736781879,-2.4567025253680868,21.652552071412174
1682104757863674,-7.919432364385443,-4.470893415732007,28.610666056305718
1682104757879652,-6.607156481269499,-8.07202258335235,38.25436789501805
1682104757895630,-4.074158846417959,-9.048599984740918,41.672388799878036
1682104757911607,-0.015259021896667946,-13.748378728923399,39.53612573434043
1682104757927585,3.921568627450938,-17.135881589990163,37.33882658121615
1682104757943563,9.231708247501274,-19.119554436560634,35.019455252918306
1682104757959533,15.091172655832679,-16.830701152056236,33.737697413595924
1682104757975511,19.24162661173409,-13.504234378576257,33.12733653772807
1682104757991489,13.290608072022565,-11.825741969939713,30.106050202181905
1682104758007467,5.844205386434737,-10.849164568551146,22.415503166246936
1682104758023445,-0.045777065690117524,-10.147249561303056,14.57236591134506
1682104758039423,-3.7384603646905816,-8.22461280231937,9.689478904402222
1682104758055400,-0.93080033569845,-8.407721065079727,6.118867780575215
1682104758071378,2.212558175020945,-7.675288014038301,3.250171663996298
1682104758087356,4.989700160219741,-10.75761043717091,-0.9613183794918996
1682104758103334,4.531929503318793,-13.99252307927054,-7.370107576104374
1682104758119312,3.097581445029391,-14.633401998931845,-12.863355458915066
1682104758135290,1.7547875181201107,-12.222476539253762,-14.02304112306399
1682104758151268,1.022354467078685,-8.499275196459848,-14.145113298237561
1682104758167245,-0.7782101167315432,-5.9357595178148586,-14.724956130311966
1682104758183223,-1.4496070801861833,-7.644769970244852,-16.06775005722136
1682104758199201,-1.6632333867398756,-9.842069123369129,-15.640497444113862
1682104758215179,-0.22888532845047393,-10.75761043717091,-13.382162203402686
1682104758231157,-0.9613183794918996,-9.353780422674845,-11.245899137865194
1682104758247135,-2.6092927443351073,-7.980468451972229,-10.08621347371627
1682104758263113,-6.698710612649734,-6.942854962996876,-11.33745326924543
1682104758279083,-11.703669794766142,-6.363012130922357,-13.565270466163042
1682104758295061,-13.168535896848994,-5.2338445105668825,-16.34241245136195
1682104758311039,-14.633401998931845,-1.5106431677729688,-17.56313420309766
1682104758327016,-7.217517357137353,-0.6256198977645226,-20.950637064164198
1682104758342994,-4.83710994125272,4.715037766079149,-19.05851834897385
1682104758358972,-0.4730296787976158,6.2714579995422355,-18.20401312275885
1682104758374950,-1.4496070801861833,9.903105210955914,-17.929350728618374
1682104758390928,-1.6632333867398756,13.534752422369706,-16.22034027618838
1682104758406906,-0.93080033569845,17.990386816205046,-10.78812848096436
1682104758422884,-1.4496070801861833,23.270008392461932,-2.4567025253680868
1682104758438861,-5.1117723353933116,26.596475165941683,6.607156481269499
1682104758454839,-9.99465934233615,26.626993209735247,13.046463721675423
1682104758470817,-13.534752422369706,26.474402990768112,16.6781109330891
1682104758486795,-12.13092240787364,25.131609063858832,17.01380941481648
1682104758502773,-8.77393759060044,22.90379186694122,14.57236591134506
1682104758518751,-5.53902494850081,20.035095750362302,10.055695429922935
1682104758534729,-3.585870145723675,17.318989852750406,6.424048218509142
1682104758550706,-2.853437094682249,15.426871137560056,3.372243839169869
1682104758566684,-3.219653620202962,14.267185473411132,1.1749446860455919
1682104758582662,-3.891050583657602,12.741283283741495,-1.0833905546654705
1682104758598602,-5.325398641947004,13.382162203402686,-1.4801251239795192
1682104758614579,-6.027313649195094,15.457389181353392,-0.38147554741738077
1682104758630557,-6.88181887541009,16.952773327229693,0.5645838101777372
1682104758646534,-5.447470817120575,16.15930418860148,0.8697642481116645
1682104758662511,-3.8605325398641526,15.304798962386485,0.41199359121083035
1682104758678489,-2.2430762188143945,14.602883955138395,-0.19836728465702436
1682104758694466,-0.3204394598305953,13.565270466163042,-1.1749446860455919
1682104758710444,1.1749446860455919,13.229571984435779,-1.9073777370870175
1682104758726421,2.761882963302014,11.33745326924543,-2.5177386129548722
1682104758742398,0.5035477225909517,9.689478904402222,-2.731364919508678
1682104758758376,-2.883955138475585,7.370107576104374,-1.5716792553597543
1682104758774353,-5.630579079880931,6.1493858243686645,0.93080033569845
1682104758790331,-6.118867780575215,6.21042191195545,5.661097123674381
1682104758806308,-10.727092393377575,10.055695429922935,14.175631342030897
1682104758822285,-14.938582436865772,12.68024719615471,19.638361181048253
1682104758838263,-20.035095750362416,11.215381094071859,25.345235370412638
1682104758854240,-35.38567177843902,11.825741969939713,28.67170214389239
1682104758870217,-42.95414663920042,8.926527809567347,29.465171282520714
1682104758886195,-30.960555428397015,4.470893415732007,28.305485618371677
1682104758902172,-11.276417181658644,-0.4730296787976158,25.436789501792873
1682104758918151,-0.4730296787976158,-4.16571297779808,19.24162661173409
1682104758934129,1.8768596932936816,-7.492179751277945,11.85626001373305
1682104758950106,-1.7547875181201107,-9.658960860608772,8.499275196459848
1682104758966084,-2.334630350194516,-9.658960860608772,4.623483634699028
1682104758982061,-0.9002822919051141,-5.0202182040130765,-0.5340657663844013
1682104758998038,2.5787747005416577,-1.4801251239795192,-0.93080033569845
1682104759014016,3.8300144960708167,2.548256656748322,-0.7476920729380936
1682104759029993,4.013122758831173,5.661097123674381,-3.0365453574426056
1682104759045971,6.0578316929884295,6.820782787823305,-4.348821240558436
1682104759061948,7.949950408178779,7.949950408178779,-4.86762798504617
1682104759077925,7.1869993133440175,8.1025406271458,-6.851300831616641
1682104759093903,4.470893415732007,8.1025406271458,-7.431143663691159
1682104759109880,-0.015259021896667946,9.44533455405508,-5.2338445105668825
1682104759125857,-2.853437094682249,10.818646524757696,-3.1586175326161765
1682104759141835,-3.555352101930225,10.879682612344482,-1.1749446860455919
1682104759157812,-1.4496070801861833,13.138017853055544,-0.2899214160372594
1682104759173790,-0.5340657663844013,14.358739604791253,-0.5340657663844013
1682104759189767,-4.562447547112242,14.480811779964824,-0.5340657663844013
1682104759205744,-12.619211108567924,14.69443808651863,-0.07629510948345342
1682104759221722,-15.121690699626129,14.938582436865772,0.6866559853513081
1682104759237701,-10.78812848096436,14.54184786755161,1.6327153429465397
1682104759253678,-7.55321583886473,13.473716334782921,1.6021972991530902
1682104759269656,-5.386434729533789,12.314030670633997,2.0294499122605885
1682104759285633,-3.3112077515830833,11.062790875104838,3.250171663996298
1682104759301611,-1.8768596932936816,9.99465934233615,3.8300144960708167
1682104759317588,-3.768978408484031,9.44533455405508,3.2806897077897474
1682104759333565,-4.989700160219741,8.62134737163342,2.7924010070954637
1682104759349543,-2.3651483939879654,7.064927138170447,1.4496070801861833
1682104759365520,2.212558175020945,5.264362554360218,-0.2594033722438098
1682104759381497,4.287785152971651,3.768978408484031,-1.4496070801861833
1682104759397475,4.562447547112242,2.2735942626077303,-3.341725795376533
1682104759413452,5.416952773327239,1.2054627298390415,-4.257267109178315
1682104759429430,6.393530174715806,0.2899214160372594,-4.348821240558436
1682104759445407,4.257267109178315,0.07629510948345342,-5.0202182040130765
1682104759461384,3.1586175326161765,-0.5340657663844013,-5.661097123674381
1682104759477362,5.325398641947004,-1.6632333867398756,-6.332494087129021
1682104759493339,7.461661707484495,-2.090485999847374,-7.888914320591994
1682104759509317,8.804455634393776,-2.97550926985582,-8.712901503013654
1682104759525294,6.88181887541009,-3.8605325398641526,-7.644769970244852
1682104759541271,3.219653620202962,-3.585870145723675,-6.698710612649734
1682104759557251,2.182040131227609,-3.5248340581368893,-5.844205386434737
1682104759573228,-0.015259021896667946,-3.7079423208972457,-5.905241474021523
1682104759589205,0.7782101167315432,-3.891050583657602,-6.118867780575215
1682104759605183,4.623483634699028,-3.8300144960708167,-6.942854962996876
1682104759621160,3.921568627450938,-3.372243839169869,-7.736324101625087
1682104759637138,0.3204394598305953,-2.9449912260623705,-6.790264744029855
1682104759653115,2.212558175020945,-3.4332799267566543,-5.355916685740453
1682104759669092,6.21042191195545,-4.226749065384865,-4.1962310215915295
1682104759685070,6.637674525062948,-4.287785152971651,-4.470893415732007
1682104759701047,3.7384603646905816,-4.3183031967651,-5.53902494850081
1682104759717024,5.783169298847952,-4.654001678492364,-6.179903868162
1682104759733002,8.316166933699492,-5.081254291599862,-6.240939955748786
1682104759748979,4.86762798504617,-4.379339284351886,-7.0954451819637825
1682104759764957,-1.052872510872021,-3.341725795376533,-7.858396276798658
1682104759780934,-0.9002822919051141,-2.97550926985582,-7.461661707484495
1682104759796911,3.9520866712443876,-3.555352101930225,-6.759746700236519
1682104759812889,6.912336919203426,-3.768978408484031,-6.790264744029855
1682104759828866,6.576638437476163,-3.921568627450938,-6.576638437476163
1682104759844843,6.668192568856284,-4.562447547112242,-6.21042191195545
1682104759860821,6.027313649195094,-5.172808422980097,-5.783169298847952
1682104759876770,1.7242694743266611,-4.592965590905578,-5.081254291599862
1682104759892747,-2.3651483939879654,-3.7079423208972457,-4.379339284351886
1682104759908724,-0.1373311970702389,-3.2806897077897474,-3.585870145723675
1682104759924702,3.891050583657602,-3.921568627450938,-3.0365453574426056
1682104759940679,4.013122758831173,-4.135194934004744,-3.1891355764095124
1682104759956657,0.7782101167315432,-4.013122758831173,-3.891050583657602
1682104759972634,-1.1749446860455919,-4.1962310215915295,-4.074158846417959
1682104759988611,-0.8087281605248791,-4.226749065384865,-3.585870145723675
1682104760004589,-0.8392462043183286,-3.677424277103796,-3.128099488822727
1682104760020566,-1.052872510872021,-3.555352101930225,-3.097581445029391
1682104760036543,-1.3885709925993979,-4.135194934004744,-3.4027618829633184
1682104760052521,-3.0365453574426056,-4.1962310215915295,-3.585870145723675
1682104760068498,-3.128099488822727,-3.9826047150377235,-3.2806897077897474
1682104760084476,1.144426642252256,-4.1962310215915295,-2.4567025253680868
1682104760100453,3.5248340581368893,-3.9520866712443876,-1.9073777370870175
1682104760116430,1.5411612115663047,-3.4943160143434397,-1.6021972991530902
1682104760132408,-2.5177386129548722,-3.9520866712443876,-2.0294499122605885
1682104760148385,-5.477988860914024,-4.928664072632955,-2.7008468757152286
1682104760164363,-4.806591897459384,-6.942854962996876,-2.2430762188143945
1682104760180340,-3.3112077515830833,-9.56740672922865,-1.052872510872021
1682104760196319,-2.4567025253680868,-12.222476539253762,0.045777065690117524
1682104760212297,-4.86762798504617,-17.31898985275052,0.8392462043183286
1682104760228274,-26.291294728007983,-21.133745326924554,-0.6256198977645226
1682104760244251,-65.29335469596401,-28.397039749752025,0.6256198977645226
1682104760260229,-102.95262073701076,-14.999618524452558,-4.135194934004744
1682104760276206,-98.71061264972911,-0.22888532845047393,-3.4943160143434397
1682104760292184,-80.33875028610669,2.639810788128443,1.2054627298390415
1682104760308161,-39.96337834744793,-22.629129472800855,6.851300831616641
1682104760324138,-15.396353093766606,-45.365072098878386,19.424734874494447
1682104760340116,-20.40131227588313,-53.42183566033418,32.30334935530641
1682104760356093,-36.17914091706723,-57.053482871747974,41.82497901884494
1682104760372070,-41.336690318150545,-65.29335469596401,48.50843060959801
1682104760388048,-37.91866941329056,-76.76813916227968,52.81147478446633
1682104760404025,-27.420462348363458,-89.67727168688486,53.54390783550775
1682104760420003,-15.21324483100625,-91.56939040207521,46.4332036316473
1682104760435980,-9.201190203707938,-97.21522850385293,38.52903028915853
1682104760451957,-5.264362554360218,-91.02006561379415,26.596475165941683
1682104760467935,-6.0578316929884295,-80.18616006713978,13.99252307927054
1682104760483912,-9.109636072327703,-68.2841229877165,3.5248340581368893
1682104760499889,-9.323262378881509,-58.396276798657254,-4.745555809872599
1682104760515869,-6.088349736781879,-50.91935606927598,-11.245899137865194
1682104760531846,-3.128099488822727,-42.86259250782018,-15.884641794461004
1682104760547824,-3.3112077515830833,-35.446707866025804,-17.624170290684447
1682104760563801,-8.834973678187225,-29.12947280079345,-15.793087663080883
1682104760579778,-16.86121919584957,-23.78881513694978,-10.360875867856862
1682104760595756,-18.265049210345637,-23.23949034866871,-3.128099488822727
1682104760611733,-11.184863050278409,-29.617761501487735,4.409857328145222
1682104760627710,-12.924391546501852,-28.36652170595869,8.987563897154132
1682104760643688,-20.950637064164198,-16.586556801709094,7.125963225757232
1682104760659665,-19.97405966277563,-20.889600976577412,11.917296101319835
1682104760675643,-8.133058670939135,-19.028000305180512,9.689478904402222
1682104760691620,3.4943160143434397,-13.260090028229115,2.6703288319218927
1682104760707597,14.54184786755161,-18.997482261387063,-4.409857328145222
1682104760723575,19.729915312428375,-14.66392004272518,-7.949950408178779
1682104760739552,22.50705729762717,-7.919432364385443,-10.208285648889841
1682104760755530,25.040054932478824,-2.548256656748322,-9.018081940947582
1682104760771507,26.53543907835501,2.4567025253680868,-10.238803692683291
1682104760787484,20.035095750362302,10.574502174410554,-15.823605706874218
1682104760803462,14.145113298237561,15.21324483100625,-16.952773327229806
1682104760819439,18.814373998626593,11.734187838559478,-10.727092393377575
1682104760835388,27.145799954222866,3.1891355764095124,-1.1749446860455919
1682104760851365,27.664606698710486,4.898146028839506,-0.19836728465702436
1682104760867343,24.277103837643836,11.245899137865194,-1.8768596932936816
1682104760883320,21.04219119554432,18.44815747310588,-4.013122758831173
1682104760899297,13.595788509956492,25.314717326619302,-4.074158846417959
1682104760915275,7.370107576104374,28.610666056305718,-1.144426642252256
1682104760931252,4.776073853665935,29.709315632867856,3.4332799267566543
1682104760947229,9.506370641641865,26.474402990768112,3.677424277103796
1682104760963207,11.001754787518053,27.664606698710486,0.9002822919051141
1682104760979184,21.988250553139437,27.51201647974358,-2.548256656748322
1682104760995162,34.62272068360426,26.657511253528583,-7.0954451819637825
1682104761011139,40.63477531090257,26.93217364766906,-8.926527809567347
1682104761027116,40.39063096055543,27.63408865491715,-9.201190203707938
1682104761043094,38.95628290226614,27.786678873884057,-11.30693522545198
1682104761059071,38.467994201571855,26.41336690318144,-16.09826810101481
1682104761075049,43.99176012817588,22.26291294728003,-22.4460212100405
1682104761091026,45.67025253681254,14.175631342030897,-22.69016556038764
1682104761107003,36.08758678568711,7.339589532310924,-9.170672159914488
1682104761122981,35.56878004119949,8.590829327840083,3.7079423208972457
1682104761138958,44.69367513542397,11.825741969939713,7.40062561989771
1682104761154907,45.60921644922564,2.6092927443351073,2.9449912260623705
1682104761170884,43.10673685816755,-3.8300144960708167,-11.062790875104838
1682104761186862,49.60708018616015,-16.433966582742073,-23.971923399710136
1682104761202839,50.76676585030896,-19.516289005874796,-29.373617151140593
1682104761218816,52.32318608377204,-2.7924010070954637,-28.274967574578454
1682104761234794,38.864728770885904,17.196917677576835,-15.762569619287433
1682104761250771,29.67879758907452,30.01449607080167,-14.358739604791253
1682104761266749,11.703669794766142,38.25436789501805,-14.816510261692201
1682104761282726,2.7924010070954637,38.712138551919,-15.274280918593035
1682104761298703,7.522697795071281,36.423285267414485,-13.107499809262208
1682104761314681,9.018081940947582,35.23308155947211,-10.025177386129485
1682104761330658,4.83710994125272,34.256504158083544,-7.583733882658066
1682104761346635,1.1749446860455919,34.561684596017585,-6.72922865644307
1682104761362613,3.8300144960708167,31.38780804150474,-6.393530174715806
1682104761378590,3.8605325398641526,26.23025864042097,-5.569542992294146
1682104761394568,2.9449912260623705,19.24162661173409,-5.0202182040130765
1682104761410545,3.921568627450938,15.152208743419465,-4.745555809872599
1682104761426522,6.088349736781879,14.114595254444112,-2.3956664377813013
1682104761442500,11.642633707179357,14.66392004272518,-1.5106431677729688
1682104761458477,14.389257648584703,16.250858319981603,-2.4567025253680868
1682104761474456,11.276417181658644,18.783855954833257,-2.2735942626077303
1682104761490434,8.163576714732585,21.01167315175087,-1.3275349050126124
1682104761506411,6.851300831616641,22.35446707866015,-0.7171740291447577
1682104761522389,6.668192568856284,21.774624246585745,-0.8392462043183286
1682104761538366,4.531929503318793,21.194781414511226,-0.5035477225909517
1682104761554343,7.766842145418423,19.607843137254804,-0.38147554741738077
1682104761570321,10.482948043030433,17.92935072861826,-0.6256198977645226
1682104761586298,7.034409094376997,16.861219195849458,-1.3885709925993979
1682104761602275,3.4943160143434397,15.21324483100625,-1.6021972991530902
1682104761618253,0.5951018539711868,13.015945677881973,-1.1139085984588064
1682104761634230,-0.2594033722438098,11.184863050278409,-0.7476920729380936
1682104761650208,2.334630350194516,9.842069123369129,-1.6021972991530902
1682104761666185,4.226749065384865,8.834973678187225,-3.372243839169869
1682104761682162,5.172808422980097,8.926527809567347,-5.447470817120575
1682104761698140,5.9357595178148586,8.651865415426869,-6.363012130922357
1682104761714117,6.546120393682713,7.431143663691159,-6.240939955748786
1682104761730095,5.203326466773433,5.630579079880931,-5.0202182040130765
1682104761746072,4.776073853665935,3.219653620202962,-2.9449912260623705
1682104761762049,6.637674525062948,0.5645838101777372,-0.5340657663844013
1682104761778027,8.987563897154132,-1.2054627298390415,1.266498817425827
1682104761794006,11.520561532005786,-2.090485999847374,1.5411612115663047
1682104761809983,11.886778057526499,-1.937895780880467,0.7782101167315432
1682104761825961,10.574502174410554,-1.4801251239795192,-0.16784924086368846
1682104761841938,8.865491721980561,-1.4190890363927338,-0.8087281605248791
1682104761857916,8.865491721980561,-2.426184481574751,-0.9613183794918996
1682104761873893,8.804455634393776,-3.555352101930225,-0.41199359121083035
1682104761889870,9.41481651026163,-4.806591897459384,-0.07629510948345342
1682104761905848,11.123826962691624,-5.996795605401644,-0.106813153276903
1682104761921825,12.252994583047212,-6.332494087129021,-0.6256198977645226
1682104761937802,12.00885023270007,-6.179903868162,-1.4801251239795192
1682104761953780,11.276417181658644,-6.576638437476163,-2.334630350194516
1682104761969757,13.99252307927054,-6.820782787823305,-3.799496452277367
1682104761985735,9.811551079575793,-6.027313649195094,-4.257267109178315
1682104762001712,6.301976043335571,-5.1117723353933116,-4.928664072632955
1682104762017689,6.637674525062948,-2.4567025253680868,-4.470893415732007
1682104762033667,5.783169298847952,-0.5645838101777372,-3.5248340581368893
1682104762049644,4.562447547112242,0.3509575036240449,-1.846341649500232
1682104762065621,4.959182116426291,0.5645838101777372,-0.3509575036240449
1682104762081599,6.546120393682713,0.16784924086368846,0.38147554741738077
1682104762097576,8.377203021286277,-0.5035477225909517,0.7782101167315432
1682104762113556,7.614251926451516,-0.5645838101777372,1.1749446860455919
1682104762129533,6.851300831616641,-0.93080033569845,1.8768596932936816
1682104762145510,7.125963225757232,-1.5411612115663047,2.4872205691615363
1682104762161488,6.179903868162,-2.059967956054038,2.883955138475585
1682104762177465,5.477988860914024,-2.334630350194516,1.937895780880467
1682104762193442,4.776073853665935,-2.731364919508678,0.3509575036240449
1682104762209420,5.905241474021523,-3.341725795376533,-1.2359807736323773
1682104762225397,5.996795605401644,-3.585870145723675,-2.8229190508887996
1682104762241375,4.013122758831173,-3.4027618829633184,-3.768978408484031
1682104762257352,1.5106431677729688,-3.372243839169869,-4.440375371938671
1682104762273329,0.44251163500416624,-3.891050583657602,-5.172808422980097
1682104762289307,-0.5951018539711868,-4.654001678492364,-6.2714579995422355
1682104762305284,-0.93080033569845,-5.386434729533789,-7.583733882658066
1682104762321262,0.7782101167315432,-6.546120393682713,-8.834973678187225
1682104762337239,5.264362554360218,-7.980468451972229,-9.872587167162578
1682104762353216,7.492179751277945,-8.346684977492941,-10.66605630579079
1682104762369194,6.454566262302592,-7.461661707484495,-11.032272831311502
1682104762385171,3.585870145723675,-5.996795605401644,-10.421911955443647
1682104762401148,-0.41199359121083035,-4.83710994125272,-8.560311284046634
1682104762417126,-3.219653620202962,-4.226749065384865,-6.088349736781879
1682104762433075,-4.074158846417959,-4.86762798504617,-3.8605325398641526
1682104762449052,-3.5248340581368893,-6.179903868162,-2.7008468757152286
1682104762465029,-1.4801251239795192,-7.705806057831637,-2.2735942626077303
1682104762481007,-0.5340657663844013,-8.07202258335235,-2.7008468757152286
1682104762496984,-1.1139085984588064,-7.339589532310924,-3.4943160143434397
1682104762512961,-0.6256198977645226,-6.2714579995422355,-4.013122758831173
1682104762528939,-3.341725795376533,-3.4027618829633184,-3.768978408484031
1682104762544916,-2.639810788128443,-4.379339284351886,-3.555352101930225
1682104762560894,-0.8392462043183286,-5.752651255054502,-3.4943160143434397
1682104762576871,-0.38147554741738077,-6.485084306095928,-3.7384603646905816
1682104762592848,-0.2594033722438098,-7.034409094376997,-4.409857328145222
1682104762608826,0.6866559853513081,-7.949950408178779,-5.1117723353933116
1682104762624803,0.19836728465702436,-8.438239108873063,-5.1117723353933116
1682104762640781,-1.0833905546654705,-8.865491721980561,-4.959182116426291
1682104762656758,-1.4801251239795192,-9.658960860608772,-4.989700160219741
1682104762672735,-0.38147554741738077,-9.475852597848416,-5.081254291599862
1682104762688713,3.128099488822727,-11.33745326924543,-5.53902494850081
1682104762704690,1.8158236057068962,-9.9641412985427,-5.905241474021523
1682104762720667,0.16784924086368846,-8.22461280231937,-5.691615167467717
1682104762736645,-0.44251163500416624,-6.698710612649734,-4.86762798504617
1682104762752624,-1.4801251239795192,-5.081254291599862,-3.4027618829633184
1682104762768602,-2.0294499122605885,-4.135194934004744,-1.5411612115663047
1682104762784579,-2.2735942626077303,-4.287785152971651,0.6561379415579722
1682104762800556,-0.7782101167315432,-4.531929503318793,2.212558175020945
1682104762816534,1.7853055619134466,-4.348821240558436,2.9449912260623705
1682104762832511,4.074158846417959,-3.585870145723675,3.1586175326161765
1682104762848488,1.937895780880467,-0.93080033569845,3.6469062333104603
1682104762864466,-3.0670634012359415,1.5411612115663047,4.623483634699028
1682104762880443,-4.16571297779808,2.7924010070954637,6.21042191195545
1682104762896421,-3.9520866712443876,4.287785152971651,7.644769970244852
1682104762912398,-3.1891355764095124,5.691615167467717,9.353780422674845
1682104762928375,-3.0670634012359415,7.583733882658066,11.123826962691624
1682104762944353,-5.0202182040130765,11.581597619592571,12.832837415121617
1682104762960330,-4.684519722285813,11.703669794766142,13.107499809262208
1682104762976307,-4.898146028839506,13.748378728923399,13.35164415960935
1682104762992285,-4.83710994125272,16.098268101014696,13.35164415960935
1682104763008262,-6.2714579995422355,18.295567254138973,13.595788509956492
1682104763024240,-4.654001678492364,18.204013122758738,14.02304112306399
1682104763040217,-4.013122758831173,18.631265735866236,14.267185473411132
1682104763056194,-5.203326466773433,18.87541008621338,13.687342641336613
1682104763072174,-6.2714579995422355,19.485770962081233,11.97833218890662
1682104763088151,-7.40062561989771,20.49286640726325,10.543984130617218
1682104763104128,-7.705806057831637,21.316853589684797,9.99465934233615
1682104763120106,-6.820782787823305,20.8896009765773,9.140154116121153
1682104763136083,-7.705806057831637,20.553902494850036,7.3090714885175885
1682104763152061,-5.874723430228073,19.54680704966802,5.477988860914024
1682104763168038,-3.341725795376533,18.204013122758738,4.1962310215915295
1682104763184015,-1.1749446860455919,17.746242465857904,4.257267109178315
1682104763199993,-0.07629510948345342,17.89883268482481,4.440375371938671
1682104763215970,-2.7924010070954637,20.096131837949088,6.21042191195545
1682104763231948,-7.0954451819637825,22.415503166246936,8.438239108873063
1682104763247925,-11.032272831311502,24.979018844891925,11.42900740062555
1682104763263902,-12.893873502708402,25.497825589379545,14.724956130311966
1682104763279880,-8.07202258335235,23.788815136949665,16.98329137102303
1682104763295857,-1.266498817425827,19.82146944380861,19.24162661173409
1682104763311834,-2.059967956054038,16.55603875791553,22.446021210040385
1682104763327812,2.2735942626077303,12.741283283741495,24.88746471351169
1682104763343789,5.722133211261166,10.177767605096506,26.596475165941683
1682104763359767,6.301976043335571,7.614251926451516,29.831387808041427
1682104763375744,3.9520866712443876,6.515602349889377,32.88319218738093
1682104763391723,2.97550926985582,5.2338445105668825,35.96551461051354
1682104763407701,8.377203021286277,3.463797970550104,37.7965972381171
1682104763423678,7.1869993133440175,3.799496452277367,39.96337834744804
1682104763439655,8.865491721980561,4.562447547112242,40.848401617456375
1682104763455633,4.409857328145222,8.865491721980561,40.69581139848947
1682104763471610,7.736324101625087,11.184863050278409,40.23804074158852
1682104763487588,10.11673151750972,14.450293736171488,39.108873121233046
1682104763503565,11.612115663385907,18.05142290379183,37.94918745708401
1682104763519542,5.416952773327239,22.690165560387527,38.345922026398284
1682104763535520,5.630579079880931,24.76539253833812,36.48432135500116
1682104763551497,3.1891355764095124,26.99320973525596,34.775310902571164
1682104763567474,1.7853055619134466,27.786678873884057,32.82215609979403
1682104763583452,0.16784924086368846,27.725642786297385,30.44174868390928
1682104763599429,0.19836728465702436,25.864042114900258,28.244449530785005
1682104763615407,-1.022354467078685,24.55176623178454,26.504921034561676
1682104763631384,-0.015259021896667946,22.446021210040385,25.223163195239067
1682104763647361,2.639810788128443,19.82146944380861,23.514152742809074
1682104763663339,3.372243839169869,18.6007476920729,21.316853589684797
1682104763679316,3.891050583657602,17.38002594033719,18.936446173800164
1682104763695294,-2.4567025253680868,18.753337911039807,17.65468833447767
1682104763711242,-1.8158236057068962,17.959868772411596,15.426871137560056
1682104763727220,-2.8229190508887996,17.502098115510762,12.64972915236126
1682104763743197,-3.219653620202962,17.1053635461966,10.818646524757696
1682104763759174,-5.203326466773433,16.43396658274196,9.41481651026163
1682104763775152,-7.888914320591994,16.00671396963446,8.346684977492941
1682104763791129,-7.55321583886473,14.999618524452558,7.003891050583661
1682104763807107,-4.562447547112242,13.168535896848994,5.203326466773433
1682104763823084,-3.0670634012359415,11.367971313038765,2.8229190508887996
1682104763839061,-1.9989318684672526,8.957045853360796,0.22888532845047393
1682104763855039,-1.3580529488059483,6.332494087129021,-2.334630350194516
1682104763871016,-2.1515220874341594,4.1046768902112944,-4.806591897459384
1682104763886994,-2.212558175020945,1.6937514305333252,-6.118867780575215
1682104763902971,-0.5951018539711868,-0.6256198977645226,-7.461661707484495
1682104763918948,2.0294499122605885,-2.212558175020945,-9.781033035782343
1682104763934926,5.172808422980097,-3.463797970550104,-12.863355458915066
1682104763950903,5.813687342641288,-3.799496452277367,-15.884641794461004
1682104763966880,7.675288014038301,-4.806591897459384,-18.387121385519208
1682104763982858,9.628442816815436,-5.996795605401644,-20.340276188296343
1682104763998835,7.675288014038301,-6.820782787823305,-21.31685358968491
1682104764014813,4.959182116426291,-7.614251926451516,-21.591515983825502
1682104764030792,2.97550926985582,-8.74341954680699,-21.530479896238717
1682104764046769,3.463797970550104,-9.933623254749364,-21.835660334172644
1682104764062747,5.996795605401644,-11.215381094071859,-22.720683604180977
1682104764078724,7.217517357137353,-11.703669794766142,-23.36156252384228
1682104764094701,4.562447547112242,-11.032272831311502,-24.00244144350347
1682104764110679,2.30411230640118,-10.391393911650198,-24.216067750057277
1682104764126656,2.090485999847374,-10.605020218204004,-24.277103837644063
1682104764142634,3.7079423208972457,-10.940718699931267,-23.941405355916686
1682104764158611,4.745555809872599,-10.849164568551146,-22.96482795452812
1682104764174588,4.83710994125272,-10.543984130617218,-21.74410620279241
1682104764190566,5.2338445105668825,-10.482948043030433,-20.584420538643485
1682104764206543,5.447470817120575,-10.360875867856862,-19.546807049668132
1682104764222520,3.4943160143434397,-9.44533455405508,-18.478675516899443
1682104764238498,0.7171740291447577,-8.1025406271458,-17.380025940337305
1682104764254475,-1.2970168612191628,-7.3090714885175885,-16.281376363775166
1682104764270453,-2.639810788128443,-6.607156481269499,-15.36583504997327
1682104764286430,-1.6327153429465397,-6.546120393682713,-14.877546349278987
1682104764302407,-1.3580529488059483,-5.661097123674381,-15.060654612039343
1682104764318385,-1.2359807736323773,-4.135194934004744,-15.518425268940177
1682104764334362,-0.3509575036240449,-2.853437094682249,-15.579461356526963
1682104764350341,2.212558175020945,-2.761882963302014,-14.724956130311966
1682104764366319,4.3183031967651,-3.768978408484031,-13.290608072022565
1682104764382296,0.7782101167315432,-3.3112077515830833,-11.97833218890662
1682104764398274,-3.768978408484031,-2.761882963302014,-11.093308918898288
1682104764414251,-5.2338445105668825,-2.548256656748322,-10.574502174410554
1682104764430228,-3.8605325398641526,-2.2735942626077303,-11.062790875104838
1682104764446206,-0.3204394598305953,-2.3956664377813013,-12.344548714427333
1682104764462183,0.9002822919051141,-2.0294499122605885,-14.053559166857326
1682104764478160,-2.090485999847374,-0.7476920729380936,-15.884641794461004
1682104764494138,-8.22461280231937,1.052872510872021,-15.915159838254453
1682104764510115,-3.799496452277367,-2.7008468757152286,-15.762569619287433
1682104764526093,-1.846341649500232,-5.569542992294146,-15.457389181353392
1682104764542070,-0.7782101167315432,-7.461661707484495,-15.030136568245894
1682104764558047,-1.9073777370870175,-8.22461280231937,-14.450293736171488
1682104764574025,-2.853437094682249,-9.079118028534367,-13.748378728923399
1682104764590002,-3.921568627450938,-9.658960860608772,-12.985427634088637
1682104764605980,-4.379339284351886,-9.536888685435201,-12.375066758220783
1682104764621957,-4.135194934004744,-8.438239108873063,-12.314030670633997
1682104764637934,-5.874723430228073,-6.1493858243686645,-12.710765239948046
1682104764653912,-5.905241474021523,-4.043640802624509,-13.839932860303634
1682104764669891,-4.074158846417959,-2.2735942626077303,-15.426871137560056
1682104764685868,-3.097581445029391,-0.6256198977645226,-16.830701152056236
1682104764701846,-3.768978408484031,0.41199359121083035,-17.349507896543855
1682104764717823,-3.9520866712443876,0.44251163500416624,-16.983291371023142
1682104764733801,-1.937895780880467,-0.8392462043183286,-16.09826810101481
1682104764749778,1.846341649500232,-3.128099488822727,-14.57236591134506
1682104764765755,3.7384603646905816,-4.83710994125272,-13.076981765468759
1682104764781733,2.853437094682249,-5.477988860914024,-11.520561532005786
1682104764797710,1.9989318684672526,-5.813687342641288,-9.9641412985427
1682104764813687,2.4872205691615363,-6.485084306095928,-8.377203021286277
1682104764829665,1.052872510872021,-6.607156481269499,-6.759746700236519
1682104764845642,-0.9613183794918996,-6.240939955748786,-5.416952773327239
1682104764861620,-2.3956664377813013,-5.477988860914024,-4.379339284351886
1682104764877597,-2.761882963302014,-4.348821240558436,-3.9520866712443876
1682104764893574,-3.250171663996298,-3.006027313649156,-3.891050583657602
1682104764909552,-3.463797970550104,-1.9073777370870175,-4.1962310215915295
1682104764925529,-2.7924010070954637,-0.41199359121083035,-3.8300144960708167
1682104764941506,-2.9449912260623705,0.106813153276903,-3.463797970550104
1682104764957484,-2.426184481574751,0.106813153276903,-2.97550926985582
1682104764973461,-2.639810788128443,0.1373311970702389,-2.853437094682249
1682104764989380,-3.6163881895170107,-0.106813153276903,-2.548256656748322
1682104765005356,-2.548256656748322,-1.4496070801861833,-2.30411230640118
1682104765021333,-1.4190890363927338,-3.0670634012359415,-2.30411230640118
1682104765037310,-0.7782101167315432,-4.898146028839506,-2.6092927443351073
1682104765053287,-1.1749446860455919,-4.928664072632955,-2.212558175020945
1682104765069264,-2.97550926985582,-4.257267109178315,-2.8229190508887996
1682104765085241,-1.1139085984588064,-4.928664072632955,-3.4027618829633184
1682104765101218,0.3204394598305953,-5.203326466773433,-3.9520866712443876
1682104765117195,0.5951018539711868,-5.1117723353933116,-4.898146028839506
1682104765133172,1.2970168612191628,-5.386434729533789,-5.661097123674381
1682104765149149,2.3651483939879654,-5.844205386434737,-6.1493858243686645
1682104765165125,3.463797970550104,-6.1493858243686645,-6.424048218509142
1682104765181102,4.1046768902112944,-6.301976043335571,-6.485084306095928
1682104765197079,3.585870145723675,-5.905241474021523,-6.759746700236519
1682104765213056,2.3956664377813013,-5.172808422980097,-6.72922865644307
1682104765229033,2.059967956054038,-4.898146028839506,-6.332494087129021
1682104765245010,2.97550926985582,-5.0202182040130765,-6.088349736781879
1682104765260987,4.531929503318793,-5.2338445105668825,-5.844205386434737
1682104765276964,6.0578316929884295,-5.386434729533789,-5.53902494850081
1682104765292941,4.379339284351886,-4.684519722285813,-5.355916685740453
1682104765308929,0.7171740291447577,-3.250171663996298,-5.142290379186647
1682104765324906,-1.937895780880467,-2.3651483939879654,-4.440375371938671
1682104765340883,-0.07629510948345342,-2.30411230640118,-3.372243839169869
1682104765356860,2.97550926985582,-2.4872205691615363,-2.426184481574751
1682104765372837,2.1210040436408235,-1.4801251239795192,-2.3651483939879654
1682104765388814,0.7476920729380936,-0.5645838101777372,-2.090485999847374
1682104765404791,0.7171740291447577,-0.41199359121083035,-1.3885709925993979
1682104765420767,-0.045777065690117524,-0.045777065690117524,-1.052872510872021
1682104765436744,0.8392462043183286,0.44251163500416624,-0.5645838101777372
1682104765452721,3.0670634012359415,1.4496070801861833,-0.2594033722438098
1682104765468698,4.959182116426291,2.4872205691615363,-0.045777065690117524
1682104765484675,2.3651483939879654,6.607156481269499,0.8392462043183286
1682104765500652,-4.287785152971651,9.41481651026163,3.555352101930225
1682104765516629,-6.912336919203426,5.844205386434737,5.2338445105668825
1682104765532606,-4.928664072632955,3.7079423208972457,4.928664072632955
1682104765548583,-11.764705882352928,-1.7853055619134466,6.790264744029855
1682104765564560,-5.996795605401644,-0.38147554741738077,5.477988860914024
1682104765580536,-7.980468451972229,0.38147554741738077,4.806591897459384
1682104765596513,-30.014496070801897,2.8229190508887996,16.739147020675887
1682104765612490,-34.65323872739759,5.0202182040130765,22.110322728313008
1682104765628479,-33.9513237201495,7.675288014038301,21.83566033417253
1682104765644456,-47.592889295796226,11.764705882352928,27.969787136644527
1682104765660432,-42.40482185091935,20.4623483634698,22.751201647974312
1682104765676409,-28.976882581826544,8.590829327840083,15.88464179446089
1682104765692386,-17.83779659723814,2.2735942626077303,11.490043488212336
1682104765708363,-21.957732509346215,1.6021972991530902,11.673151750972693
1682104765724340,-30.655374990463088,5.600061036087595,21.377889677271583
1682104765740317,-56.68726634622726,20.645456626230157,24.521248187990977
1682104765756294,-8.651865415426869,1.6327153429465397,23.941405355916572
1682104765772271,9.29274433508806,-0.8697642481116645,24.155031662470265
1682104765788248,9.933623254749364,-11.093308918898288,34.0733958953233
1682104765804225,20.37079423208968,-15.457389181353392,33.035782406347835
1682104765820201,17.38002594033719,-38.803692683299005,39.59716182192733
1682104765836178,30.563820859082853,-34.744792858777714,48.59998474097824
1682104765852155,11.184863050278409,-16.22034027618838,53.208209353780376
1682104765868132,-11.886778057526499,-7.858396276798658,67.03288319218746
1682104765884109,-14.02304112306399,-5.203326466773433,75.66948958571743
1682104765900086,-11.154345006485073,-0.41199359121083035,82.71915770199121
1682104765916063,1.2359807736323773,-9.872587167162578,95.9029526207371
1682104765932040,6.820782787823305,-13.35164415960935,108.96467536430919
1682104765948028,3.768978408484031,-3.9826047150377235,126.14633401998935
1682104765964005,-5.050736247806526,4.531929503318793,127.88586251621268
1682104765979982,-14.297703517204468,5.386434729533789,129.625391012436
1682104765995959,-15.915159838254453,-1.9073777370870175,128.0384527351796
1682104766011936,-17.380025940337305,9.201190203707938,131.63958190280005
1682104766027913,-36.57587548638128,23.544670786602524,123.97955291065841
1682104766043890,-32.57801174944689,31.174181734950707,136.58350499732956
1682104766059867,-13.504234378576257,51.071946288243,134.9660486762798
1682104766075843,-18.966964217593727,59.52544441901273,155.35210193026614
1682104766091820,-5.874723430228073,44.66315709163041,161.1505302510111
1682104766107797,-7.522697795071281,32.88319218738093,153.06324864576163
1682104766123774,-13.229571984435779,25.833524071106922,153.70412756542305
1682104766139751,-13.931486991683755,23.392080567635503,148.51606012054617
1682104766155728,-17.593652246890997,23.361562523842167,147.81414511329808
1682104766171705,-13.656824597543277,25.101091020065496,145.6168459601738
1682104766187682,-5.996795605401644,20.798046845197177,142.71763179980167
1682104766203659,5.0202182040130765,14.785992217898752,145.0370031280995
1682104766219636,5.630579079880931,24.155031662470265,152.51392385748068
1682104766235612,10.66605630579079,37.61348897535686,156.38971541924184
1682104766251589,20.675974670023606,47.80651560234992,144.6097505149919
1682104766267547,24.185549706263828,57.175555046921545,131.3954375524529
1682104766283524,30.380712596322383,64.22522316319532,126.17685206378269
1682104766299501,36.545357442588056,71.61058976119625,123.3997100785839
1682104766315478,38.49851224536519,76.98176546883337,124.31525139238579
1682104766331455,38.55954833295186,82.16983291371025,126.51255054551007
1682104766347432,43.07621881437399,88.82276646066975,129.90005340657672
1682104766363409,48.90516517891206,98.06973373006804,133.043411917296
1682104766379386,48.23376821545753,103.59349965667207,137.46852826733812
1682104766395362,45.334554055085164,107.65239948119324,142.87022201876857
1682104766411339,41.73342488746471,113.81704432745869,147.6005188067445
1682104766427316,43.80865186541541,118.60837720302129,149.4010833905545
1682104766443293,45.3650720988785,121.62966353856723,150.74387731746378
1682104766459270,46.34164950026707,127.67223620965888,151.26268406195163
1682104766475247,37.61348897535686,130.05264362554362,152.544441901274
1682104766491224,38.74265659571233,140.85603112840454,164.11078049897014
1682104766507201,42.28274967574589,150.13351644159593,173.2967116807813
1682104766523178,46.95201037613492,143.9688715953307,180.77363241016246
1682104766539155,40.024414435034714,133.897917143511,188.37262531471742
1682104766555132,31.937132829785696,123.79644464789817,184.25268940260935
1682104766571108,29.648279545280957,112.99305714503703,172.19806210421916
1682104766587097,31.174181734950707,104.50904097047396,148.8212405584802
1682104766603074,31.78454261081879,91.75249866483546,129.13710231174173
1682104766619051,28.641184100099053,61.63118944075677,115.09880216678107
1682104766635028,31.357289997711177,38.162813763637814,116.62470435645082
1682104766651004,38.07125963225758,25.19264515144573,110.36850537880537
1682104766666981,41.489280537117565,19.39421683070111,106.52323186083777
1682104766682958,45.82284275577945,18.87541008621338,105.3330281528954
1682104766698935,49.881742580300624,20.8896009765773,93.94979781795996
1682104766714912,49.301899748226106,16.952773327229693,68.43671320668341
1682104766730889,46.616311894407545,14.908064393072323,46.70786602578778
1682104766746866,46.58579385061421,15.121690699626129,36.69794766155496
1682104766762843,46.64682993820111,21.28633554589146,33.859769588769495
1682104766778820,38.10177767605114,21.469443808651818,32.27283131151307
1682104766794797,31.815060654612125,19.27214465552754,33.58510719462902
1682104766810773,26.35233081559454,21.622034027618724,24.979018844891925
1682104766826750,15.732051575493983,16.098268101014696,16.067750057221247
1682104766842727,2.7008468757152286,11.154345006485073,11.032272831311502
1682104766858704,-8.22461280231937,9.201190203707938,6.454566262302592
1682104766874681,-17.19691767757695,7.675288014038301,1.4801251239795192
1682104766890658,-23.270008392462046,7.522697795071281,-2.731364919508678
1682104766906646,-23.819333180743115,3.5248340581368893,-7.583733882658066
1682104766922623,-14.419775692378039,-10.11673151750972,-25.192645151445845
1682104766938600,1.1139085984588064,-25.497825589379772,-44.602121004043624
1682104766954577,-2.639810788128443,-31.204699778744157,-60.929274433508795
1682104766970554,-20.462348363469914,-33.646143282215576,-70.17624170290685
1682104766986531,-39.78027008468757,-35.38567177843902,-74.96757457846945
1682104767002508,-46.40268558785374,-36.82001983672842,-83.75677119096667
1682104767018485,-52.38422217135883,-44.54108491645684,-94.22446021210044
1682104767034462,-61.478599221789864,-56.9314106965744,-102.73899443045696
1682104767050439,-69.16914625772483,-74.9980926222629,-113.20668345159083
1682104767066415,-77.86678873884182,-84.88593881132226,-120.07324330510414
1682104767082392,-86.22873273823154,-100.72480354009303,-121.26344701304652
1682104767098369,-89.03639276722367,-112.19958800640882,-126.84824902723733
1682104767114346,-96.81849393453876,-122.02639810788128,-126.05477988860912
1682104767130323,-104.93629358358123,-132.92133974212254,-124.31525139238579
1682104767146300,-106.37064164187075,-135.94262607766836,-121.50759136339366
1682104767162277,-108.20172426947431,-137.28542000457765,-114.06118867780583
1682104767178254,-101.48775463492791,-128.49622339208054,-112.96253910124369
1682104767194231,-103.07469291218433,-129.59487296864268,-119.92065308613724
1682104767210208,-98.9852750438697,-120.40894178683152,-119.49340047302974
1682104767226196,-95.201037613489,-123.33867399099722,-126.23788815136948
1682104767242173,-88.33447775997558,-118.12008850232701,-127.55016403448542
1682104767258150,-81.1322194247349,-109.51400015259026,-119.37132829785617
1682104767274127,-74.69291218432897,-102.80003051804374,-115.22087434195475
1682104767290104,-68.65033951323721,-87.44945448996725,-109.63607232776383
1682104767306080,-61.44808117799653,-83.81780727855346,-107.43877317463944
1682104767322057,-52.38422217135883,-70.1457236591134,-103.31883726253147
1682104767338034,-41.03150988021662,-62.149996185244504,-95.38414587624936
1682104767354011,-30.25864042114904,-62.394140535591646,-94.28549629968722
1682104767369988,-24.795910582131683,-47.53185320820944,-89.921416037232
1682104767385965,-18.53971160448623,-39.597161821927216,-88.63965819790951
1682104767401942,-16.464484626535523,-32.63904783703367,-80.58289463645383
1682104767417919,-14.053559166857326,-27.78667887388417,-69.2912184328984
1682104767433896,-9.353780422674845,-23.75829709315633,-58.487830930037376
1682104767449873,-5.844205386434737,-20.859082932784077,-54.8561837186237
1682104767465850,-5.2338445105668825,-13.87045090409697,-49.02723735408563
1682104767481826,-4.654001678492364,-9.44533455405508,-43.74761577782863
1682104767497803,-7.431143663691159,-5.294880598153668,-40.268558785381856
1682104767513780,-11.673151750972693,-0.5035477225909517,-34.378576333257
1682104767529757,-13.504234378576257,3.8300144960708167,-30.167086289768804
1682104767545715,-14.084077210650776,5.996795605401644,-28.122377355611548
1682104767561692,-14.69443808651863,7.705806057831637,-24.948500801098703
1682104767577669,-13.076981765468759,8.804455634393776,-24.795910582131683
1682104767593646,-9.9641412985427,8.926527809567347,-26.35233081559477
1682104767609623,-7.919432364385443,11.764705882352928,-28.305485618371904
1682104767625599,-6.393530174715806,14.236667429617683,-30.441748683909395
1682104767641576,-3.891050583657602,13.931486991683755,-33.24940871290153
1682104767657553,0.6256198977645226,11.734187838559478,-36.27069504844735
1682104767673530,4.715037766079149,7.125963225757232,-39.10887312123293
1682104767689507,8.1025406271458,1.937895780880467,-40.57373922331578
1682104767705484,10.11673151750972,-3.097581445029391,-39.96337834744793
1682104767721461,9.109636072327703,-5.294880598153668,-38.52903028915841
1682104767737438,8.285648889906156,-7.248035400930803,-34.073395895323074
1682104767753415,5.844205386434737,-8.560311284046634,-32.9442282749676
1682104767769392,3.8300144960708167,-10.08621347371627,-29.80086976424809
1682104767785369,3.8605325398641526,-11.795223926146264,-26.657511253528696
1682104767801345,4.776073853665935,-13.626306553749828,-22.629129472800855
1682104767817322,3.7384603646905816,-12.314030670633997,-19.028000305180512
1682104767833299,2.548256656748322,-8.529793240253298,-16.250858319981717
1682104767849276,1.937895780880467,-2.8229190508887996,-13.778896772716848
1682104767865265,3.128099488822727,-3.921568627450938,-13.229571984435779
1682104767881241,4.989700160219741,2.182040131227609,-9.9641412985427
1682104767897218,7.40062561989771,5.50850690470736,-7.614251926451516
1682104767913195,8.1025406271458,8.804455634393776,-5.264362554360218
1682104767929172,8.77393759060044,10.299839780270077,-3.4027618829633184
1682104767945149,9.658960860608772,11.062790875104838,-2.0294499122605885
1682104767961126,9.842069123369129,11.490043488212336,-0.2899214160372594
1682104767977103,9.811551079575793,12.13092240787364,1.3275349050126124
1682104767993080,10.78812848096436,12.314030670633997,3.0365453574426056
1682104768009057,11.551079575799122,13.076981765468759,4.3183031967651
1682104768025034,11.520561532005786,14.602883955138395,5.050736247806526
1682104768041010,11.703669794766142,14.450293736171488,5.447470817120575
1682104768056987,13.290608072022565,11.612115663385907,3.006027313649156
1682104768072964,12.344548714427333,12.741283283741495,3.9520866712443876
1682104768088941,12.741283283741495,10.605020218204004,2.334630350194516
1682104768104918,12.619211108567924,10.879682612344482,2.761882963302014
1682104768120895,12.710765239948046,9.597924773021987,1.4496070801861833
1682104768136872,11.551079575799122,8.468757152666512,-0.19836728465702436
1682104768152849,11.33745326924543,6.301976043335571,-2.1210040436408235
1682104768168826,8.407721065079727,7.827878233005208,-1.4190890363927338
1682104768184814,4.928664072632955,7.003891050583661,-1.7242694743266611
1682104768200791,-1.022354467078685,9.231708247501274,-2.212558175020945
1682104768216768,-4.1962310215915295,9.872587167162578,-2.6092927443351073
1682104768232745,-5.966277561608308,10.879682612344482,-3.4943160143434397
1682104768248722,-6.21042191195545,11.093308918898288,-4.684519722285813
1682104768264699,-5.294880598153668,10.75761043717091,-6.790264744029855
1682104768280676,-4.470893415732007,11.215381094071859,-9.170672159914488
1682104768296652,-3.6469062333104603,12.558175020981139,-11.764705882352928
1682104768312629,-2.3956664377813013,13.3211261158159,-14.755474174105416
1682104768328606,-0.5340657663844013,13.138017853055544,-18.326085297932423
1682104768344583,2.182040131227609,10.452429999236983,-23.056382085908353
1682104768360560,4.684519722285813,7.980468451972229,-28.183413443198333
1682104768376537,7.003891050583661,6.607156481269499,-30.716411078049873
1682104768392514,9.140154116121153,6.179903868162,-33.18837262531474
1682104768408491,9.506370641641865,5.386434729533789,-34.195468070496645
1682104768424468,9.41481651026163,2.6703288319218927,-33.92080567635617
1682104768440445,8.438239108873063,1.2054627298390415,-33.15785458152129
1682104768456421,7.3090714885175885,-0.015259021896667946,-31.967650873579032
1682104768472398,4.806591897459384,-0.16784924086368846,-30.289158464942375
1682104768488375,3.1586175326161765,-2.761882963302014,-27.969787136644527
1682104768504364,0.5340657663844013,-4.287785152971651,-25.833524071107036
1682104768520341,-4.226749065384865,-4.745555809872599,-22.262912947280142
1682104768536317,-6.607156481269499,-8.590829327840083,-23.11741817349514
1682104768552294,-10.696574349584125,-10.177767605096506,-21.377889677271696
1682104768568271,-14.114595254444112,-11.825741969939713,-19.88250553139551
1682104768584248,-16.922255283436357,-12.68024719615471,-17.044327458609928
1682104768600225,-18.387121385519208,-14.938582436865772,-14.877546349278987
1682104768616202,-19.943541618982294,-15.94567788204779,-12.558175020981139
1682104768632179,-21.499961852445267,-15.671015487907312,-10.269321736476627
1682104768648156,-22.354467078660264,-14.633401998931845,-8.194094758525921
1682104768664133,-22.354467078660264,-12.405584802014118,-6.027313649195094
1682104768680110,-21.499961852445267,-9.323262378881509,-3.9826047150377235
1682104768696087,-19.272144655527654,-7.125963225757232,-3.097581445029391
1682104768712063,-15.518425268940177,-6.607156481269499,-2.5177386129548722
1682104768728040,-11.703669794766142,-9.56740672922865,-3.463797970550104
1682104768744017,-11.33745326924543,-4.470893415732007,-1.2054627298390415
1682104768759994,-11.33745326924543,-6.546120393682713,-1.0833905546654705
1682104768775971,-12.588693064774475,-1.3580529488059483,2.182040131227609
1682104768791948,-12.924391546501852,-1.4496070801861833,2.5787747005416577
1682104768807925,-14.084077210650776,-0.7476920729380936,2.5787747005416577
1682104768823913,-15.671015487907312,1.9073777370870175,1.7242694743266611
1682104768839890,-17.227435721370284,5.783169298847952,1.6632333867398756
1682104768855867,-17.53261615930421,8.89600976577401,1.1749446860455919
1682104768871844,-14.54184786755161,11.581597619592571,-0.3509575036240449
1682104768887821,-9.933623254749364,13.229571984435779,-1.7853055619134466
1682104768903798,-4.562447547112242,14.358739604791253,-2.731364919508678
1682104768919775,0.44251163500416624,14.602883955138395,-3.097581445029391
1682104768935752,4.623483634699028,13.778896772716848,-2.4567025253680868
1682104768951728,7.705806057831637,14.145113298237561,-1.4190890363927338
1682104768967705,9.353780422674845,15.548943312733627,0.5340657663844013
1682104768983682,10.482948043030433,15.640497444113748,2.883955138475585
1682104768999659,10.879682612344482,14.175631342030897,5.0202182040130765
1682104769015636,10.269321736476627,11.215381094071859,6.88181887541009
1682104769031613,8.010986495765565,10.025177386129485,9.872587167162578
1682104769047590,4.83710994125272,8.194094758525921,12.13092240787364
1682104769063567,0.3204394598305953,11.673151750972693,17.532616159304098
1682104769079544,-3.006027313649156,15.335317006179821,22.201876859693243
1682104769095521,-3.7384603646905816,17.34950789654374,24.67383840695811
1682104769111498,-2.426184481574751,17.92935072861826,24.917982757305253
1682104769127474,0.16784924086368846,18.05142290379183,24.582284275577877
1682104769143432,2.9144731822690346,19.211108567940755,24.612802319371212
1682104769159409,5.386434729533789,20.981155107957534,25.223163195239067
1682104769175386,7.949950408178779,21.499961852445153,25.497825589379545
1682104769191363,10.818646524757696,20.737010757610392,25.46730754558621
1682104769207340,14.908064393072323,16.922255283436243,25.253681239032403
1682104769223317,18.661783779659686,13.046463721675423,25.131609063858832
1682104769239294,21.68307011520551,10.543984130617218,25.65041580834668
1682104769255271,22.568093385213956,12.64972915236126,27.695124742503822
1682104769271247,22.568093385213956,13.962005035477205,29.404135194933815
1682104769287224,22.293430991073365,12.619211108567924,31.418326085298077
1682104769303201,21.988250553139437,13.260090028229115,32.9442282749676
1682104769319178,21.71358815899896,12.954909590295188,34.439612420844014
1682104769335155,22.171358815899794,10.574502174410554,35.04997329671187
1682104769351132,21.92721446555265,13.015945677881973,37.09468223086901
1682104769367109,21.896696421759316,14.908064393072323,38.49851224536519
1682104769383086,22.3849851224536,15.426871137560056,38.52903028915853
1682104769399063,23.941405355916572,14.57236591134506,37.27779049362948
1682104769415040,24.734874494544783,13.931486991683755,35.38567177843902
1682104769431017,24.82642862592502,12.161440451666977,32.639047837033786
1682104769446993,23.422598611428953,14.02304112306399,32.79163805600069
1682104769462951,22.35446707866015,15.335317006179821,33.40199893186855
1682104769478928,21.408407721065032,15.548943312733627,33.89028763256283
1682104769494905,21.04219119554432,13.717860685130063,33.554589150835454
1682104769510882,20.248722056916108,12.375066758220783,33.82925154497616
1682104769526859,18.539711604486115,11.33745326924543,33.43251697566188
1682104769542836,15.945677882047676,11.123826962691624,32.85267414358759
1682104769558813,12.893873502708402,11.459525444419,31.998168917372595
1682104769574790,10.08621347371627,12.497138933394353,31.937132829785696
1682104769590767,10.299839780270077,11.154345006485073,33.157854581521406
1682104769606743,7.40062561989771,13.229571984435779,30.350194552529047
1682104769622720,7.644769970244852,11.520561532005786,27.542534523536915
1682104769638697,9.018081940947582,10.08621347371627,24.216067750057164
1682104769654674,9.9641412985427,10.63553826199734,20.58442053864337
1682104769670651,10.971236743724717,10.940718699931267,16.220340276188267
1682104769686628,12.466620889600904,9.99465934233615,12.924391546501852
1682104769702605,14.114595254444112,9.41481651026163,10.940718699931267
1682104769718582,15.121690699626129,9.842069123369129,8.651865415426869
1682104769734559,16.281376363775053,8.529793240253298,6.118867780575215
1682104769750536,17.13588158999005,6.2714579995422355,3.9520866712443876
