Timestamp (microseconds),Accel X (g),Accel Y (g),Accel Z (g)
1684782923691497,0.5160601205462729,-0.7215075913633937,-0.6428931105516136
1684782923707495,0.4682078278782331,-1.059403372243839,-0.38300144960708016
1684782923723492,0.8025635156786448,-0.46137178606851315,-0.029724574654764524
1684782923739490,0.8825207904173347,-0.07965209430075548,-0.03985656519417091
1684782923755487,0.8368657969024182,-0.3808041504539559,-0.1961089494163426
1684782923771484,0.7677729457541771,-0.5010452429999237,-0.32343022812237754
1684782923787482,0.6983138780804152,-0.3841000991836423,-0.2608072022583352
1684782923803479,0.43060959792477327,-0.2649576562142366,-0.31183337148088786
1684782923819477,0.5255817502098115,-0.15423819333180733,-0.5528038452735178
1684782923835474,0.5665980010681313,-0.39569695582513154,-0.508369573510338
1684782923851472,0.6398413061722747,-0.3609063859006638,-0.4557564660105289
1684782923867469,0.7063706416418709,-0.31573968108644257,-0.4423285267414361
1684782923883466,0.8307621881437397,-0.4063172350652322,-0.5629358358129246
1684782923899464,0.8369878690775918,-0.4336614023041121,-0.5413290608072021
1684782923915461,0.7487296864271,-0.3098802166781107,-0.4574654764629589
1684782923931459,0.7672846570534828,-0.1782864118410008,-0.3424734874494546
1684782923947456,0.7880369268329899,-0.052063782711528006,-0.3185473411154347
1684782923963453,0.7953612573434041,-0.12103456168459603,-0.43305104142824424
1684782923979451,0.7425040054932479,-0.3357595178149082,-0.6738994430457006
1684782923995448,0.6334935530632491,-0.4473334859235525,-0.9490501258869308
1684782924011444,0.647165636682689,-0.4147402151522086,-0.8676279850461586
1684782924027441,0.8585946440833139,-0.37006179903868164,-0.6853742275120163
1684782924043439,0.8407721065079725,-0.25690089265278093,-0.45502403295948746
1684782924059436,0.7349355306324865,-0.163149462119478,-0.30548561837186217
1684782924075433,0.6862287327382317,-0.18536659800106792,-0.3621271076523995
1684782924091431,0.6654764629587246,-0.28448920424200796,-0.5340047302967879
1684782924107428,0.6583962767986575,-0.3757991912718395,-0.616891737239643
1684782924123426,0.7384756237125201,-0.3677424277103838,-0.5094682230869001
1684782924139423,0.9025406271458003,-0.3732356755931945,-0.4746776531624324
1684782924155420,0.938185702296483,-0.3505302510109103,-0.4826123445487145
1684782924171418,0.8791027695124747,-0.40070191500724794,-0.5421835660334171
1684782924187415,0.8805676356145575,-0.4314641031509878,-0.6529030289158464
1684782924203413,0.9201190203707945,-0.4413519493400475,-0.7056382085908295
1684782924219410,0.8931410696574353,-0.37042801556420235,-0.6411841000991836
1684782924235407,0.9204852368963152,-0.2465247577630274,-0.5021438925764858
1684782924251405,0.9058365758754867,-0.08538948653391332,-0.3959411001754787
1684782924267402,0.9170672159914552,0.032288090333409514,-0.3201342793926911
1684782924283400,0.9611352712291144,-0.029968719005111666,-0.39765011062790867
1684782924299397,0.7887693598840313,-0.14996566720073234,-0.46515602349889384
1684782924315395,0.6115205615320054,-0.206240939955749,-0.6331273365377279
1684782924331359,0.8183108262760355,-0.2788738841840237,-0.564522774090181
1684782924347357,0.8268558785381854,-0.18890669108110192,-0.52826733806363
1684782924363354,0.7506828412298772,-0.1644922560463873,-0.45722133211261173
1684782924379352,0.7449454489967193,-0.1173723964293889,-0.45551232166018174
1684782924395349,0.6572976272220954,-0.29962615396353076,-0.5217975127794308
1684782924411347,0.7964599069199663,-0.5435263599603264,-0.7235828183413444
1684782924427344,0.877027542534524,-0.5130083161669337,-0.744457160296025
1684782924443341,0.8817883573662932,-0.5327840085450521,-0.8458991378652629
1684782924459339,0.8764171816586561,-0.52314030670634,-0.7633783474479285
1684782924475336,0.9593041886015108,-0.4345159075303271,-0.7229724574654766
1684782924491334,0.9730983443961243,-0.4472114137483789,-0.7394522011139086
1684782924507331,0.8555428397039746,-0.3345387960631725,-0.6457007705806057
1684782924523328,0.6604715037766082,-0.23846799420157172,-0.6261692225528344
1684782924539326,0.5590295262073699,-0.21490806439307253,-0.5247272449835965
1684782924555323,0.4480659189745939,-0.14837872892347592,-0.5830777447165638
1684782924571321,0.7617914091706721,-0.14581521324483093,-0.5711146715495539
1684782924587318,0.678171969176776,-0.15973144121461802,-0.6361791409170672
1684782924603315,0.6677958342870225,-0.1502098115510795,-0.6079804684519723
1684782924619313,0.6839093614099339,-0.1531395437552452,-0.6254367895017929
1684782924635310,0.54193942168307,-0.15155260547798877,-0.631662470435645
1684782924651123,0.5465781643396657,-0.1275043869687953,-0.5878385595483331
1684782924667119,0.5115434500648508,-0.10321202410925467,-0.6089570458533609
1684782924683116,0.4531929503318839,-0.0715953307392998,-0.6116426337071794
1684782924699112,0.52314030670634,-0.07782101167315192,-0.609201190203708
1684782924715108,0.7400625619897765,-0.13678187228198668,-0.7390859845883879
1684782924731105,0.9295185778591595,-0.16253910124361015,-0.7973144121461813
1684782924747101,0.8548104066529332,-0.032532234683756656,-0.7870603494316013
1684782924763098,0.6636453803311211,-0.009582665751125319,-0.75556572823682
1684782924779094,0.6094453345540547,-0.003356984817273201,-0.7057602807660031
1684782924795091,0.5009231708247501,0.03814755474174092,-0.6931868467231252
1684782924811087,0.5994354161898219,-0.016662851911192433,-0.8813000686655985
1684782924827084,0.7351796749828337,-0.09369039444571614,-0.9387960631723509
1684782924843080,0.75727473868925,-0.00323491264209963,-0.9323262378881512
1684782924859077,0.6542458228427561,0.021789883268482413,-1.1221484702830549
1684782924875073,0.7174792095826659,0.1885404745555812,-0.9916533150225071
1684782924891070,0.7499504081788357,0.2141756313420311,-0.9334248874647133
1684782924907066,0.5727016098268098,0.19855039291981402,-0.9148699168383305
1684782924923062,0.41766994735637475,0.1360494392309457,-0.9086442359044784
1684782924939059,0.3518730449378191,0.08758678568703715,-0.9143816281376362
1684782924955055,0.38959334706645343,0.06707866025787723,-0.9220721751735712
1684782924970886,0.5116655222400244,0.09637598229953426,-0.9225604638742655
1684782924986882,0.3344167238879985,0.14288548104066567,-0.8716563668268864
1684782925002878,0.48664072632944233,0.10638590066376707,-0.9602807660028994
1684782925018874,0.35590142671854696,0.14166475928892996,-1.2847486076142518
1684782925034870,0.31525139238574784,-0.08722056916151688,-1.273029678797589
1684782925050866,0.539375906004425,0.2772869459067673,-1.0058136873426413
1684782925066862,0.6603494316014347,0.2764324406805523,-0.8489509422446022
1684782925082858,0.3997253376058598,0.25812161440451664,-0.8029297322041655
1684782925098854,0.07330434119172935,0.04180971999694805,-0.7450675211718929
1684782925114850,0.24164187075608456,0.03973449301899734,-0.6665751125352863
1684782925130846,0.2507972838941024,0.3247730220492864,-0.5780727855344474
1684782925146842,0.29706263828488577,0.5292439154650186,-0.4256046387426564
1684782925162838,0.06292820630197582,0.20880445563439398,-0.4122987716487372
1684782925178834,0.3602960250247955,0.2850995651178758,-0.947585259784848
1684782925194830,0.424139772640574,0.40631723506523265,-1.3546959639887084
1684782925210826,0.2162508583199818,0.3096360723277636,-1.320637827115282
1684782925226822,0.1575341420614942,0.20599679560540185,-1.1654840924696726
1684782925242818,0.039002059967955915,0.19391165026321833,-1.0407263294422826
1684782925258813,0.042908369573510186,0.19879453727016116,-1.0573281452658883
1684782925274809,0.1276264591439693,0.2175936522468911,-0.9619897764553293
1684782925290649,0.20148012512397973,-0.007263294422827471,-0.9235370412756541
1684782925306645,0.21844815747310609,-0.15326161593041876,-1.0150911726558327
1684782925322640,0.14605935759517852,-0.029602502479590953,-1.0650186923018237
1684782925338636,0.15143053330281564,0.026916914625772392,-1.2419012741283284
1684782925354631,-0.0015259021896696368,0.14789044022278208,-1.2331120775158313
1684782925370627,-0.1973296711680783,0.20221255817502115,-1.142046234836347
1684782925386622,-0.13299763485160598,0.23041123064011604,-0.908766308079652
1684782925402618,-0.0470588235294116,0.22027924010070965,-0.936354619668879
1684782925418613,-0.0357061112382695,0.15777828641184133,-0.9846952010376135
1684782925434609,-0.010681315327687457,0.13653772793163999,-0.9767605096513314
1684782925450604,-0.127870603494316,0.17730983443961268,-0.9032730601968413
1684782925466600,-0.2583657587548638,0.18512245365072122,-1.0282749675745784
1684782925482595,-0.13604943923094526,0.09930571450369996,-0.980300602731365
1684782925498591,-0.17303730830853725,0.08953994048981428,-1.1629205767910276
1684782925514586,-0.27985046158541227,0.08294804303044145,-1.1906309605554286
1684782925530582,-0.3386892500190739,0.1599755855649656,-1.0600137331197068
1684782925546577,-0.40277714198519865,0.19635309376668975,-0.9361104753185319
1684782925562573,-0.28290226596475154,0.09698634317540211,-0.9177996490424962
1684782925578568,-0.03790341039139378,0.0020141908903639205,-1.0557412069886318
1684782925594564,0.10089265278095638,-0.06512550545510054,-1.0778362706950486
1684782925610382,0.005432211795223907,0.05487144274052014,-1.0607461661707482
1684782925626376,-0.13482871747920955,0.15436026550698134,-0.5203326466773479
1684782925642371,-0.018493934538795997,0.3650568398565648,-0.5163042648966201
1684782925658365,0.3280689707789728,0.7349355306324865,-0.6162813763637751
1684782925674360,0.028747997253375956,0.8388189517051954,-0.5224078736552986
1684782925690354,-1.0404821850919355,0.9251239795529109,-1.1221484702830549
1684782925706349,0.15020981155107993,0.4909132524605173,-0.43170824750133496
1684782925722344,0.34882124055847985,0.5337605859464407,-0.8091554131380176
1684782925738338,0.06475928892957938,0.3297779812314028,-1.0526894026092926
1684782925754333,0.19513237201495404,0.36224917982757265,-0.9988555733577478
1684782925770327,0.10089265278095638,0.4876173037308309,-0.8467536430914779
1684782925786322,-0.014587624933241727,0.6144502937361711,-0.844190127412833
1684782925802316,-0.06683451590753053,0.5725795376516363,-0.8485847257190815
1684782925818311,-0.011535820553902454,0.2977950713359272,-1.1302052338445105
1684782925834305,0.0739147020675972,0.23199816891737246,-0.9423361562523844
1684782925850300,0.08917372396429357,0.3519951171129927,-0.9822537575341421
1684782925866294,0.13409628442816857,0.32233157854581496,-0.945876249332418
1684782925882289,0.18072785534447267,0.28925001907377723,-1.0191195544365605
1684782925898284,0.1318989852750443,0.3045090409704736,-0.9983672846570535
1684782925914278,0.09906157015335282,0.3696955825131605,-0.9157244220645455
1684782925930145,0.07660028992141577,0.2772869459067673,-0.8187991149767302
1684782925946139,0.08270389868009431,0.22858014801251247,-0.7648432135500114
1684782925962133,0.13470664530403642,0.21734950789654395,-1.0497596704051269
1684782925978127,-0.012756542305638163,0.3696955825131605,-0.9953154802777142
1684782925994121,0.05035477225909801,0.3134203097581443,-1.172442206454566
1684782926010115,-0.04083314259555948,0.17071793698023985,-1.2267643244068056
1684782926026109,-0.04974441138323016,0.3314869916838328,-1.1055466544594492
1684782926042103,-0.10077058060578326,0.343083848325322,-1.0589150835431447
1684782926058097,-0.029602502479590953,0.3323414969100478,-1.0839398794537272
1684782926074092,-0.018493934538795997,0.48700694285496304,-1.0376745250629433
1684782926090086,-0.13604943923094526,0.24591439688715955,-1.1338673990997177
1684782926106080,-0.14459449149309522,0.44330510414282465,-0.933791103990234
1684782926122074,-0.11725032425421533,0.49994659342336156,-0.8303959716182194
1684782926138068,-0.0972304875257497,0.27533379110399014,-0.8527351796749829
1684782926154062,-0.055725947966735134,0.2167391470206761,-0.7992675669489584
1684782926170056,-0.04827954528114731,0.11529716945143775,-0.8034180209048598
1684782926186050,-0.03179980163271523,0.26361486228732733,-0.9558861676966508
1684782926202044,-0.01483176928358887,0.26727702754253446,-0.9929961089494164
1684782926218038,0.02642862592507811,0.26312657358663305,-0.907057297627222
1684782926234032,-0.19171435111009405,0.2855878538185701,-0.8352788586251623
1684782926249908,-0.3408865491721982,1.106034943160143,-0.5788052185854888
1684782926265902,-0.16205081254291587,0.5493858243686578,-1.231769283588922
1684782926281895,0.050476844434271584,-0.32257572289616254,-1.5419546807049667
1684782926297889,-0.11749446860456247,0.18670939192797764,-1.0030060273136492
1684782926313882,-0.1893949797817962,0.13360799572747428,-0.8825207904173342
1684782926329876,-0.06353856717784412,0.5021438925764858,-0.8874036774242771
1684782926345870,0.06695658808270366,0.34039826047150346,-0.6890363927672238
1684782926361863,-0.01873807888914314,0.30597390707255645,-0.5121538109407187
1684782926377857,-0.1257953765163653,0.2860761425192644,-0.9210955977721826
1684782926393850,-0.36408026245517666,0.3432059205004956,-0.9843289845120928
1684782926409844,-0.467109178301671,0.3233081559472035,-0.8655527580682079
1684782926425838,-0.48017090104524307,0.2813153276874951,-0.797680628671702
1684782926441831,-0.36237125200274667,0.1264057373922336,-0.8766613260090028
1684782926457825,0.4784618905928131,0.4863965819790952,-0.6013885709925995
1684782926473818,0.4081483176928362,0.5963836118104826,-0.6749980926222627
1684782926489812,-0.1669336995498587,0.34918745708400056,-1.2979324025329975
1684782926505806,-0.12469672693980316,0.32147707331959996,-1.200762951094835
1684782926521799,-0.11346608682383463,0.497261005569543,-0.8728770885786221
1684782926537793,-0.011413748378728883,0.45050736247806533,-1.061356527046616
1684782926553786,-0.09442282749675757,0.2890058747234301,-1.151689936675059
1684782926569702,-0.09662012664988184,0.2692301823453116,-0.8187991149767302
1684782926585695,-0.024475471122300974,0.32281986724650924,-0.30182345311665504
1684782926601688,0.08453498130769788,0.13995574883649997,-0.3417410543984132
1684782926617681,-0.08685435263599617,-0.061097123674372256,-0.52826733806363
1684782926633674,0.05108720531013944,-0.3696955825131609,-1.2427557793545434
1684782926649667,-0.3098802166781107,-0.03924620431830306,-1.772549019607843
1684782926665660,-0.419745174334325,0.23163195239185175,-1.4932478828107119
1684782926681654,-0.25091935606927596,0.010070954451819603,-1.1541313801785305
1684782926697647,-0.391302357518883,0.08294804303044145,-1.2570382238498512
1684782926713640,-0.39276722362096583,0.0327763790341038,-1.338582436865797
1684782926729633,-0.37506675822079805,0.07342641336690292,-1.3828946364538033
1684782926745626,-0.3211108567940797,0.08050659952697004,-1.347981994354162
1684782926761619,-0.3361257343404289,0.04217593652246876,-1.034622720683604
1684782926777612,-0.14312962539101237,-0.030212863355458808,-0.9622339208056765
1684782926793605,-0.22613870450904106,-0.03057907988097952,-0.904493781948577
1684782926809599,-0.16681162737468513,-0.07635614557106907,-0.9043717097734034
1684782926825592,-0.058411535820553695,-0.2095368886854354,-0.7927977416647591
1684782926841585,0.12408636606393486,-0.19427786678873904,-0.8242923628595409
1684782926857578,0.13958953231097926,-0.17010757610437155,-0.9308613717860683
1684782926873571,0.018127718013275285,-0.24261844815747313,-0.7953612573434041
1684782926889404,-0.2571450370031281,-0.21258869306477468,-0.6355687800411993
1684782926905397,-0.14776836804760807,-0.19256885633630905,-0.9809109636072328
1684782926921389,0.12213321126115773,-0.24969863431754025,-0.9016861219195849
1684782926937382,-0.16766613260090013,-0.6115205615320058,-0.9608911268787672
1684782926953374,-0.11309987029831392,-0.6464332036316471,-1.1569390402075226
1684782926969367,-0.205386434729534,-0.3522392614633403,-1.041458762493324
1684782926985360,-0.05792324711985941,-0.22735942626077676,-1.32295719844358
1684782927001352,-0.3555352101930267,-0.3189135576409554,-1.029495689326314
1684782927017345,-0.4976272220950637,-0.42670328831921855,-0.7821774624246585
1684782927033338,-0.3900816357671473,-0.1850003814755472,-0.9384298466468302
1684782927049330,0.18219272144655552,-0.35321583886472885,-1.267902647440299
1684782927065323,0.016662851911192433,-0.17755397878995938,-0.9948271915770199
1684782927081316,0.010681315327687457,-0.21698329137102323,-1.1083543144884414
1684782927097308,-0.2506752117189288,-0.3115892271305407,-0.9936064698252842
1684782927113301,0.08502327000839216,-0.3908140688181887,-0.8235599298084995
1684782927129294,0.09735255970092282,-0.43598077363240995,-1.0293736171511405
1684782927145286,-0.5860074769207295,-0.5777065690089267,-1.596887159533074
1684782927161279,-0.15875486381322945,-0.12420843823910888,-0.8955825131609063
1684782927177271,-0.18878461890592835,-0.08941786831464116,-1.2079652094300757
1684782927193264,-0.05926604104676869,-0.14447241931792165,-0.4757763027389945
1684782927209167,-0.13104448004882885,-0.10638590066376752,-0.8150148775463495
1684782927225159,-0.05279621576256943,-0.039002059967955915,-0.6801251239795527
1684782927241151,-0.1502098115510795,-3.0518043793392735E-4,-0.7691157396810864
1684782927257144,-0.2003814755474176,0.5515831235217821,-1.0464637216754404
1684782927273136,-0.28461127641718154,-0.18634317540245648,-1.0469520103761347
1684782927289128,0.53852140077821,-0.06182955672541368,-0.9790798809796293
1684782927305120,0.4711375600823988,-0.22748149843595034,-1.2992751964599067
1684782927321112,-0.3223315785458154,-0.04852368963149445,-1.340291447318227
1684782927337104,-0.15399404898146019,0.10101472495612995,-1.264484626535439
1684782927353097,0.44000915541313823,-0.091737239642939,-1.5850461585412376
1684782927369089,0.17462424658579412,-0.033875028610665936,-0.5072709239337758
1684782927385081,-1.1643854428931104,-0.4494087129015032,-0.4290226596475164
1684782927401073,0.5701380941481649,-0.36993972686350807,-1.0065461203936827
1684782927417065,-0.2138094148165104,-0.04986648355840373,-0.8748302433813993
1684782927433057,-0.10443274586099038,-0.07476920729381265,-1.1856260013733118
1684782927449050,-0.13116655222400242,-0.06634622720683625,-1.1475394827191576
1684782927465042,0.017639429312581,-0.07171740291447337,-0.9076676585030898
1684782927481034,0.045349813076981604,-0.07391470206759765,-0.8465094987411308
1684782927497026,0.12274357213702558,-0.15509269855802232,-0.9296406500343326
1684782927513018,0.23993286030365457,-0.1039444571602961,-1.1358205539024948
1684782927528930,0.24505989166094455,-0.09478904402227828,-1.1834287022201875
1684782927544922,0.14508278019378995,-0.13153276874952313,-1.2766918440527961
1684782927560915,-0.0812390325780119,-0.2146639200427254,-1.0137483787289234
1684782927576907,-0.1782864118410008,-0.19073777370870548,-0.8550545510032808
1684782927592899,-0.03143358510719452,-2.385473411154345,-0.935500114442664
1684782927608891,-1.0225375753414205,2.3672846570534825,-0.9789578088044557
1684782927624883,-0.024597543297474544,0.07122911421377864,-0.9950713359273671
1684782927640875,-0.016906996261539575,0.2936446173800258,-0.4776073853665981
1684782927656868,0.10614175631341993,0.04119935912108019,-0.8402838178072787
1684782927672860,0.46601052872510884,-0.33002212558175037,-0.7235828183413444
1684782927688852,-0.4113221942473486,-0.5541466392004271,-1.435629816128786
1684782927704844,0.17267109178301698,-0.1732814526588844,-0.6546120393682764
1684782927720836,-0.2112458991378654,-0.20514229037918685,-1.069779507133593
1684782927736828,-0.3131761654077976,-0.16815442130159441,-1.061966887922484
1684782927752821,-0.29425497825589364,0.040344853894865196,-1.047440299076829
1684782927768813,-0.2763103685053787,0.06060883497367797,-1.2570382238498512
1684782927784805,-0.28961623559929794,-0.11285572594796678,-1.2851148241397725
1684782927800797,-0.24286259250782027,-0.12042420080872818,-1.4464942397192342
1684782927816789,-0.30060273136491933,-0.010070954451819603,-0.7588616769665064
1684782927832781,-0.17767605096513295,-0.2477454795147631,-1.2575265125505455
1684782927848724,-0.08953994048981473,-0.32245365072098897,-0.7023422598611431
1684782927864716,0.09527733272297212,-0.43256275272754996,-0.6505836575875485
1684782927880707,0.08685435263599572,-0.4026550698100251,-0.8990005340657663
1684782927896699,0.3041428244449529,-0.3049973296711679,-0.8362554360265508
1684782927912691,0.28827344167238866,-0.5792935072861831,-1.1096971084153506
1684782927928682,0.07037460898756365,-0.47736324101625094,-0.8197756923781188
1684782927944674,0.04779125658045302,-0.4581979095140003,-0.9046158541237506
1684782927960666,0.16241702906843702,-0.4185244525825893,-0.9418478675516901
1684782927976657,0.20355535210193043,-0.41449607080186146,-1.0297398336766612
1684782927992649,0.19501029983978047,-0.4489204242008089,-0.9092545967803463
1684782928008641,0.19671931029221046,-0.4121766994735636,-0.9766384374761579
1684782928024633,0.19171435111009405,-0.21368734264133682,-1.0193636987869077
1684782928040624,0.2871747920958265,-0.2885175860227358,-1.1057907988097964
1684782928056616,0.4041199359121084,-0.5634241245136189,-0.948439765011063
1684782928072608,0.2852216372930494,-0.6264133669031815,-0.6731670099946592
1684782928088599,0.1998931868467233,-0.5676966506446939,-0.8114747844663155
1684782928104591,0.1687647821774627,-0.4481879911497675,-0.8280766002899216
1684782928120583,0.1499656672007328,-0.34015411612115676,-0.7750972762645914
1684782928136574,0.17291523613336413,-0.3192797741664761,-0.7974364843213548
1684782928152566,0.22821393148699176,-0.36627756160830094,-0.8162355992980852
1684782928168426,0.2910811017013808,-0.3037766079194322,-0.8371099412527658
1684782928184417,0.31097886625467286,-0.281925688563363,-0.8329594872968644
1684782928200409,0.2830243381399251,-0.33856717784390034,-0.8661631189440757
1684782928216400,0.27997253376058584,-0.4931105516136416,-0.867505912870985
1684782928232391,0.2263828488593882,-0.5226520180056458,-0.8404058899824522
1684782928248382,0.2621499961852445,-0.47150377660791953,-0.7628900587472343
1684782928264373,0.40204470893415767,-0.4004577706569008,-0.7411612115663386
1684782928280365,0.40497444113832337,-0.3971618219272144,-0.754711223010605
1684782928296356,0.4339055466544597,-0.5087357900358587,-0.7428702220187686
1684782928312347,0.46186007476920743,-0.4973830777447166,-0.8384527351796751
1684782928328338,0.41974517433432545,-0.4469672693980318,-0.719432364385443
1684782928344329,0.42316319523918544,-0.34650186923018245,-0.6210421911955444
1684782928360321,0.48529793240253305,-0.37042801556420235,-0.5912565804531931
1684782928376312,0.49628442816815443,-0.3445487144274053,-0.6227512016479744
1684782928392303,0.4497749294270239,-0.34979781795986886,-0.6787823300526434
1684782928408294,0.40216678110933124,-0.3958190280003051,-0.7016098268101016
1684782928424286,0.37494468604562403,-0.43781185626001395,-0.7421377889677272
1684782928440277,0.3833676661326013,-0.6349584191653315,-1.0887006942854964
1684782928456268,0.39789425497825626,-0.5510948348210878,-0.8874036774242771
1684782928472259,0.4203555352101933,-0.4473334859235525,-0.6988021667811095
1684782928488189,0.32318608377202995,-0.5681849393453882,-0.690135042343786
1684782928504181,0.3466239414053556,-0.5684290836957353,-0.7580071717402914
1684782928520172,0.39789425497825626,-0.6713359273670556,-0.8732433051041428
1684782928536163,0.4136415655756469,-0.7299305714503701,-0.7700923170824749
1684782928552154,0.4850537880521859,-0.5120317387655451,-0.8507820248722058
1684782928568145,0.5242389562829022,-0.4796826123445488,-0.6684061951628899
1684782928584137,0.5662317845426106,-0.6876935988403146,-0.2048981460288397
1684782928600128,0.4221866178377969,-0.610055695429923,-0.021911955443655984
1684782928616119,0.5913786526283662,-0.4809033340962845,-0.4874952315556573
1684782928632110,0.505806057831693,-0.42243076218814357,-0.7914549477378499
1684782928648101,0.35980773632410123,-0.5067826352330815,-0.6261692225528344
1684782928664093,0.44122987716487394,-0.5535362783245592,-0.17315938048371082
1684782928680084,0.5966277561608297,-0.7532463569085222,-0.2473792629892424
1684782928696075,0.5961394674601355,-0.7178454261081866,-0.34137483787289247
1684782928712066,0.502388036926833,-0.6183566033417258,-0.33759060044251177
1684782928728057,0.4755321583886474,-0.6319066147859922,-0.4009460593575951
1684782928744049,0.43146410315098827,-0.6262912947280079,-0.3589532310978867
1684782928760040,0.32025635156786425,-0.6084687571526666,-0.43634699015793066
1684782928776031,0.37360189211871475,-0.75214770733196,-0.36542305638208594
1684782928792022,0.42401770046540044,-0.8693369954985886,-0.4243839169909207
1684782928807953,0.4108339055466548,-0.8659189745937286,-0.6248264286259251
1684782928823943,0.36395819028000265,-0.7409170672159915,-0.7285877775234608
1684782928839934,0.3361257343404285,-0.8250247959105823,-0.6674296177615013
1684782928855925,0.27362478065156015,-0.8367437247272451,-0.7295643549248494
1684782928871915,0.2667887388418402,-0.8633554589150836,-0.7643549248493171
1684782928887906,0.20807202258335256,-0.9613794155794615,-0.44196231021591537
1684782928903897,0.13458457312886285,-1.1492484931715876,-0.6019989318684673
1684782928919888,0.14142061493858282,-1.0049591821164263,-0.522285801480125
1684782928935878,0.18084992751964624,-1.0276646066987105,-0.44037537193865894
1684782928951869,0.1940337224383919,-1.070878156710155,-0.46186007476920743
1684782928967860,0.2385900663767453,-1.1322804608224613,-0.3953307392996108
1684782928983851,0.2024567025253683,-1.1873350118257417,-0.0319218738078888
1684782928999841,0.12030212863355416,-1.1906309605554286,-0.41950102998397787
1684782929015832,0.1129777981231399,-0.8894789044022278,-0.8994888227664606
1684782929031823,0.17352559700923198,-0.9562523842221715,-0.7111314564736402
1684782929047814,0.21222247653925397,-1.0684367132066837,-0.3391775387197682
1684782929063804,0.2205233844510568,-0.9865262836652171,-0.23651483939879459
1684782929079795,0.23163195239185175,-0.9167009994659341,-0.1371480888075074
1684782929095786,0.18658731975280407,-1.1184863050278477,-0.1526512550545509
1684782929111776,0.28839551384756223,-0.9231708247501333,-0.19671931029221046
1684782929127716,0.2554360265506981,-0.7384756237125201,-0.038757915617608774
1684782929143706,0.2783855954833294,-0.8562752727550165,0.007751583123521755
1684782929159697,0.2658121614404516,-0.7937743190661477,-0.1001602197299154
1684782929175688,0.27740901808194085,-0.9040054932478827,-0.07025253681239052
1684782929191679,0.32941176470588207,-0.9496604867627987,-0.24249637598229956
1684782929207669,0.4186465247577633,-1.0597695887693597,-0.11578545815213248
1684782929223660,0.389715419241627,-1.1023727779049364,-0.18439002059967935
1684782929239651,0.3771419851987492,-1.2233463035019456,-0.22235446707866036
1684782929255642,0.3024338139925229,-1.0410925459678033,-0.09674219882505541
1684782929271632,0.23675898374914173,-0.9643091477836272,-0.050598916609445155
1684782929287623,0.1747463187609677,-0.9586938277256429,0.01995880064087885
1684782929303614,0.13385214007782142,-0.907057297627222,0.002746623941405346
1684782929319604,0.1541161211566342,-0.9038834210727091,0.15082017242694779
1684782929335595,0.15143053330281564,-0.932936598764019,0.2890058747234301
1684782929351586,0.20843823910887327,-1.0366979476615548,0.17962920576791053
1684782929367577,0.22064545662623036,-1.0274204623483634,0.026184481574730967
1684782929383567,0.23407339589532317,-1.0635538261997408,-0.03033493553063238
1684782929399558,0.25055313954375524,-1.0910200656137943,-0.028381780727855244
1684782929415549,0.243228809033341,-1.0890669108110171,0.04840161745632088
1684782929431540,0.23273060196841389,-1.0584267948424504,0.08343633173113574
1684782929447448,0.22369726100556964,-1.0111848630502784,0.09344625009536855
1684782929463439,0.22186617837796607,-1.0230258640421148,0.13153276874952358
1684782929479429,0.23175402456702532,-1.0404821850919355,0.21979095140001537
1684782929495419,0.21222247653925397,-1.0556191348134583,0.29803921568627434
1684782929511409,0.204531929503319,-1.0539101243610283,0.3595635919737541
1684782929527400,0.1995269703212026,-1.033768215457389,0.3602960250247955
1684782929543390,0.18976119630731692,-1.0384069581139848,0.27203784237430373
1684782929559380,0.20392156862745114,-1.0410925459678033,0.21564049744411395
1684782929575370,0.19037155718318477,-1.0413366903181505,0.1561913481345849
1684782929591361,0.19098191805905262,-1.0293736171511405,0.11114671549553634
1684782929607351,0.1852445258258948,-1.0313267719539176,0.06012054627298369
1684782929623341,0.17743190661478625,-1.0034943160143435,0.037537193865873064
1684782929639331,0.1759670405127034,-0.9795681696803236,0.09649805447470783
1684782929655322,0.17987335011825767,-0.9633325703822386,0.13141069657435
1684782929671312,0.1704737926298927,-0.9517357137407494,0.06073090714885154
1684782929687302,0.18365758754863837,-0.9903105210955978,0.0020141908903639205
1684782929703292,0.1747463187609677,-1.007888914320592,-0.019104295414663852
1684782929719283,0.21271076523994825,-1.0037384603646906,0.009094377050431035
1684782929735273,0.19562066071564832,-1.0000762951094835,0.049500267032883016
1684782929751263,0.1616845960173956,-0.9704127565423057,0.11810482948042988
1684782929767212,0.132265201800565,-0.9342793926909283,0.12286564431219915
1684782929783202,0.10931563286793278,-0.9304951552605476,0.11114671549553634
1684782929799192,0.08172732127870574,-0.9347676813916226,0.11566338597695847
1684782929815182,0.04107728694590662,-0.932082093537804,0.1351949340047307
1684782929831173,0.019470511940184565,-0.8971694514381627,0.2318760967421989
1684782929847163,0.04718089570458517,-0.9192645151445791,0.29877164873731576
1684782929863153,0.07708857862211005,-0.9588158999008165,0.3607843137254898
1684782929879143,0.045593957427328746,-0.9864042114900435,0.3115892271305407
1684782929895134,0.07440299076829149,-0.9903105210955978,0.29303425650415793
1684782929911124,0.059754329747462975,-1.0050812542916,0.1902494850080112
1684782929927114,0.062439917601281536,-1.040604257267109,0.11810482948042988
1684782929943104,0.06952010376134865,-1.0161898222323948,0.16351567864499916
1684782929959095,0.09027237354085571,-1.0125276569771877,0.19391165026321833
1684782929975085,0.08953994048981428,-1.0165560387579156,0.23504997329671173
1684782929991075,0.09185931181811213,-1.034622720683604,0.2507972838941024
1684782930007065,0.12506294346532432,-1.058548867017624,0.31268787670710285
1684782930023056,0.1642481116960406,-1.0816205081254293,0.28668650339513224
1684782930039046,0.0806286717021436,-1.005325398641947,0.2642252231631952
1684782930055036,0.050476844434271584,-0.9853055619134814,0.27228198672465087
1684782930071026,0.0823376821545736,-1.0037384603646906,0.20856031128404684
1684782930086975,0.13849088273441712,-1.0681925688563365,0.12689402609292788
1684782930102965,0.09161516746776499,-1.089677271686885,0.14679179064621994
1684782930118954,0.1406881818875414,-1.1256885633630884,0.30511940184634145
1684782930134944,0.15094224460212136,-1.103349355306325,0.2888838025482565
1684782930150934,0.1544823376821549,-1.0321812771801326,0.26520180056458376
1684782930166924,0.12774853131914288,-0.9954375524528878,0.10138094148165067
1684782930182913,0.14850080109864994,-0.9966582742046235,0.11908140688181845
1684782930198903,0.1835355153734648,-0.9468528267338066,0.2103913939116504
1684782930214893,0.1730373083085377,-0.9744411383230336,0.28448920424200796
1684782930230883,0.17315938048371127,-1.052567330434119,0.2697184710460059
1684782930246873,0.2048981460288397,-0.9815213244831007,0.3284351873044935
1684782930262862,0.167544060425727,-0.9159685664148927,0.24457160296025027
1684782930278852,0.19916075379568188,-0.9856717784390021,0.28534370946822296
1684782930294842,0.17999542229343124,-0.8089112687876705,0.18036163881895195
1684782930310832,0.15130846112764207,-0.8216067750057223,0.14349584191653353
1684782930326821,0.1995269703212026,-0.8469977874418251,0.20672922865644328
1684782930342811,0.23456168459601745,-0.9453879606317237,0.21612878614480824
1684782930358801,0.1995269703212026,-0.8838635843442435,0.18695353627832478
1684782930374791,0.21014724956130326,-0.9376974135957887,0.1633936064698256
1684782930390781,0.20514229037918685,-0.97431906614786,0.10821698329137064
1684782930406738,0.1541161211566342,-0.9229266803997862,0.16998550392919842
1684782930422728,0.19073777370870548,-0.8114747844663155,0.24298466468299385
1684782930438717,0.16949721522850414,-0.8290531776913102,0.16058594644083346
1684782930454707,0.21405355916685753,-0.8698252841992828,0.270817120622568
1684782930470697,0.23260852979324032,-0.9043717097734034,0.2545815213244831
1684782930486687,0.25763332570382236,-0.9511253528648815,0.17450217441062055
1684782930502677,0.28119325551232155,-0.9899443045700771,0.11041428244449492
1684782930518666,0.2840009155413137,-1.0000762951094835,0.10235751888303923
1684782930534656,0.3019455252918286,-1.0381628137636376,-0.028747997253375956
1684782930550646,0.32831311512931993,-1.0921187151903564,-0.018249790188448856
1684782930566636,0.3451590753032727,-1.0075226977950713,0.0756237125200272
1684782930582625,0.31525139238574784,-0.9571068894483865,0.11541924162661132
1684782930598615,0.281071183337148,-0.9315938048371097,0.1050431067368578
1684782930614605,0.27618829633020514,-0.9359884031433583,0.15167467765316278
1684782930630595,0.30060273136491933,-0.9462424658579387,0.21173418783855968
1684782930646585,0.3036545357442586,-0.98457312886244,0.13324177920195357
1684782930662574,0.31610589761196284,-0.9705348287174793,0.04351873044937804
1684782930678564,0.32159914549477353,-0.9308613717860683,0.1398336766613264
1684782930694554,0.33453879606317205,-0.9112077515831234,0.2146639200427254
1684782930710544,0.35724422064545625,-0.9275654230563819,0.24493781948577098
1684782930726471,0.33295185778591563,-0.9048599984740977,0.20502021820401328
1684782930742460,0.37909514000152633,-0.9419699397268637,0.1814602883955141
1684782930758449,0.3678644998855569,-0.9442893110551616,0.17926298924238981
1684782930774438,0.3363698786907756,-0.947585259784848,0.13360799572747428
1684782930790428,0.2914473182269015,-0.8839856565194171,0.06793316548409223
1684782930806417,0.35724422064545625,-1.138017853055619,-0.12762645914396886
1684782930822406,0.3518730449378191,-0.9521019302662701,-0.3159838254367897
1684782930838396,0.393133440146487,-1.033524071107042,-0.009338521400778177
1684782930854385,0.4041199359121084,-0.86323338673991,0.2091706721599147
1684782930870374,0.38495460440985774,-0.9212176699473562,0.41339742122529977
1684782930886364,0.2764324406805523,-0.7378652628366522,0.5330281528953993
1684782930902353,0.1826810101472498,-0.5985809109636073,0.685008010986496
1684782930918342,0.2826581216144044,-0.7693598840314335,0.5625696192874035
1684782930934332,0.4031433585107198,-0.7763179980163271,0.4871290150301366
1684782930950321,0.43537041275654254,-0.7439688715953308,0.47309071488517596
1684782930966310,0.4719920653086138,-0.7711909666590371,0.5314412146181429
1684782930982299,0.4931105516136416,-0.778881513694972,0.5788052185854884
1684782930998289,0.5373006790264743,-0.8661631189440757,0.6256809338521405
1684782931014278,0.5493858243686578,-0.8893568322270542,0.5344930189974821
1684782931030267,0.5759975585564963,-0.8560311284046693,0.5779507133592734
1684782931046203,0.5872281986724648,-0.7953612573434041,0.6831769283588924
1684782931062193,0.6382543678950183,-0.6957503624017702,0.8136720836194398
1684782931078182,0.6444800488288704,-0.6124971389333944,1.0261997405966277
1684782931094171,0.605661097123674,-0.609201190203708,0.7554436560616464
1684782931110160,0.6765850308995196,-0.581612878614481,0.6384985122453655
1684782931126150,0.731395437552453,-0.6153047989623865,0.5536583504997328
1684782931142139,0.723704890516518,-0.6244602121004044,0.7311512932021058
1684782931158128,0.5905241474021512,-0.3992370489051651,0.6240939955748832
1684782931174118,0.5185015640497443,-0.4707713435568781,0.4635690852216374
1684782931190107,0.6038300144960704,-0.5072709239337758,0.3212329289692528
1684782931206096,0.6299534599832155,-0.49750514991989014,0.42609292744335114
1684782931222086,0.5504844739452199,-0.4285343709468221,0.5617151140611885
1684782931238075,0.5158159761959258,-0.33380636301213107,0.5654993514915692
1684782931254064,0.5189898527504386,-0.37128252079041735,0.5685511558709084
1684782931270053,0.5619592584115356,-0.5563439383535513,0.6642557412069889
1684782931286043,0.591989013504234,-0.5363241016250857,0.6201876859693289
1684782931302032,0.5689173723964291,-0.5365682459754328,0.5905241474021512
1684782931318021,0.44037537193865894,-0.4418402380407418,0.4896925307087816
1684782931334011,0.3440604257267106,-0.3450370031280996,0.4850537880521859
1684782931350000,0.3284351873044935,-0.3736018921187152,0.6231174181734946
1684782931365966,0.3222095063706414,-0.3463797970550089,0.8247806515602347
1684782931381956,0.32147707331959996,-0.238956282902266,0.8864271000228889
1684782931397945,0.32574959945067494,-0.08599984740978117,0.9247577630273902
1684782931413934,0.3766536964980549,-0.10064850843060968,0.8076905470359348
1684782931429924,0.4426947432669568,-0.06378271152819126,0.8544441901274125
1684782931445913,0.542793926909285,-0.06903181506065481,1.0120393682764934
1684782931461902,0.654001678492409,-0.271671625848783,0.9668726634622722
1684782931477892,0.6754863813229575,-0.2877851529716944,0.7986572060730905
1684782931493881,0.5448691538872357,-0.0733043411917298,0.6016327153429462
1684782931509870,0.4556343938353553,0.021789883268482413,0.7545891508354314
1684782931525859,0.3444266422522313,0.10614175631341993,0.8185549706263826
1684782931541849,0.28290226596475154,0.2191805905241475,0.7927977416647591
1684782931557838,0.5650110627908749,0.21747158007171752,0.5477988860914014
1684782931573827,0.3892271305409327,0.26984054322117945,0.8832532234683761
1684782931589817,0.28412298771648725,0.7003891050583659,1.721644922560464
1684782931605806,0.4506294346532389,0.7523918516823072,1.2237125200274663
1684782931621795,0.46515602349889384,0.8598153658350496,1.0169222552834363
1684782931637785,0.41901274128328403,0.6964827954528117,0.8626230258640417
1684782931653774,0.31317616540779714,0.5000686655985351,0.9121843289845124
1684782931669763,0.2902265964751658,0.3314869916838328,1.0727092393377582
1684782931685730,0.24896620126649882,0.18890669108110192,1.0056916151674677
1684782931701719,0.2258945601586939,0.2003814755474176,0.6800030518043796
1684782931717708,0.273380636301213,0.343083848325322,0.8877698939497982
1684782931733698,0.3738460364690619,0.4973830777447166,0.9228046082246131
1684782931749687,0.40289921416037267,0.4490424963759825,0.6691386282139318
1684782931765676,0.4356145571068897,0.4769970244907302,0.7183337148088809
1684782931781665,0.3950865949492641,0.4746776531624324,0.7947508964675363
1684782931797655,0.3742122529945826,0.45038529030289176,0.8531013962005032
1684782931813644,0.37726405737392277,0.4146181429770355,0.8429694056610968
1684782931829633,0.36346990157930836,0.45722133211261173,0.8299076829175247
1684782931845623,0.4102235446707869,0.4484321355001146,0.9214618142977038
1684782931861612,0.4401312275883118,0.3621271076523991,0.7801022354467078
1684782931877601,0.43695735103379896,0.3556572823681998,0.6677958342870225
1684782931893591,0.4303654535744261,0.38580910963607273,0.7588616769665064
1684782931909580,0.4262149996185247,0.4754100862134738,0.9195086594949267
1684782931925569,0.4137636377508205,0.45209430075532175,1.0084992751964599
1684782931941558,0.4182803082322426,0.36017395284962195,0.898634317540246
1684782931957548,0.4776073853665981,0.2995040817883572,0.7753414206149385
1684782931973537,0.5009231708247501,0.25763332570382236,0.6826886396581981
1684782931989526,0.5534142061493856,0.24310673685816742,0.696971084153506
1684782932005493,0.5735561150530248,0.23968871595330743,0.7608148317692836
1684782932021482,0.52314030670634,0.275944151979858,0.7743648432135499
1684782932037470,0.47614251926451523,0.3306324864576178,0.8206301976043333
1684782932053459,0.4708934157320517,0.33832303349355275,0.7997558556496527
1684782932069448,0.49835965514610514,0.30597390707255645,0.7849851224536506
1684782932085437,0.5117875944151979,0.29840543221179505,0.7813229571984435
1684782932101426,0.5175249866483558,0.28290226596475154,0.8187991149767297
1684782932117415,0.5000686655985351,0.3032883192187379,0.8393072404058897
1684782932133403,0.4787060349431602,0.3023117418173493,0.8156252384222169
1684782932149392,0.47895017929350736,0.31317616540779714,0.8148928053711755
1684782932165381,0.4711375600823988,0.3203784237430378,0.8004882887006941
1684782932181370,0.46381322957198456,0.3347829404135192,0.8383306630045011
1684782932197359,0.4566109712367439,0.32440680552376566,0.8841077286945911
1684782932213348,0.45966277561608315,0.3262378881513692,0.8762951094834825
1684782932229336,0.46723125047684455,0.32562752727550137,0.8599374380102232
1684782932245325,0.4700389105058367,0.31134508278019357,0.824414435034714
1684782932261314,0.47858396276798665,0.30646219577325073,0.8130617227435719
1684782932277303,0.47016098268101025,0.31146715495536714,0.8213626306553747
1684782932293292,0.4392767223620968,0.32269779507133567,0.8332036316472111
1684782932309280,0.45087357900358604,0.3296559090562292,0.8495613031204696
1684782932325256,0.4523384451056689,0.33282978561074206,0.837232013427939
1684782932341245,0.47821774624246594,0.31610589761196284,0.8115968566414891
1684782932357234,0.4800488288700695,0.3037766079194322,0.790844586861982
1684782932373222,0.47064927138170454,0.3141527428091857,0.8229495689326312
1684782932389211,0.45087357900358604,0.3192797741664757,0.8526131074998089
1684782932405200,0.43707942320897253,0.32404058899824495,0.8637216754406039
1684782932421189,0.44000915541313823,0.3250171663996335,0.8378423743038068
1684782932437178,0.4435492484931718,0.3237964446478978,0.8197756923781183
1684782932453167,0.4531929503318839,0.3158617532616157,0.8275883115892269
1684782932469155,0.4379339284351875,0.3162279697871364,0.8308842603189133
1684782932485144,0.425848783093004,0.32941176470588207,0.8732433051041424
1684782932501133,0.4208438239108876,0.32953383688105564,0.8689707789730674
1684782932517122,0.4274357213702604,0.31891355764095497,0.8504158083466846
1684782932533111,0.42182040131227616,0.31635004196231,0.861402304112306
1684782932549100,0.4048523689631498,0.3377126726176849,0.8811779964904254
1684782932565088,0.4065613794155798,0.3338063630121306,0.8729991607537952
1684782932581077,0.41388570992599405,0.3247730220492864,0.8548104066529332
1684782932597066,0.41974517433432545,0.32233157854581496,0.8640878919661246
1684782932613055,0.4119325551232169,0.3339284351873042,0.874219882505531
1684782932629044,0.39789425497825626,0.3167162584878307,0.8762951094834825
1684782932644989,0.40766002899214193,0.32404058899824495,0.8667734798199431
1684782932660977,0.4184023804074162,0.3325856412603949,0.8493171587701225
1684782932676966,0.41596093690394476,0.32526131074998066,0.852857251850156
1684782932692955,0.4208438239108876,0.3174486915388721,0.8437018387121382
1684782932708944,0.42438391699092115,0.31061264972915215,0.8374761577782861
1684782932724933,0.41266498817425834,0.32025635156786425,0.8484626535439075
1684782932740922,0.4108339055466548,0.3239185168230714,0.8764171816586561
1684782932756910,0.4140077821011676,0.3209887846189057,0.8422369726100554
1684782932772899,0.4221866178377969,0.3162279697871364,0.8330815594720375
1684782932788888,0.4081483176928362,0.3258716716258485,0.8544441901274125
1684782932804877,0.4086366063935305,0.3323414969100478,0.861402304112306
1684782932820866,0.4094911116197455,0.3200122072175171,0.8445563439383532
1684782932836855,0.41058976119630763,0.31488517586022713,0.8615243762874796
1684782932852843,0.397405966277562,0.3313649195086592,0.8773937590600447
1684782932868832,0.4007019150072484,0.3263599603265428,0.8722667277027538
1684782932884821,0.3997253376058598,0.32355230029755067,0.8500495918211639
1684782932900810,0.40045777065690125,0.32318608377202995,0.8640878919661246
1684782932916799,0.3993591210803391,0.3288014038300142,0.8549324788281067
1684782932932788,0.3986266880292977,0.3270923933775842,0.8621347371633474
1684782932948776,0.39423208972304913,0.31891355764095497,0.8611581597619589
1684782932964752,0.387151903562982,0.32867933165484065,0.878736552986954
1684782932980741,0.39044785229266843,0.32538338292515423,0.8897230487525754
1684782932996729,0.3864194705119406,0.3330739299610892,0.8563973449301896
1684782933012718,0.391424429694057,0.3224536507209885,0.8633554589150831
1684782933028707,0.386297398336767,0.31525139238574784,0.8626230258640417
1684782933044696,0.38654154268711416,0.3222095063706414,0.8714122224765388
1684782933060685,0.3893492027161063,0.32440680552376566,0.8712901503013653
1684782933076674,0.3850766765850313,0.32452887769893923,0.8661631189440753
1684782933092662,0.3812924391546506,0.3233081559472035,0.874219882505531
1684782933108651,0.3814145113298242,0.3309987029831385,0.866529335469596
1684782933124640,0.3843442435339899,0.3239185168230714,0.8764171816586561
1684782933140629,0.3771419851987492,0.32367437247272424,0.8686045624475467
1684782933156618,0.38153658350499775,0.3233081559472035,0.8888685435263604
1684782933172607,0.3762874799725342,0.32648203250171637,0.8764171816586561
1684782933188595,0.5877164873731591,0.12079041733424845,0.6706034943160146
1684782933204584,0.44415960936903964,0.25397116044861523,1.0485389486533911
1684782933220573,0.3793392843518735,0.29425497825589364,0.7877927824826427
1684782933236562,0.2637369344625009,0.04254215304798947,0.8075684748607612
1684782933252551,0.4177920195315483,0.28619821469443796,1.1306935225452053
1684782933268540,0.35761043717097696,0.2927901121538108,0.8191653315022505
1684782933284484,0.35968566414892766,0.30646219577325073,0.9265888456549938
1684782933300473,0.3671320668345155,0.27911802853437084,0.8878919661249718
1684782933316461,0.38239108873121275,0.281925688563363,0.8615243762874796
1684782933332450,0.3919127183947513,0.2709391927977416,0.8551766231784539
1684782933348438,0.3851987487602049,0.28412298771648725,0.8911879148546582
1684782933364426,0.38153658350499775,0.2814373998626687,0.865674830243381
1684782933380415,0.37726405737392277,0.28583199816891725,0.894361791409171
1684782933396403,0.37409018081940903,0.27618829633020514,0.8885023270008396
1684782933412391,0.3784847791256585,0.2830243381399251,0.8914320592050053
1684782933428380,0.3754329747463192,0.2831464103150987,0.8672617685206374
1684782933444368,0.38287937743190703,0.28290226596475154,0.8941176470588239
1684782933460356,0.3809262226291299,0.27496757457846943,0.8777599755855654
1684782933476345,0.37640955214770777,0.28912794689860366,0.8925307087815675
1684782933492333,0.37567711909666635,0.2813153276874951,0.8861829556725418
1684782933508321,0.3767757686732285,0.28741893644617367,0.882154573891814
1684782933524310,0.3784847791256585,0.27997253376058584,0.8815442130159461
1684782933540298,0.3717708094911112,0.2894941634241244,0.9002212558175025
1684782933556286,0.37360189211871475,0.29010452429999223,0.8881361104753189
1684782933572275,0.3808041504539563,0.28583199816891725,0.8871595330739304
1684782933588263,0.3808041504539563,0.28656443121995867,0.8908216983291375
1684782933604248,0.3762874799725342,0.2872968642710001,0.8750743877317468
1684782933620236,0.3825131609063863,0.2893720912489508,0.8777599755855654
1684782933636224,0.38361181048294846,0.28546578164339653,0.883009079118029
1684782933652213,0.3783627069504849,0.2909590295262072,0.8889906157015339
1684782933668201,0.3743343251697562,0.2877851529716944,0.8831311512932025
1684782933684189,0.3830014496070806,0.27496757457846943,0.8849622339208061
1684782933700178,0.3816586556801713,0.2919356069275958,0.8843518730449382
1684782933716166,0.3766536964980549,0.28912794689860366,0.8849622339208061
1684782933732154,0.37482261387045046,0.2877851529716944,0.8808117799649047
1684782933748143,0.37775234607461705,0.28253604943923083,0.893507286182956
1684782933764131,0.3788509956511792,0.2907148851758601,0.8816662851911197
1684782933780120,0.3788509956511792,0.2880292973220415,0.8760509651331354
1684782933796108,0.3776302738994435,0.2852216372930494,0.8781261921110861
1684782933812096,0.3754329747463192,0.2935225452048522,0.8905775539787903
1684782933828085,0.38019378957808847,0.28448920424200796,0.8817883573662932
1684782933844073,0.3767757686732285,0.28583199816891725,0.8874036774242775
1684782933860061,0.37494468604562403,0.29010452429999223,0.894361791409171
1684782933876050,0.3762874799725342,0.2915693904020751,0.8869153887235832
1684782933892038,0.3770199130235756,0.29120317387655437,0.8826428625925082
1684782933908026,0.3787289234760056,0.2857099259937437,0.8872816052491039
1684782933923980,0.37897306782635276,0.28155947203784226,0.8759288929579618
1684782933939969,0.3743343251697562,0.2905928130006865,0.8897230487525754
1684782933955957,0.3770199130235756,0.2860761425192644,0.8794689860379954
1684782933971945,0.3759212634470135,0.2894941634241244,0.8921644922560468
1684782933987934,0.3717708094911112,0.2881513694972151,0.8845960173952854
1684782934003922,0.3755550469214928,0.2840009155413137,0.8872816052491039
1684782934019910,0.3745784695201033,0.2886396581979094,0.8834973678187232
1684782934035899,0.3728694590676733,0.2898603799496451,0.883009079118029
1684782934051887,0.3733577477683676,0.28668650339513224,0.8859388113221947
1684782934067875,0.37396810864423546,0.2848554207675287,0.8864271000228889
1684782934083864,0.37604333562218706,0.2847333485923551,0.8794689860379954
1684782934099852,0.3696955825131605,0.2893720912489508,0.8906996261539639
1684782934115841,0.37152666514076405,0.28278019378957797,0.8894789044022282
1684782934131829,0.36859693293659834,0.2897383077744715,0.8839856565194175
1684782934147817,0.3700617990386812,0.27875181200885013,0.8983901731898989
1684782934163806,0.3599298084992748,0.29425497825589364,0.893507286182956
1684782934179794,0.3679865720607305,0.28534370946822296,0.8975356679636839
1684782934195782,0.3726253147173262,0.2831464103150987,0.8933852140077825
1684782934211771,0.36603341725795335,0.2833905546654458,0.8887464713511868
1684782934227759,0.3654230563820855,0.28876173037308295,0.898634317540246
1684782934243744,0.36945143816281334,0.2788738841840237,0.8852063782711532
1684782934259732,0.3666437781338212,0.28656443121995867,0.8904554818036168
1684782934275720,0.36066224155031623,0.2871747920958265,0.8953383688105596
1684782934291709,0.3666437781338212,0.2830243381399251,0.8957045853360803
1684782934307697,0.3695735103379869,0.27826352330815585,0.8882581826504925
1684782934323685,0.3633478294041348,0.2838788433661401,0.8908216983291375
1684782934339674,0.3659113450827798,0.2800946059357594,0.8915541313801789
1684782934355662,0.36102845807583694,0.28241397726405726,0.8982681010147253
1684782934371650,0.36444647898069693,0.27875181200885013,0.8861829556725418
1684782934387639,0.3714045929655905,0.2678873884184023,0.8869153887235832
1684782934403627,0.36188296330205194,0.28619821469443796,0.9093766689555203
1684782934419615,0.3604180971999691,0.2822919050888837,0.8863050278477154
1684782934435604,0.3649347676813912,0.2766765850308994,0.8908216983291375
1684782934451592,0.36346990157930836,0.27399099717708086,0.8928969253070882
1684782934467580,0.3582207980468448,0.28534370946822296,0.9060807202258339
1684782934483569,0.3629816128786141,0.279362172884718,0.8904554818036168
1684782934499557,0.3628595407034405,0.2771648737315937,0.8891126878767075
1684782934515545,0.3632257572289612,0.2700846875715266,0.8955825131609068
1684782934531534,0.3595635919737541,0.2809491111619744,0.9121843289845124
1684782934547522,0.3649347676813912,0.27533379110399014,0.8874036774242775
1684782934563476,0.3594415197985805,0.28033875028610655,0.8925307087815675
1684782934579465,0.3594415197985805,0.274235141527428,0.8993667505912875
1684782934595453,0.3595635919737541,0.2780193789578087,0.8950942244602125
1684782934611441,0.3637140459296555,0.27618829633020514,0.9002212558175025
1684782934627430,0.36224917982757265,0.27606622415503157,0.8855725947966739
1684782934643418,0.36054016937514266,0.276798657206073,0.8998550392919817
1684782934659406,0.3624933241779198,0.27655451285572585,0.8964370183871218
1684782934675395,0.3602960250247955,0.2737468528267337,0.8944838635843446
1684782934691383,0.3591973754482334,0.27862973983367656,0.897779812314031
1684782934707371,0.3604180971999691,0.2735027084763866,0.8954604409857332
1684782934723360,0.3666437781338212,0.2772869459067673,0.903761348897536
1684782934739348,0.3590753032730598,0.28070496681162727,0.8866712443732361
1684782934755336,0.3632257572289612,0.279362172884718,0.9094987411306938
1684782934771325,0.3621271076523991,0.2721599145494773,0.8889906157015339
1684782934787313,0.35638971541924125,0.27911802853437084,0.9014419775692382
1684782934803301,0.35883115892271267,0.2822919050888837,0.8961928740367746
1684782934819290,0.35553521019302625,0.2775310902571144,0.8974135957885103
1684782934835278,0.3585870145723655,0.27496757457846943,0.9030289158464946
1684782934851266,0.3612726024261841,0.274235141527428,0.8948500801098653
1684782934867255,0.36359197375448193,0.28375677119096654,0.903761348897536
1684782934883239,0.3611505302510105,0.2775310902571144,0.8841077286945911
1684782934899227,0.36102845807583694,0.275944151979858,0.8950942244602125
1684782934915215,0.35846494239719195,0.2771648737315937,0.8963149462119482
1684782934931203,0.3604180971999691,0.27692072938124657,0.8975356679636839
1684782934947191,0.35968566414892766,0.27447928587777515,0.8948500801098653
1684782934963179,0.35968566414892766,0.27704280155642014,0.9019302662699324
1684782934979167,0.3604180971999691,0.27399099717708086,0.8975356679636839
1684782934995154,0.35980773632410123,0.2747234302281223,0.8964370183871218
1684782935011142,0.3637140459296555,0.27496757457846943,0.8899671931029225
1684782935027130,0.3620050354772255,0.2783855954833294,0.8933852140077825
1684782935043118,0.3611505302510105,0.2747234302281223,0.8982681010147253
1684782935059106,0.3590753032730598,0.27911802853437084,0.899488822766461
1684782935075094,0.36395819028000265,0.2771648737315937,0.8908216983291375
1684782935091082,0.36151674677653123,0.27582207980468443,0.894361791409171
1684782935107070,0.3585870145723655,0.27484550240329586,0.8983901731898989
1684782935123057,0.36151674677653123,0.2780193789578087,0.8954604409857332
1684782935139045,0.3638361181048291,0.27704280155642014,0.8925307087815675
1684782935155033,0.36066224155031623,0.28070496681162727,0.897779812314031
1684782935171021,0.3645685511558705,0.280216678110933,0.8919203479056996
1684782935187009,0.3667658503089948,0.2797283894102387,0.8883802548256661
1684782935203003,0.3637140459296555,0.27692072938124657,0.8920424200808732
1684782935218990,0.3629816128786141,0.27692072938124657,0.8980239566643782
1684782935234978,0.36566720073243264,0.27240405889982444,0.8957045853360803
1684782935250966,0.36176089112687837,0.27447928587777515,0.8998550392919817
1684782935266954,0.3557793545433734,0.28741893644617367,0.900343327992676
1684782935282942,0.3628595407034405,0.27484550240329586,0.8819104295414668
1684782935298930,0.3632257572289612,0.2847333485923551,0.8953383688105596
1684782935314918,0.3645685511558705,0.281071183337148,0.8964370183871218
1684782935330906,0.3624933241779198,0.2771648737315937,0.8894789044022282
1684782935346893,0.36188296330205194,0.273380636301213,0.8919203479056996
1684782935362881,0.36432440680552336,0.2842450598916608,0.8928969253070882
1684782935378869,0.36359197375448193,0.275944151979858,0.8946059357595182
1684782935394857,0.3566338597695884,0.279362172884718,0.8958266575112539
1684782935410845,0.3621271076523991,0.2730144197756923,0.8928969253070882
1684782935426833,0.3620050354772255,0.2783855954833294,0.8927748531319146
1684782935442821,0.36017395284962195,0.2800946059357594,0.8980239566643782
1684782935458809,0.3604180971999691,0.2755779354543373,0.895216296635386
1684782935474796,0.36017395284962195,0.27777523460746156,0.8941176470588239
1684782935490784,0.36139467460135766,0.2730144197756923,0.8972915236133368
1684782935506772,0.3602960250247955,0.2730144197756923,0.8954604409857332
1684782935522735,0.35309376668955483,0.2831464103150987,0.8992446784161139
1684782935538723,0.3649347676813912,0.2735027084763866,0.8947280079346918
1684782935554711,0.3571221484702827,0.2822919050888837,0.8897230487525754
1684782935570699,0.3566338597695884,0.2766765850308994,0.9016861219195853
1684782935586687,0.3587090867475391,0.274235141527428,0.9000991836423289
1684782935602675,0.3578545815213241,0.2771648737315937,0.8987563897154196
1684782935618662,0.3600518806744484,0.2789959563591973,0.8953383688105596
1684782935634650,0.3621271076523991,0.27533379110399014,0.894361791409171
1684782935650638,0.3595635919737541,0.2763103685053787,0.901197833218891
1684782935666626,0.3609063859006634,0.279362172884718,0.8922865644312203
1684782935682614,0.36224917982757265,0.277653162432288,0.8950942244602125
1684782935698602,0.35980773632410123,0.2752117189288166,0.8997329671168082
1684782935714590,0.35980773632410123,0.2789959563591973,0.8936293583581296
1684782935730578,0.36310368505378765,0.2764324406805523,0.8899671931029225
1684782935746565,0.36261539635309337,0.27618829633020514,0.8931410696574353
1684782935762553,0.35846494239719195,0.27911802853437084,0.8993667505912875
1684782935778541,0.36066224155031623,0.2755779354543373,0.896925307087816
1684782935794529,0.3624933241779198,0.2781414511329823,0.8915541313801789
1684782935810517,0.3621271076523991,0.2783855954833294,0.8914320592050053
1684782935826505,0.3638361181048291,0.2796063172350651,0.8899671931029225
1684782935842468,0.36359197375448193,0.2789959563591973,0.8942397192339975
1684782935858456,0.3633478294041348,0.27618829633020514,0.8942397192339975
1684782935874444,0.36310368505378765,0.2792401007095444,0.893507286182956
1684782935890432,0.3611505302510105,0.2783855954833294,0.9035172045471889
1684782935906419,0.3602960250247955,0.27985046158541227,0.8982681010147253
1684782935922407,0.36176089112687837,0.27948424505989156,0.8899671931029225
1684782935938395,0.3616388189517048,0.2805828946364537,0.8924086366063939
1684782935954383,0.36273746852826694,0.27911802853437084,0.8998550392919817
1684782935970371,0.3620050354772255,0.27985046158541227,0.8955825131609068
1684782935986359,0.36224917982757265,0.27985046158541227,0.8903334096284432
1684782936002347,0.36273746852826694,0.2781414511329823,0.8941176470588239
1684782936018334,0.35931944762340695,0.2877851529716944,0.8863050278477154
1684782936034322,0.3646906233310441,0.280216678110933,0.8847180895704589
1684782936050310,0.3629816128786141,0.27985046158541227,0.898634317540246
1684782936066298,0.3616388189517048,0.2781414511329823,0.8902113374532696
1684782936082286,0.3645685511558705,0.27911802853437084,0.8932631418326089
1684782936098274,0.3611505302510105,0.28033875028610655,0.8990005340657667
1684782936114262,0.3599298084992748,0.277653162432288,0.8915541313801789
1684782936130250,0.3637140459296555,0.27789730678263513,0.8941176470588239
1684782936146237,0.3612726024261841,0.2830243381399251,0.8930189974822618
1684782936162231,0.36517891203173836,0.27911802853437084,0.8919203479056996
1684782936178219,0.35895323109788624,0.28241397726405726,0.8950942244602125
1684782936194207,0.36224917982757265,0.27655451285572585,0.8950942244602125
1684782936210195,0.3616388189517048,0.27789730678263513,0.9008316166933703
1684782936226183,0.3616388189517048,0.27948424505989156,0.8936293583581296
1684782936242170,0.3629816128786141,0.27740901808194085,0.8942397192339975
1684782936258158,0.3599298084992748,0.28290226596475154,0.8957045853360803
1684782936274146,0.3599298084992748,0.28155947203784226,0.8982681010147253
1684782936290134,0.3646906233310441,0.27826352330815585,0.8915541313801789
1684782936306122,0.3620050354772255,0.2805828946364537,0.8891126878767075
1684782936322110,0.3621271076523991,0.2775310902571144,0.8957045853360803
1684782936338098,0.3609063859006634,0.2775310902571144,0.8961928740367746
1684782936354086,0.3624933241779198,0.276798657206073,0.8993667505912875
1684782936370073,0.3607843137254898,0.2797283894102387,0.8950942244602125
1684782936386061,0.36224917982757265,0.2771648737315937,0.8917982757305261
1684782936402049,0.36224917982757265,0.27911802853437084,0.8937514305333032
1684782936418037,0.3604180971999691,0.2805828946364537,0.8904554818036168
1684782936434025,0.3599298084992748,0.281925688563363,0.8979018844892046
1684782936450013,0.35968566414892766,0.281071183337148,0.8961928740367746
1684782936466001,0.3620050354772255,0.27447928587777515,0.8979018844892046
1684782936481994,0.3591973754482334,0.28241397726405726,0.8910658426794846
1684782936497982,0.36139467460135766,0.2804608224612801,0.894361791409171
1684782936513970,0.35980773632410123,0.2772869459067673,0.8957045853360803
1684782936529958,0.35931944762340695,0.27875181200885013,0.8970473792629896
1684782936545946,0.35846494239719195,0.2788738841840237,0.8979018844892046
1684782936561934,0.3600518806744484,0.2781414511329823,0.8910658426794846
1684782936577921,0.3585870145723655,0.2792401007095444,0.8972915236133368
1684782936593909,0.3616388189517048,0.278507667658503,0.8959487296864275
1684782936609897,0.3612726024261841,0.276798657206073,0.8971694514381632
1684782936625885,0.3599298084992748,0.27985046158541227,0.8957045853360803
1684782936641873,0.3609063859006634,0.2886396581979094,0.8888685435263604
1684782936657861,0.36102845807583694,0.2772869459067673,0.8937514305333032
1684782936673849,0.36102845807583694,0.277653162432288,0.9052262149996189
1684782936689837,0.35724422064545625,0.28326848249027226,0.8999771114671553
1684782936705824,0.3621271076523991,0.27826352330815585,0.8948500801098653
1684782936721812,0.3620050354772255,0.28070496681162727,0.8942397192339975
1684782936737800,0.3612726024261841,0.281925688563363,0.8928969253070882
1684782936753788,0.35931944762340695,0.28033875028610655,0.8922865644312203
1684782936769776,0.3602960250247955,0.2754558632791637,0.8941176470588239
1684782936785764,0.3594415197985805,0.2804608224612801,0.8941176470588239
1684782936801757,0.3621271076523991,0.28204776073853655,0.8944838635843446
1684782936817745,0.3607843137254898,0.28119325551232155,0.8913099870298318
1684782936833733,0.3583428702220184,0.27862973983367656,0.8946059357595182
1684782936849721,0.3616388189517048,0.2755779354543373,0.8983901731898989
1684782936865709,0.3582207980468448,0.27911802853437084,0.8992446784161139
1684782936881697,0.3604180971999691,0.2792401007095444,0.8968032349126425
1684782936897685,0.3600518806744484,0.279362172884718,0.895216296635386
1684782936913673,0.36102845807583694,0.27997253376058584,0.893507286182956
1684782936929660,0.3623712520027462,0.2754558632791637,0.8938735027084768
1684782936945648,0.3607843137254898,0.2781414511329823,0.8953383688105596
1684782936961636,0.36139467460135766,0.275089646753643,0.8937514305333032
1684782936977624,0.36017395284962195,0.2814373998626687,0.895216296635386
1684782936993612,0.3607843137254898,0.27740901808194085,0.895216296635386
1684782937009600,0.35980773632410123,0.2792401007095444,0.8971694514381632
1684782937025588,0.3591973754482334,0.27582207980468443,0.9022964827954532
1684782937041576,0.36066224155031623,0.2775310902571144,0.8961928740367746
1684782937057563,0.3600518806744484,0.27875181200885013,0.8965590905622953
1684782937073551,0.35809872587167124,0.27985046158541227,0.896070801861601
1684782937089539,0.3599298084992748,0.2771648737315937,0.8936293583581296
1684782937105527,0.3578545815213241,0.280216678110933,0.8946059357595182
1684782937121460,0.3585870145723655,0.2804608224612801,0.8990005340657667
1684782937137447,0.35638971541924125,0.2775310902571144,0.8996108949416346
1684782937153435,0.36176089112687837,0.27582207980468443,0.8972915236133368
1684782937169423,0.3602960250247955,0.277653162432288,0.8947280079346918
1684782937185411,0.35553521019302625,0.28290226596475154,0.896925307087816
1684782937201399,0.3594415197985805,0.2796063172350651,0.8919203479056996
1684782937217387,0.35883115892271267,0.2754558632791637,0.8908216983291375
1684782937233375,0.35883115892271267,0.2804608224612801,0.8939955748836503
1684782937249363,0.35773250934615053,0.2789959563591973,0.8976577401388575
1684782937265350,0.3585870145723655,0.2797283894102387,0.8955825131609068
1684782937281338,0.3583428702220184,0.27826352330815585,0.895216296635386
1684782937297326,0.35687800411993553,0.2766765850308994,0.8997329671168082
1684782937313314,0.3571221484702827,0.2800946059357594,0.9025406271458003
1684782937329302,0.3587090867475391,0.2792401007095444,0.8975356679636839
1684782937345290,0.36102845807583694,0.2783855954833294,0.8932631418326089
1684782937361278,0.3583428702220184,0.28168154421301583,0.8953383688105596
1684782937377266,0.3591973754482334,0.2868085755703058,0.9043717097734039
1684782937393253,0.3566338597695884,0.2800946059357594,0.893507286182956
1684782937409241,0.3602960250247955,0.27618829633020514,0.8998550392919817
1684782937425229,0.35773250934615053,0.27704280155642014,0.8972915236133368
1684782937441223,0.36176089112687837,0.2780193789578087,0.8932631418326089
1684782937457211,0.35638971541924125,0.27997253376058584,0.895216296635386
1684782937473199,0.3587090867475391,0.28278019378957797,0.8958266575112539
1684782937489186,0.3621271076523991,0.2775310902571144,0.8981460288395517
1684782937505174,0.35724422064545625,0.28290226596475154,0.8963149462119482
1684782937521162,0.35638971541924125,0.281071183337148,0.8959487296864275
1684782937537150,0.36395819028000265,0.2743572137026016,0.8930189974822618
1684782937553138,0.3585870145723655,0.2797283894102387,0.9010757610437174
1684782937569126,0.36017395284962195,0.2783855954833294,0.906324864576181
1684782937585114,0.36139467460135766,0.27789730678263513,0.8864271000228889
1684782937601102,0.35687800411993553,0.2869306477454794,0.8930189974822618
1684782937617089,0.3628595407034405,0.2796063172350651,0.8910658426794846
1684782937633077,0.3621271076523991,0.28534370946822296,0.8959487296864275
1684782937649065,0.36359197375448193,0.27789730678263513,0.8906996261539639
1684782937665053,0.3612726024261841,0.28253604943923083,0.8954604409857332
1684782937681041,0.36273746852826694,0.27911802853437084,0.8894789044022282
1684782937697029,0.36395819028000265,0.2826581216144044,0.8905775539787903
1684782937713017,0.3624933241779198,0.280216678110933,0.8946059357595182
1684782937729004,0.3571221484702827,0.27985046158541227,0.8958266575112539
1684782937744992,0.3642023346303498,0.27911802853437084,0.8937514305333032
1684782937760986,0.36444647898069693,0.2800946059357594,0.8936293583581296
1684782937776974,0.3602960250247955,0.2869306477454794,0.8906996261539639
1684782937792962,0.3649347676813912,0.2766765850308994,0.8949721522850389
1684782937808950,0.36481269550621764,0.27875181200885013,0.8920424200808732
1684782937824937,0.3650568398565648,0.27997253376058584,0.8936293583581296
1684782937840925,0.36139467460135766,0.2830243381399251,0.895216296635386
1684782937856913,0.36395819028000265,0.280216678110933,0.8924086366063939
1684782937872901,0.36432440680552336,0.2800946059357594,0.8954604409857332
1684782937888889,0.3621271076523991,0.28155947203784226,0.8966811627374689
1684782937904877,0.36346990157930836,0.2792401007095444,0.8927748531319146
1684782937920865,0.3633478294041348,0.2800946059357594,0.8944838635843446
1684782937936853,0.3612726024261841,0.28070496681162727,0.8949721522850389
1684782937952840,0.36395819028000265,0.2797283894102387,0.8904554818036168
1684782937968828,0.3633478294041348,0.27997253376058584,0.8930189974822618
1684782937984816,0.3640802624551762,0.27911802853437084,0.8909437705043111
1684782938000804,0.36310368505378765,0.2792401007095444,0.8927748531319146
1684782938016792,0.36346990157930836,0.2809491111619744,0.8948500801098653
1684782938032780,0.3594415197985805,0.28290226596475154,0.8946059357595182
1684782938048768,0.3607843137254898,0.2821698329137101,0.8983901731898989
1684782938064756,0.3604180971999691,0.2804608224612801,0.8966811627374689
1684782938080749,0.36261539635309337,0.2809491111619744,0.8966811627374689
1684782938096737,0.36224917982757265,0.2804608224612801,0.8939955748836503
1684782938112725,0.3629816128786141,0.27985046158541227,0.8913099870298318
1684782938128713,0.3616388189517048,0.2792401007095444,0.8950942244602125
1684782938144701,0.36261539635309337,0.28082703898680084,0.8957045853360803
1684782938160689,0.35980773632410123,0.28363469901579297,0.8942397192339975
1684782938176676,0.3607843137254898,0.27789730678263513,0.8958266575112539
1684782938192664,0.35980773632410123,0.27911802853437084,0.8961928740367746
1684782938208652,0.3611505302510105,0.28119325551232155,0.899488822766461
1684782938224640,0.36066224155031623,0.2821698329137101,0.8937514305333032
1684782938240628,0.36139467460135766,0.2804608224612801,0.8899671931029225
1684782938256616,0.36261539635309337,0.27985046158541227,0.8936293583581296
1684782938272604,0.3620050354772255,0.2800946059357594,0.8965590905622953
1684782938288591,0.3621271076523991,0.2800946059357594,0.8971694514381632
1684782938304579,0.3602960250247955,0.27911802853437084,0.8950942244602125
1684782938320567,0.3629816128786141,0.27948424505989156,0.8921644922560468
1684782938336555,0.36139467460135766,0.28241397726405726,0.8932631418326089
1684782938352543,0.3637140459296555,0.2792401007095444,0.893507286182956
1684782938368531,0.3616388189517048,0.28253604943923083,0.8937514305333032
1684782938384519,0.3646906233310441,0.27911802853437084,0.8990005340657667
1684782938400482,0.3612726024261841,0.2842450598916608,0.8948500801098653
1684782938416470,0.3637140459296555,0.2852216372930494,0.8966811627374689
1684782938432458,0.36176089112687837,0.2868085755703058,0.8927748531319146
1684782938448445,0.3646906233310441,0.27997253376058584,0.8914320592050053
1684782938464433,0.3637140459296555,0.2821698329137101,0.8931410696574353
1684782938480421,0.36945143816281334,0.28070496681162727,0.8909437705043111
1684782938496409,0.36359197375448193,0.2830243381399251,0.8876478217746246
1684782938512397,0.3646906233310441,0.28326848249027226,0.8874036774242775
1684782938528385,0.3645685511558705,0.2842450598916608,0.8927748531319146
1684782938544373,0.36517891203173836,0.2842450598916608,0.8930189974822618
1684782938560361,0.36139467460135766,0.2855878538185701,0.892652780956741
1684782938576348,0.3624933241779198,0.28363469901579297,0.8939955748836503
1684782938592336,0.3688410772869455,0.28033875028610655,0.8897230487525754
1684782938608324,0.36517891203173836,0.2843671320668344,0.892652780956741
1684782938624312,0.36346990157930836,0.2855878538185701,0.893507286182956
1684782938640300,0.3650568398565648,0.281925688563363,0.893507286182956
1684782938656288,0.36652170595864764,0.2835126268406194,0.8872816052491039
1684782938672276,0.3650568398565648,0.28827344167238866,0.8898451209277489
1684782938688264,0.3671320668345155,0.28546578164339653,0.8927748531319146
1684782938704251,0.36444647898069693,0.2855878538185701,0.8844739452201118
1684782938720214,0.3667658503089948,0.28326848249027226,0.8941176470588239
1684782938736202,0.36395819028000265,0.28656443121995867,0.8938735027084768
1684782938752189,0.3683527885862512,0.29047074082551294,0.8881361104753189
1684782938768177,0.3705500877393755,0.2833905546654458,0.8792248416876483
1684782938784164,0.3712825207904169,0.28412298771648725,0.8915541313801789
1684782938800151,0.3692072938124662,0.28448920424200796,0.8908216983291375
1684782938816139,0.3650568398565648,0.2857099259937437,0.8941176470588239
1684782938832126,0.3676203555352098,0.2826581216144044,0.8909437705043111
1684782938848114,0.3666437781338212,0.2830243381399251,0.8925307087815675
1684782938864101,0.3674982833600362,0.28741893644617367,0.8876478217746246
1684782938880088,0.3650568398565648,0.2877851529716944,0.8932631418326089
1684782938896076,0.3661554894331269,0.28912794689860366,0.8883802548256661
1684782938912063,0.36737621118486263,0.2805828946364537,0.8959487296864275
1684782938928051,0.3632257572289612,0.29205767910276936,0.8936293583581296
1684782938944038,0.37152666514076405,0.2847333485923551,0.8914320592050053
1684782938960025,0.3688410772869455,0.2894941634241244,0.8825207904173347
1684782938976013,0.3690852216372926,0.2847333485923551,0.8865491721980625
1684782938992000,0.3670099946593419,0.2888838025482565,0.8944838635843446
1684782939007988,0.3674982833600362,0.28619821469443796,0.8917982757305261
1684782939023975,0.36554512855725907,0.2890058747234301,0.8889906157015339
1684782939039978,0.37103837644006976,0.2869306477454794,0.8883802548256661
1684782939055965,0.3676203555352098,0.2919356069275958,0.8875257495994511
1684782939071952,0.36896314946211906,0.28827344167238866,0.8894789044022282
1684782939087940,0.3717708094911112,0.2826581216144044,0.8905775539787903
1684782939103927,0.36639963378347407,0.29254596780346365,0.8904554818036168
1684782939119915,0.3743343251697562,0.2890058747234301,0.8849622339208061
1684782939135902,0.36639963378347407,0.2923018234531165,0.8820325017166404
1684782939151889,0.3707942320897226,0.29706263828488577,0.898634317540246
1684782939167877,0.3704280155642019,0.2888838025482565,0.8805676356145575
1684782939183864,0.3709163042648962,0.2907148851758601,0.8921644922560468
1684782939199852,0.3766536964980549,0.2792401007095444,0.9096208133058674
1684782939215839,0.36859693293659834,0.29840543221179505,0.8861829556725418
1684782939231826,0.3700617990386812,0.29596398870832363,0.8905775539787903
1684782939247814,0.3716487373159376,0.29034866865033937,0.8892347600518811
1684782939263801,0.3690852216372926,0.2893720912489508,0.8882581826504925
1684782939279789,0.37274738689249975,0.2923018234531165,0.8847180895704589
1684782939295776,0.3729915312428469,0.2943770504310672,0.8850843060959797
1684782939311763,0.3726253147173262,0.29034866865033937,0.8876478217746246
1684782939327751,0.3707942320897226,0.2931563286793315,0.8865491721980625
1684782939343738,0.3688410772869455,0.2918135347524222,0.8903334096284432
1684782939359710,0.3705500877393755,0.2898603799496451,0.8893568322270546
1684782939375698,0.3717708094911112,0.2952315556572822,0.8850843060959797
1684782939391685,0.3714045929655905,0.2974288548104065,0.8826428625925082
1684782939407673,0.37396810864423546,0.29376668955519936,0.878736552986954
1684782939423660,0.3754329747463192,0.2940108339055465,0.8827649347676818
1684782939439647,0.37360189211871475,0.29083695735103365,0.8904554818036168
1684782939455635,0.3729915312428469,0.2926680399786372,0.8854505226215004
1684782939471622,0.37225909819180547,0.2952315556572822,0.8848401617456325
1684782939487609,0.3755550469214928,0.2932784008545051,0.8803234912642104
1684782939503597,0.3743343251697562,0.2877851529716944,0.883863584344244
1684782939519584,0.3709163042648962,0.2993820096131836,0.896070801861601
1684782939535572,0.3725032425421526,0.29547570000762935,0.8815442130159461
1684782939551559,0.3738460364690619,0.2918135347524222,0.8853284504463268
1684782939567546,0.3699397268635076,0.29425497825589364,0.8856946669718475
1684782939583534,0.37189288166628476,0.29510948348210864,0.8880140383001454
1684782939599521,0.3714045929655905,0.2936446173800258,0.8875257495994511
1684782939615509,0.3709163042648962,0.29596398870832363,0.8870374608987568
1684782939631496,0.3776302738994435,0.2940108339055465,0.8809338521400782
1684782939647483,0.3742122529945826,0.2943770504310672,0.8781261921110861
1684782939663471,0.3721370260166319,0.2953536278324558,0.8816662851911197
1684782939679474,0.3734798199435412,0.29340047302967864,0.8896009765774018
1684782939695461,0.3737239642938883,0.2957198443579765,0.8853284504463268
1684782939711448,0.37201495384145833,0.2927901121538108,0.8861829556725418
1684782939727436,0.3705500877393755,0.2938887617303729,0.882154573891814
1684782939743423,0.3733577477683676,0.2927901121538108,0.8845960173952854
1684782939759410,0.37225909819180547,0.2936446173800258,0.8848401617456325
1684782939775398,0.37030594338902834,0.2953536278324558,0.8870374608987568
1684782939791385,0.3733577477683676,0.29254596780346365,0.8872816052491039
1684782939807373,0.3709163042648962,0.2935225452048522,0.8828870069428554
1684782939823360,0.37567711909666635,0.2888838025482565,0.8825207904173347
1684782939839347,0.3712825207904169,0.29803921568627434,0.8898451209277489
1684782939855335,0.3712825207904169,0.2938887617303729,0.880445563439384
1684782939871322,0.37201495384145833,0.2948653391317615,0.8866712443732361
1684782939887310,0.3717708094911112,0.2948653391317615,0.8867933165484096
1684782939903297,0.37225909819180547,0.29303425650415793,0.8874036774242775
1684782939919284,0.3707942320897226,0.2960860608834972,0.8861829556725418
1684782939935272,0.37323567559319404,0.29462119478141435,0.8842298008697647
1684782939951259,0.3726253147173262,0.2943770504310672,0.8855725947966739
1684782939967247,0.37225909819180547,0.2944991226062408,0.8856946669718475
1684782939983234,0.3743343251697562,0.2938887617303729,0.8847180895704589
1684782939999237,0.3771419851987492,0.2943770504310672,0.8831311512932025
1684782940015224,0.3737239642938883,0.29462119478141435,0.8825207904173347
1684782940031211,0.3717708094911112,0.2969405661097122,0.8826428625925082
1684782940047199,0.37360189211871475,0.29584191653315006,0.8825207904173347
1684782940063186,0.37360189211871475,0.29462119478141435,0.8826428625925082
1684782940079174,0.3737239642938883,0.2953536278324558,0.8850843060959797
1684782940095161,0.37274738689249975,0.2944991226062408,0.8850843060959797
1684782940111148,0.37531090257114563,0.29120317387655437,0.8777599755855654
1684782940127136,0.3707942320897226,0.29633020523384435,0.8860608834973682
1684782940143123,0.3726253147173262,0.2960860608834972,0.8882581826504925
1684782940159111,0.3717708094911112,0.29425497825589364,0.8892347600518811
1684782940175098,0.3721370260166319,0.2894941634241244,0.8852063782711532
1684782940191085,0.37103837644006976,0.29498741130693507,0.8859388113221947
1684782940207073,0.3726253147173262,0.2974288548104065,0.8834973678187232
1684782940223060,0.3745784695201033,0.2964522774090179,0.8805676356145575
1684782940239048,0.37482261387045046,0.2910811017013808,0.881300068665599
1684782940255035,0.37238117036697904,0.2943770504310672,0.8823987182421611
1684782940271022,0.37274738689249975,0.2923018234531165,0.8866712443732361
1684782940287010,0.3707942320897226,0.2957198443579765,0.8877698939497982
1684782940302997,0.3738460364690619,0.29205767910276936,0.8848401617456325
1684782940318969,0.3725032425421526,0.29413290608072007,0.8817883573662932
1684782940334957,0.37225909819180547,0.29510948348210864,0.8828870069428554
1684782940350944,0.3726253147173262,0.29498741130693507,0.8850843060959797
1684782940366932,0.3721370260166319,0.2915693904020751,0.8828870069428554
1684782940382919,0.3725032425421526,0.2938887617303729,0.8847180895704589
1684782940398906,0.3738460364690619,0.29413290608072007,0.8881361104753189
1684782940414894,0.3742122529945826,0.29169146257724865,0.8797131303883425
1684782940430881,0.3678644998855569,0.29596398870832363,0.8908216983291375
1684782940446869,0.3738460364690619,0.2973067826352329,0.8845960173952854
1684782940462856,0.3728694590676733,0.29584191653315006,0.8805676356145575
1684782940478843,0.37238117036697904,0.29413290608072007,0.8916762035553525
1684782940494831,0.3705500877393755,0.2935225452048522,0.8860608834973682
1684782940510818,0.3755550469214928,0.2897383077744715,0.8845960173952854
1684782940526806,0.3770199130235756,0.29120317387655437,0.8858167391470211
1684782940542793,0.3757991912718399,0.2938887617303729,0.8817883573662932
1684782940558780,0.3738460364690619,0.2955977721828029,0.8819104295414668
1684782940574768,0.3733577477683676,0.2940108339055465,0.881300068665599
1684782940590755,0.37567711909666635,0.29291218432898436,0.8859388113221947
1684782940606742,0.3717708094911112,0.2931563286793315,0.8808117799649047
1684782940622730,0.37396810864423546,0.29132524605172794,0.8858167391470211
1684782940638733,0.37189288166628476,0.2936446173800258,0.8853284504463268
1684782940654720,0.3755550469214928,0.29303425650415793,0.8859388113221947
1684782940670707,0.37518883039597206,0.2932784008545051,0.8867933165484096
1684782940686695,0.37274738689249975,0.29376668955519936,0.8875257495994511
1684782940702682,0.3726253147173262,0.29205767910276936,0.8832532234683761
1684782940718670,0.3742122529945826,0.2919356069275958,0.8900892652780961
1684782940734657,0.37030594338902834,0.29303425650415793,0.8913099870298318
1684782940750644,0.37311360341802047,0.2919356069275958,0.8827649347676818
1684782940766632,0.37067215991454905,0.29510948348210864,0.8864271000228889
1684782940782619,0.3728694590676733,0.29584191653315006,0.8852063782711532
1684782940798606,0.3779964904249642,0.28827344167238866,0.8843518730449382
1684782940814594,0.3707942320897226,0.2944991226062408,0.8881361104753189
1684782940830581,0.3750667582207985,0.2902265964751658,0.8800793469138632
1684782940846569,0.37909514000152633,0.29083695735103365,0.8792248416876483
1684782940862556,0.37409018081940903,0.2982833600366215,0.8893568322270546
1684782940878543,0.3738460364690619,0.29877164873731576,0.8861829556725418
1684782940894531,0.3743343251697562,0.2869306477454794,0.8781261921110861
1684782940910518,0.38202487220569203,0.2843671320668344,0.8771496147096975
1684782940926506,0.3766536964980549,0.2780193789578087,0.8760509651331354
1684782940942493,0.3750667582207985,0.29791714351110077,0.8931410696574353
1684782940958465,0.3776302738994435,0.29425497825589364,0.8850843060959797
1684782940974453,0.38068207827878275,0.3014572365911343,0.8808117799649047
1684782940990440,0.37640955214770777,0.2938887617303729,0.8976577401388575
1684782941006427,0.3851987487602049,0.2800946059357594,0.8930189974822618
1684782941022415,0.3952086671244377,0.26349279011215376,0.8860608834973682
1684782941038402,0.3771419851987492,0.30389868009460574,0.868238345922026
1684782941054390,0.35590142671854696,0.2931563286793315,0.8522468909742882
1684782941070377,0.36639963378347407,0.32953383688105564,0.9405050736247809
1684782941086364,0.3549248493171584,0.32745860990310494,0.8755626764324411
1684782941102352,0.36725413900968906,0.29877164873731576,0.8549324788281067
1684782941118339,0.36810864423590406,0.28912794689860366,0.8854505226215004
1684782941134327,0.3661554894331269,0.30353246356908503,0.838941023880369
1684782941150314,0.3466239414053556,0.36945143816281334,0.8998550392919817
1684782941166301,0.34833295185778557,0.33698023956664347,0.9076676585030903
1684782941182289,0.346501869230182,0.36224917982757265,0.8386968795300218
1684782941198276,0.36737621118486263,0.29633020523384435,0.9024185549706267
1684782941214264,0.353337911039902,0.35931944762340695,0.8288090333409626
1684782941230251,0.3591973754482334,0.33160906385900635,0.8865491721980625
1684782941246238,0.35809872587167124,0.34003204394598274,0.899488822766461
1684782941262226,0.3554131380178527,0.33295185778591563,0.901197833218891
1684782941278228,0.3616388189517048,0.33282978561074206,0.8920424200808732
1684782941294216,0.348210879682612,0.345647364003967,0.9070572976272224
1684782941310203,0.30853742275120144,0.3557793545433734,0.822705424582284
1684782941326191,0.3602960250247955,0.42816815442130185,0.8919203479056996
1684782941342178,0.391424429694057,0.32990005340657635,0.8589608606088346
1684782941358165,0.4027771419851991,0.3270923933775842,0.849439230945296
1684782941374153,0.38483253223468417,0.3690852216372926,0.8307621881437397
1684782941390140,0.393987945372702,0.34076447699702417,0.9073014419775696
1684782941406128,0.37116044861524333,0.3153734645609214,0.9110856794079503
1684782941422115,0.35382619974059626,0.4018005645838105,0.8861829556725418
1684782941438102,0.38190280003051846,0.38019378957808847,0.9961699855039292
1684782941454090,0.3988708323796448,0.36310368505378765,0.9798123140306707
1684782941470077,0.4136415655756469,0.34796673533226485,0.9698023956664379
1684782941486065,0.4561226825360496,0.2675211718928816,0.896070801861601
1684782941502052,0.5254596780346379,0.20343327992675686,0.7189440756847487
1684782941518039,0.6127412832837411,0.14752422369726137,0.5967498283360033
1684782941534027,0.655710688944839,0.13311970702678,0.6004119935912104
1684782941550014,0.6037079423208969,0.21954680704966822,0.5927214465552755
1684782941566002,0.5330281528953993,0.30511940184634145,0.7069810025177388
1684782941581989,0.45246051728084247,0.20892652780956755,0.6171358815899897
1684782941597992,0.5037308308537423,0.3195239185168228,0.7918211642633706
1684782941613979,0.572945754177157,0.4339055466544597,0.951857785915923
1684782941629966,0.5347371633478293,0.425848783093004,0.8842298008697647
1684782941645954,0.496406500343328,0.4060730907148855,0.5781948577096205
1684782941661941,0.5206988632028686,0.3540703440909434,0.6415503166247047
1684782941677929,0.5582970931563285,0.2973067826352329,0.9224383916990924
1684782941693916,0.4967727168688487,0.388006408789197,0.8463874265659568
1684782941709903,0.4387884336614025,0.5110551613641565,0.6353246356908526
1684782941725891,0.46894026092927454,0.4881055924315252,0.8352788586251618
1684782941741878,0.5059281300068665,0.4036316472114141,0.8157473105973905
1684782941757866,0.5167925535973144,0.35553521019302625,0.722850385290303
1684782941773853,0.5000686655985351,0.38702983138780844,0.7757076371404592
1684782941789840,0.5011673151750973,0.4065613794155798,0.7847409781033035
1684782941805828,0.4898146028839552,0.3960631723506527,0.815869382772564
1684782941821815,0.4787060349431602,0.4110780498970019,0.7854734111543449
1684782941837803,0.47223620965896096,0.43695735103379896,0.7920653086137177
1684782941853790,0.47223620965896096,0.457709620813306,0.8152590218966962
1684782941869777,0.4793163958190281,0.41901274128328403,0.7685053788052185
1684782941885765,0.48786144808117804,0.42694743266956614,0.7566643778133821
1684782941901752,0.5033646143282215,0.3883726253147177,0.7711909666590371
1684782941917724,0.5001907377737087,0.38959334706645343,0.7614251926451514
1684782941933712,0.4859082932784009,0.39533073929961127,0.7671625848783092
1684782941949699,0.4707713435568781,0.4522163729304953,0.784863050278477
1684782941965686,0.4732127870603495,0.44196231021591537,0.8025635156786448
1684782941981674,0.495551995117113,0.41547264820325047,0.7671625848783092
1684782941997661,0.5313191424429693,0.3382009613183792,0.7420157167925536
1684782942013649,0.5152056153200579,0.35382619974059626,0.7466544594491493
1684782942029636,0.48017090104524307,0.43488212405584825,0.7937743190661477
1684782942045623,0.4876173037308309,0.4299992370489054,0.800244144350347
1684782942061611,0.508369573510338,0.3650568398565648,0.7627679865720607
1684782942077598,0.5039749752040894,0.3804379339284356,0.7573968108644236
1684782942093586,0.495551995117113,0.41937895780880474,0.789135576409552
1684782942109573,0.4950637064164187,0.4024109254596784,0.7801022354467078
1684782942125560,0.4948195620660716,0.39240100709544556,0.7537346456092164
1684782942141548,0.5029983978027008,0.39069199664301557,0.7730220492866406
1684782942157535,0.49530785076676587,0.40961318379491907,0.7779049362935835
1684782942173523,0.49250019073777374,0.41437399862668833,0.7768062867170213
1684782942189510,0.5103227283131151,0.39423208972304913,0.7716792553597314
1684782942205497,0.5033646143282215,0.39496452277409055,0.7597161821927214
1684782942221485,0.49237811856260016,0.40839246204318336,0.7743648432135499
1684782942237487,0.5029983978027008,0.3788509956511792,0.7674067292286564
1684782942253475,0.5084916456855115,0.3884946974898913,0.7611810482948043
1684782942269462,0.4795605401693752,0.4431830319676511,0.7990234225986113
1684782942285450,0.47724116884107737,0.4320744640268561,0.8087891966124969
1684782942301437,0.49335469596398873,0.4019226367589841,0.7595941100175478
1684782942317424,0.5029983978027008,0.38580910963607273,0.7626459143968871
1684782942333412,0.48871595330739304,0.40497444113832337,0.7907225146868084
1684782942349399,0.4805371175707638,0.42853437094682256,0.764965285725185
1684782942365387,0.5005569542992294,0.39203479056992485,0.7631342030975814
1684782942381374,0.502388036926833,0.39044785229266843,0.7819333180743113
1684782942397361,0.48444342717631805,0.41803616388189546,0.7633783474479285
1684782942413349,0.4841992828259709,0.41632715342946547,0.7849851224536506
1684782942429336,0.4918898298619059,0.40302128633554624,0.7948729686427098
1684782942445324,0.49237811856260016,0.4007019150072484,0.7605706874189364
1684782942461311,0.4879835202563516,0.4153505760280769,0.7902342259861141
1684782942477298,0.49079118028534374,0.41388570992599405,0.7847409781033035
1684782942493286,0.4976272220950637,0.396551461051347,0.7455558098725872
1684782942509273,0.4997024490730144,0.38580910963607273,0.7577630273899443
1684782942525261,0.48859388113221947,0.4119325551232169,0.7844968337529563
1684782942541248,0.4850537880521859,0.4216983291371026,0.7890135042343784
1684782942557220,0.492133974212253,0.4141298542763412,0.7677729457541771
1684782942573207,0.4922560463874266,0.387151903562982,0.788281071183337
1684782942589195,0.48407721065079734,0.41803616388189546,0.7545891508354314
1684782942605182,0.49713893339436943,0.393987945372702,0.7849851224536506
1684782942621170,0.49616235599298086,0.4132753490501262,0.778881513694972
1684782942637157,0.48651865415426876,0.4065613794155798,0.7560540169375143
1684782942653144,0.49152361333638517,0.4043640802624555,0.781445029373617
1684782942669132,0.49115739681086446,0.41596093690394476,0.7820553902494849
1684782942685119,0.4813916227969788,0.4129091325246055,0.7693598840314335
1684782942701107,0.4807812619211109,0.40851453421835693,0.7819333180743113
1684782942717094,0.48017090104524307,0.4229190508888383,0.7949950408178834
1684782942733081,0.4821240558480202,0.42011139085984617,0.768383306630045
1684782942749069,0.4859082932784009,0.38910505836575915,0.7746089875638971
1684782942765056,0.5031204699778744,0.41522850385290333,0.787426565957122
1684782942781044,0.47943846799420164,0.4337834744792861,0.7855954833295185
1684782942797031,0.4893263141832609,0.39581902800030555,0.7661860074769207
1684782942813018,0.5010452429999237,0.3872739757381556,0.7708247501335164
1684782942829006,0.4909132524605173,0.4119325551232169,0.7484855420767529
1684782942844993,0.4805371175707638,0.4102235446707869,0.7859616998550392
1684782942860981,0.4834668497749295,0.41596093690394476,0.7964599069199663
1684782942876983,0.4884718089570459,0.41474021515220905,0.7710688944838635
1684782942892971,0.48480964370183877,0.40119020370794267,0.7682612344548714
1684782942908958,0.48200198367284663,0.421576256961929,0.7873044937819484
1684782942924945,0.49445334554055087,0.4010681315327691,0.7801022354467078
1684782942940933,0.4838330663004502,0.41144426642252263,0.7663080796520942
1684782942956920,0.47858396276798665,0.43109788662546755,0.786572060730907
1684782942972908,0.48444342717631805,0.4157167925535976,0.7776607919432363
1684782942988895,0.48651865415426876,0.40204470893415767,0.7707026779583428
1684782943004882,0.48017090104524307,0.4196231021591519,0.7743648432135499
1684782943020870,0.4892042420080873,0.4044861524376291,0.7749752040894178
1684782943036857,0.49030289158464946,0.4158388647287712,0.7642328526741435
1684782943052845,0.4855420767528802,0.40167849240863696,0.7830319676508735
1684782943068832,0.49079118028534374,0.4162050812542919,0.7702143892576485
1684782943084819,0.48322270542458234,0.40631723506523265,0.7769283588921949
1684782943100807,0.4779736018921188,0.424139772640574,0.7785152971694513
1684782943116794,0.48114747844663164,0.41889066910811046,0.7843747615777827
1684782943132782,0.48493171587701234,0.4077821011673155,0.7812008850232699
1684782943148769,0.48651865415426876,0.41437399862668833,0.7677729457541771
1684782943164756,0.49372091248950944,0.39752803845273554,0.7694819562066071
1684782943180744,0.4874952315556573,0.4213321126115819,0.756420233463035
1684782943196716,0.47980468451972236,0.4263370717936983,0.76069275959411
1684782943212703,0.4807812619211109,0.4237735561150533,0.7807125963225756
1684782943228691,0.49286640726329445,0.40375371938658766,0.7761959258411535
1684782943244678,0.48407721065079734,0.421576256961929,0.7772945754177156
1684782943260666,0.4779736018921188,0.43146410315098827,0.7902342259861141
1684782943276653,0.4804150453955902,0.426703288319219,0.7636224917982757
1684782943292640,0.4807812619211109,0.4213321126115819,0.76752880140383
1684782943308628,0.48737315938048376,0.42682536049439257,0.7875486381322956
1684782943324615,0.4841992828259709,0.4166933699549862,0.7721675440604256
1684782943340602,0.4854200045777066,0.4212100404364083,0.766674296177615
1684782943356590,0.48029297322041664,0.44000915541313823,0.7753414206149385
1684782943372577,0.47895017929350736,0.4320744640268561,0.7860837720302127
1684782943388565,0.4737010757610438,0.4451361867704282,0.7919432364385441
1684782943404552,0.47907225146868093,0.4124208438239112,0.8296635385671776
1684782943420539,0.4641794460975053,0.4545357442587932,0.8169680323491262
1684782943436527,0.5141069657434958,0.396551461051347,0.7630121309224078
1684782943452514,0.523994811932555,0.4002136263065541,0.7542229343099107
1684782943468502,0.4960402838178073,0.4711375600823988,0.7638666361486228
1684782943484489,0.49237811856260016,0.48993667505912875,0.7997558556496527
1684782943500476,0.5144731822690165,0.49420920119020373,0.7903562981612877
1684782943516479,0.5073929961089494,0.4754100862134738,0.7830319676508735
1684782943532467,0.5297322041657129,0.384588387884337,0.7002670328831924
1684782943548454,0.5748989089799341,0.3296559090562292,0.7204089417868316
1684782943564441,0.5407186999313343,0.5364461738002593,0.8097657740138855
1684782943580429,0.5460898756389714,0.4007019150072484,0.7249256122682537
1684782943596416,0.5933318074311433,0.41901274128328403,0.7853513389791713
1684782943612403,0.595407034409094,0.3936217288471813,0.761547264820325
1684782943628391,0.6338597695887698,0.28668650339513224,0.6839093614099339
1684782943644378,0.6697489890897996,0.22626077668421463,0.6339818417639433
1684782943660366,0.6891584649423974,0.24310673685816742,0.5869840543221176
1684782943676353,0.6897688258182653,0.2595864805065995,0.5713588158999006
1684782943692340,0.6842755779354546,0.2650797283894102,0.6347142748149848
1684782943708328,0.6782940413519496,0.3834897383077749,0.6438696879530026
1684782943724315,0.6681620508125432,0.43195239185168255,0.687571526665141
1684782943740303,0.6719462882429239,0.4061951628900591,0.6422827496757462
1684782943756290,0.6373998626688033,0.40766002899214193,0.6034637979705497
1684782943772277,0.6959945067521174,0.27399099717708086,0.6215304798962382
1684782943788265,0.7114976729991609,0.3775082017242699,0.45844205386434744
1684782943804252,0.6995345998321509,0.386297398336767,0.41010147249561335
1684782943820240,0.7093003738460366,0.3875181200885027,0.47479972533760595
1684782943836242,0.7268787670710308,0.47650873579003594,0.5790493629358355
1684782943852230,0.7206530861371787,0.6012664988174254,0.7287098496986344
1684782943868217,0.7166247043564509,0.600534065766384,0.858838788433661
1684782943884204,0.7694819562066071,0.2993820096131836,0.7896238651102463
1684782943900192,0.792553597314412,0.09808499275196425,0.9843289845120928
1684782943916179,0.7835202563515677,0.013488975356679589,1.3106279087510488
1684782943932167,0.8615243762874796,-0.2595864805065995,1.22041657129778
1684782943948154,0.5386434729533836,0.057068741893644415,1.1971007858396279
1684782943964141,0.3930113679713134,-0.510933089188983,0.8091554131380176
1684782943980129,0.5094682230869001,-0.3631036850537881,1.159502555886168
1684782943996116,0.4072938124666212,-0.21979095140001537,0.75385671778439
1684782944012104,0.2179598687724118,-0.25799954222934307,0.48395513847562377
1684782944028091,0.20184634164950044,-0.506660563057908,0.43402761882963325
1684782944044078,0.12970168612192,-0.21356527046616325,0.32990005340657635
1684782944060066,0.04827954528114731,-0.14618142977035165,0.4259708552681776
1684782944076053,0.009216449225604606,-0.1299458304722667,0.5327840085450521
1684782944092041,0.14801251239795565,-0.25433737697413594,0.6229953459983211
1684782944108028,0.28827344167238866,-0.40692759594110006,0.52826733806363
1684782944124015,0.4364690623331047,-0.39850461585412367,0.4833447775997559
1684782944140003,0.4876173037308309,-0.6570534828717478,0.6400854505226219
1684782944155975,0.5540245670252535,-0.5554894331273363,0.5104448004882887
1684782944171962,0.8705577172503238,-0.6802471961547263,0.754711223010605
1684782944187950,1.0876020447089338,-0.6269016556038758,0.7599603265430686
1684782944203937,1.154985885404746,-0.6082246128023194,0.9069352254520489
1684782944219925,0.946730754558633,-0.5331502250705729,0.7733882658121614
1684782944235912,0.5706263828488591,-0.6641336690318149,0.5589074540321963
1684782944251899,0.6984359502555888,-0.7317616540779737,1.0302281223773555
1684782944267887,0.5169146257724879,-0.5053177691309987,1.0506141756313419
1684782944283874,0.4683299000534067,-0.7367666132600901,0.4683299000534067
1684782944299862,0.4356145571068897,-0.8903334096284428,0.44953078507667676
1684782944315849,0.3921568627450984,-0.7782711528191042,0.40717174029144765
1684782944331836,0.0319218738078888,-0.6002899214160373,0.7327382314793622
1684782944347824,0.28119325551232155,-0.7086900129701688,1.37117570763714
1684782944363811,0.36359197375448193,-1.0153353170061798,1.2697337300679026
1684782944379799,0.4246280613412683,-0.8986343175402456,0.9251239795529109
1684782944395786,0.2818036163881894,-0.893385214007782,0.6331273365377283
1684782944411773,0.3898374914168006,-1.0880903334096286,0.8833752956435497
1684782944427761,0.31525139238574784,-1.1128709849698635,0.9596704051270315
1684782944443748,0.3830014496070806,-0.9989776455329213,1.1640192263675901
1684782944459735,0.3851987487602049,-0.9672388799877929,0.7400625619897765
1684782944475708,0.47821774624246594,-1.0221713588158998,0.6216525520714118
1684782944491695,0.559273670557717,-0.7645990691996642,0.7708247501335164
1684782944507682,0.5443808651865414,-0.7499504081788357,0.784008545052262
1684782944523670,0.49152361333638517,-0.6619363698786906,0.7387197680628672
1684782944539657,0.36481269550621764,-0.5177691309987029,0.6674296177615018
1684782944555645,0.24957656214236668,-0.27618829633020514,0.7274891279468987
1684782944571632,0.27118333714808873,-0.272526131074998,0.7007553215838866
1684782944587619,0.41132219424734906,-0.1969634546425576,0.49579613946746015
1684782944603607,0.492988479438468,-0.4418402380407418,0.49579613946746015
1684782944619594,0.4860303654535745,-0.41742580300602716,0.10370031280994851
1684782944635582,0.5515831235217821,-0.6276340886549172,-0.0214236667429617
1684782944651569,0.6483863584344247,-0.5869840543221181,0.09735255970092282
1684782944667556,0.6697489890897996,-0.4816357671473259,0.29120317387655437
1684782944683544,0.6234836346990154,-0.5373006790264743,0.31647211413748355
1684782944699531,0.6521705958648054,-0.4754100862134738,0.29718471046005934
1684782944715519,0.652292668039979,-0.42975509269855783,0.10113679713130352
1684782944731506,0.74531166552224,-0.5324177920195314,0.11725032425421489
1684782944747493,0.8356450751506825,-0.6765850308995192,-0.020569161516746703
1684782944763481,0.9055924315251396,-0.8178225375753416,-0.0829480430304419
1684782944779468,0.8811779964904254,-0.7771725032425421,-0.0604867627985044
1684782944795471,0.7898680094605934,-0.6358129243915465,0.04071107042038591
1684782944811458,0.6854962996871903,-0.39398794537270154,0.2986495765621422
1684782944827446,0.678171969176776,-0.3768978408484016,0.3557793545433734
1684782944843433,0.746166170748455,-0.3031662470435643,0.3699397268635076
1684782944859420,0.8366216525520711,-0.2448157473105974,0.578927290760662
1684782944875408,0.9469748989089801,-0.4716258487830931,0.29755092698558006
1684782944891395,0.9832303349355307,-0.7172350652323187,0.02288853284504455
1684782944907383,0.8676279850461581,-0.8506599526970322,-0.13910124361028453
1684782944923370,0.795117112993057,-0.8607919432364386,-0.12628366521705958
1684782944939357,0.8086671244373234,-0.6533913176165407,0.10736247806515564
1684782944955345,0.7101548790722516,-0.5119096665903715,0.33331807431143634
1684782944971332,0.8015869382772562,-0.4531929503318839,0.4851758602273595
1684782944987320,0.8347905699244675,-0.42035553521019287,0.4821240558480202
1684782945003307,0.789990081635767,-0.48908216983291375,0.38617532616159345
1684782945019294,0.6571755550469218,-0.42926680399786354,0.22784771496147105
1684782945035282,0.6083466849774926,-0.38715190356298157,0.11773861295490917
1684782945051269,0.7161364156557566,-0.5691615167467767,0.005188067444876765
1684782945067257,0.8452887769893946,-0.620309758144503,0.012512397955291021
1684782945083244,1.0214389257648584,-0.672922865644312,0.33209735255970063
1684782945099231,1.0711223010605018,-0.7858396276798656,0.3960631723506527
1684782945115234,0.933058670939193,-0.7716792553597314,0.1856107423514155
1684782945131221,0.8041504539559012,-0.7774166475928892,0.18793011367971335
1684782945147209,0.6120088502326997,-0.5404745555809871,0.28033875028610655
1684782945163196,0.6588845654993518,-0.5381551842526893,0.36847486076142477
1684782945179184,0.7284657053482873,-0.6742656595712213,0.394842450598917
1684782945195171,0.7357900358587015,-0.6459449149309529,0.1890287632562755
1684782945211158,0.6464332036316476,-0.49494163424124515,0.4279240100709547
1684782945227146,0.6066376745250626,-0.41071183337148076,0.5828336003662162
1684782945243133,0.6317845426108191,-0.42084382391088715,0.5535362783245592
1684782945259121,0.7620355535210193,-0.49457541771572444,0.6157930876630804
1684782945275108,0.8032959487296862,-0.7003891050583659,0.5545128557259478
1684782945291095,0.7301747158007172,-0.5873502708476388,0.42108796826123474
1684782945307083,0.6366674296177619,-0.6378881513694972,0.3902037079423213
1684782945323070,0.6040741588464176,-0.5089799343862058,0.31866941329060783
1684782945339058,0.676462958724346,-0.5587853818570228,0.6168917372396425
1684782945355045,0.7653315022507057,-0.6675516899366749,0.6155489433127332
1684782945371032,0.6933089188982988,-0.7349355306324865,0.28278019378957797
1684782945387020,0.6811017013809417,-0.7445792324711986,0.2835126268406194
1684782945403007,0.6843976501106281,-0.6553444724193178,0.4959182116426337
1684782945418995,0.6441138323033497,-0.6674296177615013,0.4664988174258031
1684782945434967,0.693553063248646,-0.5912565804531931,0.4435492484931718
1684782945450954,0.6898908979934388,-0.645334554055085,0.48065918974593735
1684782945466941,0.688426031891356,-0.5607385366597999,0.5070267795834287
1684782945482929,0.6563210498207068,-0.5530479896238649,0.4845654993514916
1684782945498916,0.6436255436026554,-0.5365682459754328,0.43695735103379896
1684782945514904,0.6461890592813004,-0.5330281528953993,0.4691844052796217
1684782945530891,0.6555886167696654,-0.5647669184405282,0.44953078507667676
1684782945546878,0.6666971847104604,-0.5541466392004271,0.38861676966506487
1684782945562866,0.6970931563286795,-0.579903868162051,0.40338750286106695
1684782945578853,0.7267566948958573,-0.6548561837186235,0.38861676966506487
1684782945594841,0.7669184405279621,-0.6576638437476157,0.38202487220569203
1684782945610828,0.733104448004883,-0.5008010986495766,0.42938887617303756
1684782945626815,0.7298084992751965,-0.6870832379644463,0.390569924467842
1684782945642803,0.725413900968948,-0.6885481040665296,0.3943541618982227
1684782945658790,0.7162584878309302,-0.6710917830167085,0.28668650339513224
1684782945674778,0.7166247043564509,-0.6665751125352863,0.3246509498741128
1684782945690765,0.7052719920653088,-0.6646219577325092,0.3394216830701149
1684782945706752,0.6677958342870225,-0.6026092927443352,0.27789730678263513
1684782945722740,0.673044937819486,-0.6065156023498894,0.4103456168459605
1684782945738727,0.6607156481269554,-0.580758373388266,0.3926451514457927
1684782945754730,0.7342030975814451,-0.5541466392004271,0.5475547417410542
1684782945770717,0.7060044251163502,-0.5518272678721292,0.5694056610971234
1684782945786705,0.679026474402991,-0.6749980926222627,0.2944991226062408
1684782945802692,0.6652323186083775,-0.6392309452964064,0.2456702525368124
1684782945818679,0.7506828412298772,-0.749584191653315,0.19330128938735047
1684782945834667,0.6990463111314567,-0.5263141832608529,0.32281986724650924
1684782945850654,0.8048828870069427,-0.5812466620889603,0.4342717631799804
1684782945866642,0.7842526894026092,-0.46051728084229815,0.5387655451285571
1684782945882629,0.7737544823376821,-0.5318074311436636,0.47272449835965524
1684782945898616,0.7600823987182421,-0.5155718318455786,0.39459830624856984
1684782945914604,0.857984283207446,-0.648752574959945,0.41437399862668833
1684782945930591,0.8172121766994733,-0.5763637750820174,0.22455176623178463
1684782945946579,0.8292973220416568,-0.5269245441367207,0.21026932173647683
1684782945962566,0.8029297322041655,-0.4193789578088043,0.34552529182879343
1684782945978553,0.7914549477378499,-0.3036545357442586,0.4800488288700695
1684782945994541,0.7815671015487906,-0.2780193789578087,0.5844205386434727
1684782946010528,0.8347905699244675,-0.29047074082551294,0.6425268940260933
1684782946026516,0.8009765774013884,-0.3816586556801709,0.6370336461432826
1684782946042503,0.7570305943389029,-0.4396429388876175,0.33710231174181704
1684782946058490,0.8745860990310517,-0.6348363469901579,0.36945143816281334
1684782946074463,0.8823987182421611,-0.6383764400701915,0.19269092851148262
1684782946090450,0.8993667505912875,-0.5994354161898223,0.25348287174792095
1684782946106437,0.8211184863050276,-0.43219653620202925,0.4141298542763412
1684782946122425,0.7278553444724194,-0.4464789806973375,0.3649347676813912
1684782946138412,0.6782940413519496,-0.37286945906767377,0.37982757305256776
1684782946154399,0.7011215381094074,-0.2504310673685817,0.47895017929350736
1684782946170387,0.7558098725871671,-0.5065384908827344,0.4931105516136416
1684782946186374,0.7858396276798656,-0.3899595635919737,0.2977950713359272
1684782946202362,0.8373540856031125,-0.47821774624246594,0.5327840085450521
1684782946218349,0.7913328755626763,-0.40912489509422434,0.5103227283131151
1684782946234336,0.7287098496986344,-0.32208743419546826,0.426703288319219
1684782946250324,0.716868848706798,-0.27313649195086587,0.6391088731212333
1684782946266311,0.7207751583123523,-0.3336842908369575,0.5464560921644921
1684782946282299,0.8040283817807277,-0.4046082246128022,0.4740672922865645
1684782946298286,0.8462653543907832,-0.5446250095368885,0.35431448844129054
1684782946314273,0.868238345922026,-0.5099565117875944,0.3363698786907756
1684782946330261,0.8496833752956432,-0.44330510414282465,0.42389562829022687
1684782946346248,0.793408102540627,-0.3285572594796675,0.46588845654993527
1684782946362236,0.7138170443274587,-0.3211108567940797,0.5724574654764627
1684782946378223,0.7508049134050507,-0.28912794689860366,0.46771953917753883
1684782946394226,0.7272449835965515,-0.3390554665445946,0.5051956969558251
1684782946410213,0.7636224917982757,-0.3760433356221866,0.39960326543068625
1684782946426200,0.7978027008468755,-0.4816357671473259,0.40289921416037267
1684782946442188,0.8524910353246353,-0.575631342030976,0.38568703746089916
1684782946458175,0.7737544823376821,-0.5521934843976499,0.37360189211871475
1684782946474163,0.7703364614328221,-0.5548790722514685,0.4732127870603495
1684782946490150,0.6956282902265967,-0.43012130922407854,0.5707484550240327
1684782946506137,0.6312962539101248,-0.48688487067978947,0.5673304341191727
1684782946522125,0.6753643091477839,-0.4581979095140003,0.5423056382085907
1684782946538112,0.6912336919203481,-0.5633020523384453,0.5801480125123977
1684782946554100,0.6474097810330361,-0.6659647516594185,0.4699168383306631
1684782946570087,0.6507057297627226,-0.63080796520943,0.5084916456855115
1684782946586074,0.6571755550469218,-0.6945296406500345,0.3179369802395664
1684782946602062,0.6863508049134053,-0.7274891279468987,0.26398107881284805
1684782946618049,0.713450827801938,-0.6524147402151521,0.36444647898069693
1684782946634037,0.8294193942168304,-0.6383764400701915,0.4893263141832609
1684782946650024,0.7974364843213548,-0.5297322041657129,0.47394522011139095
1684782946666011,0.8694590676737617,-0.6657206073090713,0.2964522774090179
1684782946681999,0.7295643549248494,-0.46845197222858026,0.2587319752803845
1684782946697986,0.693553063248646,-0.40534065766384364,0.4531929503318839
1684782946713989,0.7293202105745022,-0.4312199588006407,0.4607614251926453
1684782946729976,0.7659418631265735,-0.5150835431448844,0.3728694590676733
1684782946745964,0.74189364461738,-0.4694285496299688,0.4074158846417948
1684782946761951,0.7301747158007172,-0.4762645914396888,0.3638361181048291
1684782946777938,0.7001449607080188,-0.5560997940032042,0.24713511863889526
1684782946793926,0.7763179980163271,-0.6464332036316471,0.23749141680018315
1684782946809913,0.8122072175173569,-0.7370107576104372,0.16095216296635417
1684782946825901,0.7986572060730905,-0.7786373693446249,0.19928282597085545
1684782946841888,0.7499504081788357,-0.7102769512474252,0.2540932326237888
1684782946857875,0.6865949492637524,-0.6593728542000457,0.35516899366750554
1684782946873863,0.6326390478370341,-0.5642786297398339,0.38995956359197415
1684782946889850,0.6067597467002361,-0.5839322499427788,0.41144426642252263
1684782946905838,0.6179903868162047,-0.6518043793392843,0.23273060196841389
1684782946921825,0.6697489890897996,-0.6872053101396198,0.24469367513542384
1684782946937812,0.6973373006790267,-0.7659418631265735,0.2141756313420311
1684782946953800,0.7603265430685893,-0.8059815365835048,0.2600747692072938
1684782946969787,0.7849851224536506,-0.8263675898374916,0.462836652170596
1684782946985775,0.681589990081636,-0.7027084763866638,0.28119325551232155
1684782947001762,0.6272678721293969,-0.6505836575875485,0.47431143663691167
1684782947017749,0.5816128786144805,-0.65302510109102,0.32233157854581496
1684782947033722,0.5901579308766305,-0.6155489433127337,0.37103837644006976
1684782947049709,0.5663538567177842,-0.6958724345769438,0.38568703746089916
1684782947065696,0.5468223086900128,-0.7354238193331808,0.27997253376058584
1684782947081684,0.5927214465552755,-0.7621576256961928,0.35309376668955483
1684782947097671,0.6212863355458911,-0.7670405127031357,0.30438696879530003
1684782947113659,0.6671854734111546,-0.7873044937819484,0.4254825665674833
1684782947129646,0.6245822842755775,-0.6996566720073245,0.4988479438467994
1684782947145633,0.5866178377965969,-0.657297627222095,0.4425726710917832
1684782947161621,0.5706263828488591,-0.672068360418097,0.3053635461966886
1684782947177608,0.6292210269321741,-0.7169909208819716,0.3726253147173262
1684782947193596,0.6410620279240105,-0.7199206530861373,0.2940108339055465
1684782947209583,0.6472877088578626,-0.6758525978484777,0.39154650186923057
1684782947225570,0.6561989776455333,-0.6276340886549172,0.4137636377508205
1684782947241558,0.660837720302129,-0.6331273365377279,0.49420920119020373
1684782947257545,0.6503395132372018,-0.6515602349889371,0.41766994735637475
1684782947273532,0.6410620279240105,-0.6425268940260929,0.4888380254825666
1684782947289520,0.6576638437476161,-0.7595941100175478,0.2888838025482565
1684782947305507,0.6724345769436182,-0.8097657740138855,0.19598687724116903
1684782947321495,0.6802471961547267,-0.7551995117112993,0.2909590295262072
1684782947337482,0.6588845654993518,-0.6641336690318149,0.3607843137254898
1684782947353485,0.6365453574425883,-0.6546120393682764,0.2738689250019073
1684782947369472,0.6575417715724425,-0.5258258945601586,0.4724803540093081
1684782947385460,0.6607156481269554,-0.5523155565728235,0.43073167009994684
1684782947401447,0.6695048447394525,-0.5904020752269781,0.4469672693980318
1684782947417434,0.6859845883878846,-0.5740444037537196,0.4965285725185016
1684782947433422,0.637766079194324,-0.6056610971236744,0.279362172884718
1684782947449409,0.6326390478370341,-0.6626688029297321,0.4649118791485467
1684782947465397,0.6057831692988476,-0.7016098268101016,0.27704280155642014
1684782947481384,0.655710688944839,-0.7243152513923858,0.42438391699092115
1684782947497371,0.6421606775005726,-0.7157701991302359,0.3566338597695884
1684782947513359,0.6297093156328684,-0.6845197222858013,0.44916456855115605
1684782947529346,0.6193331807431139,-0.6735332265201799,0.49750514991989014
1684782947545333,0.6173800259403368,-0.7006332494087131,0.4174258030060276
1684782947561321,0.6054169527733269,-0.669504844739452,0.4262149996185247
1684782947577308,0.6198214694438082,-0.643625543602655,0.48944838635843446
1684782947593296,0.6644998855573361,-0.6225070572976272,0.49530785076676587
1684782947609283,0.7047837033646145,-0.6341039139391165,0.45722133211261173
1684782947625270,0.6492408636606397,-0.7617914091706721,0.3747005416952769
1684782947641258,0.5709925993743799,-0.7647211413748378,0.3783627069504849
1684782947657245,0.6096894789044018,-0.65815213244831,0.5011673151750973
1684782947673217,0.49201190203707945,-0.7484855420767529,0.7027084763866638
1684782947689205,0.569527733272297,-0.6570534828717478,0.8054932478828105
1684782947705192,0.5637903410391392,-0.6461890592813,0.6937972075989931
1684782947721180,0.5808804455634391,-0.7183337148088809,0.6791485465781646
1684782947737167,0.5539024948500799,-0.617746242465858,0.6366674296177619
1684782947753154,0.5131303883421072,-0.5219195849546043,0.6847638666361489
1684782947769142,0.42682536049439257,-0.30939192797741644,0.7697261005569542
1684782947785129,0.3816586556801713,-0.31879148546578184,0.6962386511024645
1684782947801117,0.40338750286106695,-0.23761348897535672,0.6157930876630804
1684782947817104,0.42523842221713615,-0.2960860608834972,0.651438162813764
1684782947833091,0.5825894560158691,-0.4030212863355458,0.5409628442816814
1684782947849079,0.6372777904936298,-0.40863660639353006,0.5424277103837642
1684782947865066,0.685862516212711,-0.47980468451972236,0.5095902952620737
1684782947881054,0.6695048447394525,-0.5392538338292514,0.3117112993057143
1684782947897041,0.567818722819867,-0.4979934386205844,0.29462119478141435
1684782947913028,0.7827878233005263,-0.53681239032578,0.5905241474021512
1684782947929016,0.7034409094377052,-0.48859388113221947,0.39630731670099983
1684782947945003,0.6128633554589147,-0.40143434805828937,0.2728923476005187
1684782947960991,0.7893797207598992,-0.3311207751583125,0.5542687113756006
1684782947976978,0.7499504081788357,-0.3357595178149082,0.3029221026932172
1684782947992981,0.6110322728313111,-0.5136186770428015,-0.0018921187151903496
1684782948008968,0.7252918287937744,-0.7949950408178834,0.011291676203555312
1684782948024955,0.9303730830853745,-1.2357976653696499,-0.11712825207904176
1684782948040943,0.9970244907301442,-1.2879224841687646,0.17572289616235626
1684782948056930,1.1147020675974666,-1.2022278171969178,0.49115739681086446
1684782948072918,0.8845960173952854,-1.1839169909208818,0.2746013580529487
1684782948088905,0.4523384451056689,-0.7804684519722285,-0.001159685664148924
1684782948104892,0.22247653925383393,-0.694407568474861,0.1823147936217291
1684782948120880,0.18292515449759694,-0.4674753948271917,0.2368810559243153
1684782948136867,0.34369420920118987,-0.6803692683298999,0.4234073395895326
1684782948152855,0.34467078660257844,-0.8261234454871444,0.39032578011749486
1684782948168842,0.5571984435797663,-0.9961699855039292,0.4539253833829253
1684782948184829,0.6775616083009082,-1.030960555428397,0.34540321965361986
1684782948200817,0.4079041733424891,-0.9297627222095062,0.11224536507209848
1684782948216804,0.495551995117113,-0.9134050507362477,0.3867856870374613
1684782948232792,0.8577401388570989,-1.0168001831082627,0.48273441672388806
1684782948248779,0.5867399099717705,-1.050003814755474,0.12835889219501073
1684782948264766,0.48651865415426876,-0.8489509422446022,0.17352559700923198
1684782948280754,0.4561226825360496,-0.7110093842984666,0.24139772640573742
1684782948296741,0.5369344625009536,-0.7742427710383764,0.20062561989776473
1684782948312713,0.4771190966659038,-0.8440680552376594,0.13287556267643286
1684782948328701,0.40668345159075336,-0.7868162050812542,4.272526131074983E-4
1684782948344688,0.4472114137483789,-0.7136949721522852,0.12835889219501073
1684782948360675,0.4469672693980318,-0.6024872205691616,0.19427786678873904
1684782948376663,0.4102235446707869,-0.5503624017700464,0.11541924162661132
1684782948392650,0.3079270618753336,-0.7455558098725872,0.0386358434424352
1684782948408638,0.33966582742046203,-0.9442893110551616,-0.08453498130769832
1684782948424625,0.3435721370260163,-0.9500267032883194,-0.29718471046005934
1684782948440612,0.48065918974593735,-1.0200961318379491,-0.08087281605249119
1684782948456600,0.48322270542458234,-0.7832761120012206,-0.03595025558861664
1684782948472587,0.39630731670099983,-0.5349813076981764,-0.02423132677195383
1684782948488575,0.42011139085984617,-0.8644541084916457,-0.4298771648737314
1684782948504562,0.6137178606851297,-1.19478141451133,-0.4315861753261614
1684782948520549,0.6775616083009082,-1.1111619745174335,-0.30719462882429216
1684782948536537,0.5172808422980086,-1.0618448157473104,-0.18048371099412508
1684782948552524,0.3205004959182114,-1.1646295872434576,-0.31451895933470686
1684782948568512,0.3729915312428469,-1.2056458381017778,-0.10296787975890753
1684782948584499,0.4539253833829253,-0.25214007782101167,-0.22333104448004892
1684782948600486,0.7224841687647823,-0.4331731136034178,-0.3012130922407872
1684782948616474,0.4700389105058367,-1.0872358281834136,-0.23150988021667818
1684782948632476,0.5155718318455786,-0.786572060730907,-0.4564888990615703
1684782948648464,0.49921416037232014,-0.7006332494087131,-0.5700160219729917
1684782948664451,0.4968947890440223,-0.6826886396581977,-0.30719462882429216
1684782948680439,0.5236285954070343,-0.7088120851453423,-0.46771953917753883
1684782948696426,0.49872587167162585,-0.8434576943617915,-0.4379339284351875
1684782948712413,0.4931105516136416,-0.9572289616235601,-0.5962615396353095
1684782948728401,0.5579308766308078,-0.7829098954756999,-0.4379339284351875
1684782948744388,0.3930113679713134,-0.7887693598840313,-0.5303425650415807
1684782948760376,0.4535591668574046,-0.6983138780804152,-0.428290226596475
1684782948776363,0.4321965362020297,-0.7114976729991609,-0.6254367895017929
1684782948792350,0.39838254367895054,-0.6206759746700237,-0.4917677576867323
1684782948808338,0.41644922560463904,-0.6297093156328679,-0.43561455710688923
1684782948824325,0.43866636148622895,-0.6077363241016251,-0.4315861753261614
1684782948840313,0.5242389562829022,-0.6170138094148165,-0.387029831387808
1684782948856300,0.5730678263523306,-0.6586404211490042,-0.4569771877622646
1684782948872287,0.5645227740901806,-0.6962386511024645,-0.6414282444495307
1684782948888275,0.53510337987335,-0.719432364385443,-0.7038071259632259
1684782948904262,0.5206988632028686,-0.7757076371404592,-0.7251697566186008
1684782948920250,0.5176470588235293,-0.6854962996871898,-0.6858625162127105
1684782948936237,0.568673228046082,-0.7057602807660031,-0.5796597238117038
1684782948952209,0.5684290836957349,-0.6430151827267871,-0.5617151140611885
1684782948968196,0.5133745326924544,-0.6218966964217594,-0.561837186236362
1684782948984184,0.48358892195010306,-0.5131303883421072,-0.5842984664682995
1684782949000171,0.5646448462653542,-0.5929655909056231,-0.5412069886320285
1684782949016159,0.5564660105287249,-0.5772182803082324,-0.5991912718394752
1684782949032146,0.6081025406271454,-0.7449454489967193,-0.573067826352331
1684782949048133,0.603952086671244,-0.7111314564736402,-0.732249942778668
1684782949064121,0.5675745784695199,-0.6009002822919052,-0.6590066376745249
1684782949080108,0.6697489890897996,-0.5529259174486914,-0.530830853742275
1684782949096096,0.6192111085679404,-0.5514610513466085,-0.6276340886549172
