Timestamp (microseconds),Gyro X (°/s),Gyro Y (°/s),Gyro Z (°/s)
1684782923691497,-40.87891966124971,136.79713130388336,67.94842450598912
1684782923707495,-62.88242923628593,154.0398260471502,15.304798962386485
1684782923723492,4.654001678492364,59.18974593728535,-97.94766155489435
1684782923739490,19.058518348973735,-54.062714579995486,-103.56298161287862
1684782923755487,-81.92568856336311,-80.97962920576799,-32.425421530479866
1684782923771484,-99.68719005111768,-68.77241168841078,-16.159304188601595
1684782923787482,-69.74898908979935,-62.69932097352557,-33.46303501945522
1684782923803479,-50.705729762722285,-103.95971618219266,-40.17700465400162
1684782923819477,-29.983978027008447,-123.43022812237734,-31.998168917372368
1684782923835474,-98.03921568627447,-66.7887388418402,-22.69016556038764
1684782923851472,-101.21309224078732,9.231708247501274,-58.365758754863805
1684782923867469,-73.01441977569232,49.72915236133372,-74.3572137026016
1684782923883466,-98.00869764248114,29.648279545280957,-59.067673762111895
1684782923899464,-98.46646829938197,20.06561379415575,-55.802243076218815
1684782923915461,-80.67444876783406,1.9989318684672526,-35.11100938429843
1684782923931459,-66.51407644769972,-11.398489356832215,21.652552071412174
1684782923947456,-40.512703135729,-21.377889677271696,70.87815671015483
1684782923963453,-33.31044480048831,2.639810788128443,68.43671320668341
1684782923979451,-36.39276722362092,25.833524071106922,51.346608682383476
1684782923995448,3.4332799267566543,63.30968184939343,31.540398260471648
1684782924011444,31.174181734950707,45.67025253681254,21.04219119554432
1684782924027441,22.171358815899794,22.35446707866015,37.705043106736866
1684782924043439,18.204013122758738,32.120241092546166,39.7192339971009
1684782924059436,21.04219119554432,56.74830243381393,43.38139925230803
1684782924075433,39.566643778133994,73.53322652018005,47.92858777752349
1684782924091431,56.778820477607496,83.78728923476001,23.910887312123236
1684782924107428,28.061341268024535,45.73128862439921,-3.891050583657602
1684782924123426,-24.795910582131683,-14.02304112306399,-13.748378728923399
1684782924139423,-50.98039215686276,-40.665293354695905,-6.668192568856284
1684782924155420,-70.20675974670019,-51.52971694514383,3.7384603646905816
1684782924171418,-67.58220798046841,-41.0925459678034,4.745555809872599
1684782924187415,-20.40131227588313,14.236667429617683,-5.142290379186647
1684782924203413,16.15930418860148,49.66811627374682,0.7782101167315432
1684782924219410,-6.1493858243686645,36.026550698100436,19.79095140001516
1684782924235407,-51.255054551003354,9.597924773021987,41.550316624704465
1684782924251405,-72.31250476844434,-1.022354467078685,51.0109102006561
1684782924267402,-83.87884336614025,11.123826962691624,29.49568932631405
1684782924283400,-80.5523765926605,54.88670176241703,13.748378728923399
1684782924299397,-44.38849469748982,110.46005951018537,-2.6092927443351073
1684782924315395,14.389257648584703,141.16121156633858,-16.159304188601595
1684782924331359,-7.339589532310924,88.91432059204999,-4.074158846417959
1684782924347357,-9.079118028534367,66.02578774700532,17.68520637827112
1684782924363354,-55.58861676966512,20.553902494850036,43.99176012817588
1684782924379352,-119.64599069199664,-42.92362859540697,58.7930113679713
1684782924395349,-164.62958724345765,-94.89585717555508,21.225299458304676
1684782924411347,-104.4785229266804,-73.22804608224612,6.332494087129021
1684782924427344,-29.770351720454755,-28.33600366216524,16.03723201342791
1684782924443341,-9.536888685435201,3.768978408484031,15.304798962386485
1684782924459339,-50.30899519340812,-44.26642252231625,10.910200656137931
1684782924475336,-56.65674830243381,-59.43389028763261,-9.140154116121153
1684782924491334,-67.33806363012127,-39.566643778133766,-1.266498817425827
1684782924507331,-66.45304036011294,-20.889600976577412,13.839932860303634
1684782924523328,-73.86892500190731,-25.89456015869382,15.823605706874105
1684782924539326,-103.56298161287862,-65.01869230182342,5.600061036087595
1684782924555323,-67.79583428702222,-98.86320286869613,-23.392080567635617
1684782924571321,-50.6446936751355,-78.59922178988336,-40.63477531090257
1684782924587318,-36.02655069810021,-42.587930113679704,-19.88250553139551
1684782924603315,-38.803692683299005,-18.08194094758528,-23.056382085908353
1684782924619313,-36.05706874189366,-12.069886320286855,-17.685206378271232
1684782924635310,-32.76112001220724,-21.652552071412288,-13.565270466163042
1684782924651123,-34.68375677119093,-22.598611429007406,-18.600747692073014
1684782924667119,-20.187685969329436,-19.42473487449456,-0.6866559853513081
1684782924683116,-14.816510261692201,-17.624170290684447,-15.854123750667668
1684782924699112,-43.900205996795535,-42.557412069886254,-47.10460059510194
1684782924715108,-59.31181811245904,-74.29617761501481,-69.53536278324555
1684782924731105,-71.39696345464256,-68.46723125047686,-80.21667811093312
1684782924747101,-90.50125886930653,-50.61417563134205,-49.39345387960634
1684782924763098,-80.39978637369347,-29.861905851834877,-0.106813153276903
1684782924779094,-52.35370412756549,-17.502098115510876,9.475852597848416
1684782924795091,-66.17837796597235,-22.476539253833835,-20.187685969329436
1684782924811087,-92.17975127794307,-58.45731288624404,-47.07408255130849
1684782924827084,-125.74959945067519,-82.50553139543763,-64.40833142595557
1684782924843080,-89.18898298619058,-70.96971084153506,-71.39696345464256
1684782924859077,-61.81429770351724,-108.32379644464788,-68.13153276874948
1684782924875073,-78.416113527123,-177.0199130235752,-45.914396887159455
1684782924891070,-42.86259250782018,-150.22507057297628,-14.328221560997918
1684782924907066,-6.9733730067902115,-92.17975127794307,21.9577325093461
1684782924923062,-23.056382085908353,-64.83558403906306,19.82146944380861
1684782924939059,2.9144731822690346,-36.14862287327378,8.77393759060044
1684782924955055,45.85336079957278,-8.682383459220205,-2.182040131227609
1684782924970886,57.66384374761583,-0.93080033569845,-7.339589532310924
1684782924986882,34.71427481498449,0.7171740291447577,0.07629510948345342
1684782925002878,-84.18402380407417,-28.21393148699167,-28.305485618371904
1684782925018874,-73.19752803845267,-52.75043869687954,-71.61058976119625
1684782925034870,-51.62127107652407,-33.676661326009025,-56.56519417105369
1684782925050866,58.36575875486392,-26.32181277180132,-84.00091554131382
1684782925066862,49.08827344167253,9.109636072327703,-63.18760967421986
1684782925082858,35.26359960326545,41.82497901884494,-28.976882581826544
1684782925098854,15.701533531700534,65.32387273975746,-14.206149385824347
1684782925114850,53.33028152895395,21.072709239337655,-52.9335469596399
1684782925130846,48.2948043030442,16.58655680170898,-115.49553673609523
1684782925146842,-24.00244144350347,-20.584420538643485,-122.57572289616235
1684782925162838,-70.23727779049364,-101.76241702906839,-95.35362783245591
1684782925178834,-15.274280918593035,-311.787594415198,-87.32738231479368
1684782925194830,-20.00457770656908,-314.41214618142976,-101.30464637216755
1684782925210826,35.35515373464568,-168.50537880521858,-38.46799420157163
1684782925226822,60.440985732814624,-55.802243076218815,29.861905851834763
1684782925242818,98.52750438696899,30.624856946669524,60.7156481269551
1684782925258813,116.86884870679796,54.15426871137561,92.08819714656283
1684782925274809,81.52895399404883,0.41199359121083035,151.65941863126568
1684782925290649,43.80865186541541,-41.5197985809109,214.40451667048137
1684782925306645,-11.490043488212336,-82.99382009613191,143.32799267566952
1684782925322640,-9.781033035782343,-136.1867704280155,93.03425650415807
1684782925338636,-45.45662623025862,-241.80971999694827,86.59494926375214
1684782925354631,-84.9164568551156,-249.13405050736253,59.6475165941863
1684782925370627,-72.52613107499803,-207.29381246662092,76.82917524986647
1684782925386622,-86.10666056305797,-216.72388799877933,87.17479209582666
1684782925402618,-71.2138551918822,-215.8388647287709,70.87815671015483
1684782925418613,-15.335317006179821,-137.37697413595788,30.502784771495953
1684782925434609,41.85549706263828,-45.05989166094446,5.416952773327239
1684782925450604,54.70359349965679,-23.971923399710136,-8.194094758525921
1684782925466600,65.5069810025177,-47.440299076829206,-11.184863050278409
1684782925482595,35.41618982223258,-51.804379339284424,10.543984130617218
1684782925498591,34.13443198290997,-58.18265049210345,8.682383459220205
1684782925514586,-9.41481651026163,-30.411230640115946,16.6781109330891
1684782925530582,-51.19401846341657,5.203326466773433,18.72281986724647
1684782925546577,-53.910124361028466,67.15495536736103,38.986800946059475
1684782925562573,-51.59075303273062,134.9660486762798,71.18333714808887
1684782925578568,-85.09956511787595,159.53307392996112,77.50057221332099
1684782925594564,-85.80148012512404,190.17318989852743,77.01228351262671
1684782925610382,-118.5473411154345,215.25902189669637,72.49561303120458
1684782925626376,-274.4640268558786,220.01983672846586,104.23437857633326
1684782925642371,-364.8584725719081,159.96032654306873,130.23575188830387
1684782925658365,-325.55123216601817,59.28130006866559,36.7284657053483
1684782925674360,-67.49065384908829,-37.06416418707556,-98.95475700007626
1684782925690354,-7.797360189211872,-69.9931334401465,-58.85404745555809
1684782925706349,80.03356984817265,18.142977035171953,35.26359960326545
1684782925722344,88.4260318913557,29.587243457694285,47.501335164416105
1684782925738338,21.744106202792295,51.346608682383476,41.27565423056399
1684782925754333,60.776684214541774,39.29198138399329,35.8739604791333
1684782925770327,34.80582894636473,-17.257953765163734,1.1139085984588064
1684782925786322,57.20607309071488,-34.68375677119093,-3.921568627450938
1684782925802316,80.24719615472645,-90.6233310444801,3.585870145723675
1684782925818311,109.97177080949109,-130.3883421072709,29.221026932173572
1684782925834305,117.17402914473178,-28.061341268024762,22.659647516594077
1684782925850300,162.4322880903335,65.62905317769128,0.8392462043183286
1684782925866294,159.56359197375468,106.4011596856642,-9.536888685435201
1684782925882289,69.01655603875793,82.04776073853668,-13.138017853055544
1684782925898284,20.21820401312266,13.626306553749828,-33.31044480048831
1684782925914278,-2.9144731822690346,-22.41550316624705,-37.705043106736866
1684782925930145,9.323262378881509,-33.34096284428165,-32.54749370565344
1684782925946139,10.971236743724717,-34.65323872739759,-27.512016479743693
1684782925962133,9.99465934233615,-23.056382085908353,-29.983978027008447
1684782925978127,1.8158236057068962,-32.05920500495915,-43.53398947127482
1684782925994121,-32.883192187380814,-57.60280766002904,-35.446707866025804
1684782926010115,-89.61623559929808,-51.28557259479669,-15.396353093766606
1684782926026109,-45.60921644922553,-62.272068360418075,-17.105363546196713
1684782926042103,-83.81780727855346,-63.70641641870759,-12.100404364080191
1684782926058097,-101.1215381094072,-26.35233081559477,-12.832837415121617
1684782926074092,-85.3437094682231,-9.353780422674845,-32.76112001220724
1684782926090086,-24.795910582131683,-14.480811779964824,-53.84908827344168
1684782926106080,80.82703898680097,66.26993209735247,-49.1493095292592
1684782926122074,82.20035095750359,49.08827344167253,-21.591515983825502
1684782926138068,39.07835507743971,1.0833905546654705,-10.78812848096436
1684782926154062,67.09391927977413,51.285572594796804,-16.311894407568502
1684782926170056,91.56939040207521,61.722743572137006,-44.846265354390766
1684782926186050,53.42183566033418,43.4424353398947,-88.42603189135582
1684782926202044,29.007400625619766,34.62272068360426,-86.38132295719845
1684782926218038,14.053559166857326,19.11955443656052,-63.614862287327355
1684782926234032,-5.661097123674381,38.22384985122471,-36.118104829480444
1684782926249908,-81.40688181887549,15.426871137560056,18.783855954833257
1684782926265902,-122.39261463340199,-216.51026169222553,150.4692149233233
1684782926281895,-138.01785305561907,-149.34004730296795,98.00869764248114
1684782926297889,-114.57999542229345,-124.13214312962543,-0.7476920729380936
1684782926313882,-80.36926832990014,-189.68490119783326,6.851300831616641
1684782926329876,88.85328450446309,-245.07515068284124,8.285648889906156
1684782926345870,182.05539024948507,-198.7792782482643,22.93430991073467
1684782926361863,86.04562447547096,-95.96398870832377,-9.506370641641865
1684782926377857,-118.79148546578165,-22.384985122453713,-16.311894407568502
1684782926393850,-91.69146257724879,39.87182421606781,-5.050736247806526
1684782926409844,-48.813611047531936,95.47570000762971,12.832837415121617
1684782926425838,27.817196917677393,103.80712596322587,30.380712596322383
1684782926441831,51.46868085755705,126.42099641412983,44.38849469748993
1684782926457825,44.26642252231636,172.4422064545663,41.88601510643184
1684782926473818,1.6937514305333252,94.46860456244758,37.7965972381171
1684782926489812,-9.56740672922865,33.12733653772807,-1.6632333867398756
1684782926505806,-58.12161440451666,63.004501411459614,-48.05065995269706
1684782926521799,-93.46150911726556,82.87174792095811,-70.63401235980768
1684782926537793,61.661707484550334,-32.91371023117415,-60.68513008316165
1684782926553786,142.13778896772715,-103.77660791943231,-48.7220569161517
1684782926569702,146.83756771190951,77.65316243228813,-29.739833676661306
1684782926585695,56.41260395208678,157.3052567330435,-19.33318074311444
1684782926601688,165.85030899519347,1.1749446860455919,-2.7924010070954637
1684782926617681,264.91187914854663,-272.8770885786222,-22.018768596933
1684782926633674,192.67566948958574,-357.9919127183947,-82.2003509575037
1684782926649667,-132.09735255970088,-133.56221866178373,-125.56649118791483
1684782926665660,119.70702677958343,93.91927977416663,-111.16197451743346
1684782926681654,220.35553521019324,44.72419317921731,-61.02082856488903
1684782926697647,131.30388342107267,40.23804074158852,-58.60990310521095
1684782926713640,77.01228351262671,-45.76180666819255,-33.43251697566188
1684782926729633,18.57022964827945,4.440375371938671,-21.805142290379194
1684782926745626,45.059891660944686,82.16983291371025,-17.349507896543855
1684782926761619,70.3593499656672,153.55153734645592,-16.311894407568502
1684782926777612,95.35362783245614,131.1818112458991,-11.154345006485073
1684782926793605,79.51476310368503,86.65598535133881,-12.80231937132828
1684782926809599,73.04493781948577,76.09674219882504,-4.989700160219741
1684782926825592,21.225299458304676,84.88593881132215,-10.299839780270077
1684782926841585,6.912336919203426,25.864042114900258,-23.605706874189423
1684782926857578,91.75249866483546,-19.394216830701225,-15.030136568245894
1684782926873571,184.46631570916315,32.18127718013284,2.090485999847374
1684782926889404,160.11291676203564,71.94628824292363,17.563134203097547
1684782926905397,78.11093308918885,39.108873121233046,26.199740596627635
1684782926921389,66.88029297322032,35.019455252918306,41.45876249332423
1684782926937382,-11.642633707179357,22.50705729762717,46.52475776302754
1684782926953374,-29.648279545281184,-75.94415197985802,37.21675440604258
1684782926969367,-127.6112001220722,-65.75112535286485,30.31967650873571
1684782926985360,-174.3648432135501,-68.65033951323721,44.937819485771115
1684782927001352,-39.41405355916686,-195.39177538719764,71.61058976119625
1684782927017345,249.95803768978408,-147.72259098191807,24.612802319371212
1684782927033338,356.9848172732129,116.31952391851678,-58.396276798657254
1684782927049330,184.40527962157626,505.45510032806897,-44.78522926680398
1684782927065323,-172.32013427939273,211.6578927290759,-29.098954757000115
1684782927081316,35.99603265430687,-137.6821545738918,35.56878004119949
1684782927097308,126.35996032654316,-215.93041886015112,53.72701609826822
1684782927113301,65.53749904631104,-52.5062943465324,28.519111924925483
1684782927129294,-209.12489509422448,29.922941939421662,-12.100404364080191
1684782927145286,-542.1377889677271,32.211795223926174,14.267185473411132
1684782927161279,-333.88265812161444,60.379949645227725,12.283512626840547
1684782927177271,-58.57938506141761,-48.84412909132527,5.813687342641288
1684782927193264,-77.59212634470123,17.92935072861826,1.2970168612191628
1684782927209167,-173.2967116807813,6.546120393682713,6.759746700236519
1684782927225159,-114.1832608529794,4.562447547112242,-2.97550926985582
1684782927241151,-117.9674982833601,-45.70077058060576,-6.515602349889377
1684782927257144,-69.74898908979935,-133.19600213626302,14.419775692378039
1684782927273136,-20.5233844510567,-43.04570077058054,41.82497901884494
1684782927289128,88.09033340962833,-0.5340657663844013,-9.628442816815436
1684782927305120,-28.854810406652973,9.29274433508806,-32.54749370565344
1684782927321112,-26.016632333867392,38.13229571984448,-32.60852979324022
1684782927337104,70.75608453498126,6.179903868162,-18.448157473105994
1684782927353097,107.19462882429252,55.46654459449155,21.25581750209801
1684782927369089,93.70565346761259,60.28839551384749,46.18905928130016
1684782927385081,106.34012359807753,33.95132372014973,58.7930113679713
1684782927401073,49.27138170443277,30.655374990463088,13.687342641336613
1684782927417065,-14.328221560997918,202.9297322041657,-35.72137026016628
1684782927433057,90.83695735103379,115.00724803540106,-34.897383077744735
1684782927449050,102.43381399252326,-21.957732509346215,-11.673151750972693
1684782927465042,34.40909437705045,-110.42954146639204,-0.5340657663844013
1684782927481034,13.168535896848994,-73.68581673914696,6.72922865644307
1684782927497026,24.063477531090257,25.65041580834668,16.769665064469336
1684782927513018,65.3543907835508,91.56939040207521,19.058518348973735
1684782927528930,80.00305180437931,106.5537499046311,23.117418173495025
1684782927544922,71.33592736705577,72.25146868085744,-0.5951018539711868
1684782927560915,23.45311665522229,43.80865186541541,-25.467307545586323
1684782927576907,-17.074845502403377,28.73273823147929,-25.10109102006561
1684782927592899,-188.25055313954374,-94.68223086900127,-84.39765011062798
1684782927608891,-31.662470435645105,-48.7220569161517,-291.0353246356908
1684782927624883,-139.8184176394293,-56.2905317769131,-99.53459983215078
1684782927640875,-83.0548561837187,-149.46211947814152,-24.399176012817634
1684782927656868,44.32745860990326,-80.88807507438776,20.34027618829623
1684782927672860,55.34447241931798,-90.07400625619903,-21.652552071412288
1684782927688852,-27.93926909285119,14.54184786755161,-151.11009384298472
1684782927704844,-46.00595101853969,-100.87739375906006,-50.37003128099491
1684782927720836,119.76806286717033,-73.89944304570076,-40.87891966124971
1684782927736828,55.28343633173108,-101.60982681010148,-110.3990234225987
1684782927752821,1.0833905546654705,-112.04699778744191,-132.28046082246124
1684782927768813,-21.164263370718004,-54.581521324483106,-110.55161364156561
1684782927784805,52.90302891584656,12.64972915236126,-71.70214389257649
1684782927800797,75.60845349813076,63.248645761806756,-61.84481574731058
1684782927816789,21.622034027618724,98.8937209124897,-64.95765621423664
1684782927832781,177.05043106736866,190.41733424887457,-37.79659723811699
1684782927848724,141.55794613565263,188.18951705195695,-5.386434729533789
1684782927864716,84.4892042420081,91.05058365758737,3.097581445029391
1684782927880707,80.58289463645383,26.99320973525596,-9.903105210955914
1684782927896699,94.34653238727401,93.49202716105879,-16.311894407568502
1684782927912691,52.65888456549942,173.0830853742275,9.079118028534367
1684782927928682,95.109483482109,119.85961699855034,25.314717326619302
1684782927944674,-31.47936217288475,92.60700389105045,18.112458991378617
1684782927960666,-61.631189440756884,43.289845120927794,9.048599984740918
1684782927976657,-30.136568245975468,8.499275196459848,4.287785152971651
1684782927992649,33.89028763256283,16.769665064469336,-16.403448538948737
1684782928008641,92.75959411001736,80.33875028610669,-38.98680094605936
1684782928024633,84.88593881132215,119.95117112993057,-33.73769741359581
1684782928040624,61.203936827649386,116.59418631265748,-34.43961242084379
1684782928056616,135.27122911421384,-32.0897230487526,-12.252994583047212
1684782928072608,51.71282520790419,-51.74334325169764,23.086900129701576
1684782928088599,-17.1663996337835,53.849088273441794,29.129472800793337
1684782928104591,-78.11093308918896,79.6368352788586,26.1692225528343
1684782928120583,-116.44159609369046,22.78171969176765,33.70717936980259
1684782928136574,-116.77729457541773,-76.49347676813909,54.52048523689632
1684782928152566,-83.17692835889227,-90.6233310444801,69.04707408255126
1684782928168426,-30.838483253223444,-42.77103837644006,53.81857022964823
1684782928184417,-3.9826047150377235,9.689478904402222,31.174181734950707
1684782928200409,6.515602349889377,45.82284275577945,33.554589150835454
1684782928216400,-25.467307545586323,114.70206759746702,32.42542153047998
1684782928232391,-12.832837415121617,179.76653696498056,16.403448538948624
1684782928248382,2.212558175020945,223.9871824216068,1.1749446860455919
1684782928264373,-14.389257648584703,244.4037537193867,-8.499275196459848
1684782928280365,3.3112077515830833,236.65217059586485,2.2735942626077303
1684782928296356,7.949950408178779,208.51453421835663,6.942854962996876
1684782928312347,-0.3204394598305953,147.02067597466998,-2.5787747005416577
1684782928328338,-28.519111924925596,85.25215533684286,-9.079118028534367
1684782928344329,-14.297703517204468,85.19111924925596,-4.592965590905578
1684782928360321,-21.164263370718004,97.73403524834066,-4.257267109178315
1684782928376312,-32.9442282749676,52.26214999618537,6.851300831616641
1684782928392303,-11.612115663385907,-28.061341268024762,23.117418173495025
1684782928408294,-0.8392462043183286,-136.52246890974288,32.54749370565355
1684782928424286,13.138017853055544,-236.07232776379044,42.496375982299696
1684782928440277,4.013122758831173,-288.8990615701533,32.82215609979403
1684782928456268,-74.9980926222629,-269.0318150606547,9.56740672922865
1684782928472259,-52.38422217135883,-143.08384832532238,5.081254291599862
1684782928488189,41.70290684367137,-29.922941939421662,8.1025406271458
1684782928504181,104.99732967116825,91.81353475242236,5.081254291599862
1684782928520172,134.23361562523837,171.83184557869845,-4.959182116426291
1684782928536163,140.00152590218954,174.3038071259632,-13.382162203402686
1684782928552154,81.7120622568093,171.19096665903726,-33.3714808880751
1684782928568145,79.51476310368503,193.04188601510646,-30.960555428397015
1684782928584137,69.87106126497292,160.5706874189366,-15.548943312733627
1684782928600128,59.739070725566535,-28.549629968719046,-26.19974059662775
1684782928616119,-14.877546349278987,-138.01785305561907,-33.646143282215576
1684782928632110,2.30411230640118,-80.21667811093312,0.07629510948345342
1684782928648101,3.1586175326161765,37.064164187075676,31.876096742199024
1684782928664093,-7.644769970244852,102.86106660563064,55.252918287937746
1684782928680084,29.221026932173572,72.95338368810553,66.63614862287318
1684782928696075,63.340199893186764,26.962691691462396,40.29907682917542
1684782928712066,79.05699244678408,5.2338445105668825,25.375753414205974
1684782928728057,77.68368047608146,-31.754024567025226,29.43465323872738
1684782928744049,78.7212939650567,-58.640421149004396,29.159990844586673
1684782928760040,75.88311589227123,-89.25001907377737,29.526207370107386
1684782928776031,70.48142214084078,-98.95475700007626,45.30403601129183
1684782928792022,58.24368657969035,-125.3223468375677,39.96337834744804
1684782928807953,50.125886930647766,-144.39612420843832,24.399176012817406
1684782928823943,54.093232623788936,-126.5430685893034,15.274280918593035
1684782928839934,53.02510109102013,-92.30182345311664,19.455252918287897
1684782928855925,89.67727168688475,-67.58220798046841,13.138017853055544
1684782928871915,119.40184634164962,-40.63477531090257,59.37285420004582
1684782928887906,180.4379339284353,-34.53116655222402,111.89440756847489
1684782928903897,230.24338139925248,-89.61623559929808,120.86671244373247
1684782928919888,230.45700770580606,-118.30319676508736,89.25001907377737
1684782928935878,210.89494163424115,-106.1264972915236,43.56450751506827
1684782928951869,194.20157167925527,-94.74326695658806,-11.581597619592571
1684782928967860,201.95315480277714,-83.97039749752048,-36.05706874189366
1684782928983851,212.81757839322495,-111.2535286488137,-33.3714808880751
1684782928999841,253.55916685740453,-189.8680094605936,-29.648279545281184
1684782929015832,117.72335393301296,-180.4379339284352,-52.689402609292756
1684782929031823,124.04058899824531,-83.4821087968262,-48.538948653391344
1684782929047814,143.69420920119023,-5.783169298847952,-66.97184710460056
1684782929063804,116.38056000610368,11.184863050278409,-98.13076981765471
1684782929079795,100.08392462043184,5.752651255054502,-107.22514686808574
1684782929095786,107.16411078049896,8.407721065079727,-104.69214923323409
1684782929111776,112.44373235675607,25.375753414205974,-133.59273670557718
1684782929127716,123.91851682307174,48.538948653391344,-117.78439002059974
1684782929143706,86.71702143892571,37.644007019150195,-69.07759212634471
1684782929159697,13.595788509956492,-7.980468451972229,-39.16990920881972
1684782929175688,27.878233005264292,1.937895780880467,-10.299839780270077
1684782929191679,16.372930495155174,-7.827878233005208,9.811551079575793
1684782929207669,25.314717326619302,0.6866559853513081,32.18127718013284
1684782929223660,19.211108567940755,0.7171740291447577,33.035782406347835
1684782929239651,15.91515983825434,18.112458991378617,18.112458991378617
1684782929255642,7.064927138170447,49.85122453650729,-23.48363469901585
1684782929271632,5.691615167467717,67.52117189288174,-37.49141680018306
1684782929287623,17.34950789654374,82.68863965819787,-31.47936217288475
1684782929303614,27.664606698710486,96.94056610971256,-21.530479896238717
1684782929319604,28.0308232242312,101.57930876630826,-7.888914320591994
1684782929335595,18.966964217593613,76.61554894331266,10.879682612344482
1684782929351586,-1.4190890363927338,31.14366369115737,32.76112001220736
1684782929367577,-10.11673151750972,8.89600976577401,35.47722590981925
1684782929383567,-5.416952773327239,10.330357824063412,40.93995574883661
1684782929399558,1.6327153429465397,26.016632333867392,45.30403601129183
1684782929415549,4.83710994125272,41.245136186770424,43.22880903334112
1684782929431540,-0.41199359121083035,46.34164950026707,44.38849469748993
1684782929447448,-8.377203021286277,46.4332036316473,47.98962386511039
1684782929463439,-10.727092393377575,47.2877088578623,50.827801937895856
1684782929479429,-12.436102845807568,48.90516517891206,47.89806973373015
1684782929495419,-10.75761043717091,46.12802319371326,38.89524681467924
1684782929511409,-13.229571984435779,40.329594872968755,32.88319218738093
1684782929527400,-16.403448538948737,28.91584649423953,28.763256275272624
1684782929543390,-15.762569619287433,15.304798962386485,25.040054932478824
1684782929559380,-13.534752422369706,11.001754787518053,25.00953688868526
1684782929575370,-9.872587167162578,10.910200656137931,25.375753414205974
1684782929591361,-8.22461280231937,15.274280918593035,23.72777904936288
1684782929607351,-7.3090714885175885,22.873273823147883,19.54680704966802
1684782929623341,-8.285648889906156,35.38567177843902,11.398489356832215
1684782929639331,-8.74341954680699,46.18905928130016,6.515602349889377
1684782929655322,-12.771801327534831,44.02227817196922,8.560311284046634
1684782929671312,-20.76752880140384,32.60852979324045,13.504234378576257
1684782929687302,-22.29343099107348,29.922941939421662,18.6007476920729
1684782929703292,-16.983291371023142,42.587930113679704,12.863355458915066
1684782929719283,-10.879682612344482,60.41046768902106,3.6163881895170107
1684782929735273,-5.905241474021523,70.51194018463411,-3.0670634012359415
1684782929751263,-3.097581445029391,74.9980926222629,-5.569542992294146
1684782929767212,-6.515602349889377,68.68085755703055,-2.5787747005416577
1684782929783202,-4.135194934004744,63.27916380560009,2.2735942626077303
1684782929799192,10.910200656137931,72.19043259327077,1.1139085984588064
1684782929815182,30.89951934081023,91.66094453345522,-6.72922865644307
1684782929831173,49.66811627374682,109.94125276569775,-13.87045090409697
1684782929847163,54.64255741206989,101.97604333562231,-7.0954451819637825
1684782929863153,48.50843060959801,76.12726024261838,1.3580529488059483
1684782929879143,32.455939574273316,45.4261081864654,5.447470817120575
1684782929895134,17.868314641031475,28.21393148699167,8.987563897154132
1684782929911124,6.912336919203426,14.938582436865772,12.52765697718769
1684782929927114,-2.7924010070954637,10.330357824063412,12.405584802014118
1684782929943104,-10.849164568551146,14.755474174105416,9.99465934233615
1684782929959095,-19.943541618982294,11.42900740062555,12.466620889600904
1684782929975085,-24.521248187991205,7.492179751277945,15.091172655832679
1684782929991075,-30.624856946669752,2.5787747005416577,15.91515983825434
1684782930007065,-33.98184176394295,-2.182040131227609,13.260090028229115
1684782930023056,-42.19119554436554,-16.830701152056236,5.752651255054502
1684782930039046,-44.63263904783696,-25.65041580834668,-3.250171663996298
1684782930055036,-36.14862287327378,-21.22529945830479,-3.006027313649156
1684782930071026,-36.118104829480444,-23.422598611429066,-4.013122758831173
1684782930086975,-39.26146334019984,-27.450980392156907,-4.16571297779808
1684782930102965,-42.22171358815899,-26.56595712214846,-5.355916685740453
1684782930118954,-21.286335545891575,-8.77393759060044,-12.00885023270007
1684782930134944,-6.820782787823305,-7.949950408178779,-19.45525291828801
1684782930150934,14.602883955138395,-3.5248340581368893,-27.878233005264406
1684782930166924,19.79095140001516,-4.470893415732007,-30.991073472190465
1684782930182913,18.936446173800164,1.8158236057068962,-28.000305180437977
1684782930198903,3.341725795376533,-1.9989318684672526,-33.82925154497593
1684782930214893,-10.025177386129485,-13.015945677881973,-41.214618142976974
1684782930230883,-8.682383459220205,-17.28847180895707,-45.18196383611803
1684782930246873,8.163576714732585,-6.179903868162,-69.01655603875793
1684782930262862,21.774624246585745,-3.1586175326161765,-73.74685282673374
1684782930278852,41.367208361943995,1.846341649500232,-72.43457694361791
1684782930294842,28.45807583733881,-6.240939955748786,-81.62050812542918
1684782930310832,32.79163805600069,-4.989700160219741,-61.53963530937665
1684782930326821,31.14366369115737,-4.806591897459384,-45.57869840543219
1684782930342811,27.420462348363344,-18.875410086213492,-32.76112001220724
1684782930358801,19.760433356221824,-23.300526436255495,-38.101777676050915
1684782930374791,26.81010147249549,-19.88250553139551,-35.14152742809188
1684782930390781,20.737010757610392,-10.360875867856862,-35.20256351567866
1684782930406738,10.391393911650198,8.22461280231937,-39.566643778133766
1684782930422728,10.605020218204004,22.93430991073467,-39.71923399710079
1684782930438717,0.9613183794918996,1.968413824673803,-20.920119020370862
1684782930454707,-2.2430762188143945,-10.147249561303056,-1.968413824673803
1684782930470697,-7.522697795071281,-32.54749370565344,11.612115663385907
1684782930486687,-3.6163881895170107,-44.54108491645684,18.692301823453022
1684782930502677,3.128099488822727,-39.29198138399329,16.58655680170898
1684782930518666,3.7384603646905816,-25.3757534142062,5.722133211261166
1684782930534656,-3.585870145723675,-8.316166933699492,-7.217517357137353
1684782930550646,4.806591897459384,27.603570611123814,-20.55390249485015
1684782930566636,10.391393911650198,52.29266803997871,-29.770351720454755
1684782930582625,4.1962310215915295,51.13298237582967,-32.303349355306295
1684782930598615,-6.363012130922357,41.367208361943995,-28.976882581826544
1684782930614605,-12.100404364080191,35.96551461051354,-22.354467078660264
1684782930630595,-28.030823224231312,24.82642862592502,-22.598611429007406
1684782930646585,-19.638361181048367,25.345235370412638,-10.177767605096506
1684782930662574,-11.062790875104838,45.88387884336612,-10.452429999236983
1684782930678564,-3.250171663996298,72.19043259327077,-19.638361181048367
1684782930694554,-7.431143663691159,73.136491950866,-19.272144655527654
1684782930710544,-14.57236591134506,55.34447241931798,-10.75761043717091
1684782930726471,-18.356603341725872,36.026550698100436,-3.4943160143434397
1684782930742460,-13.229571984435779,24.49073014419764,5.477988860914024
1684782930758449,-13.687342641336613,14.57236591134506,9.079118028534367
1684782930774438,-22.629129472800855,-0.44251163500416624,-8.22461280231937
1684782930790428,-27.57305256733048,14.175631342030897,-7.0954451819637825
1684782930806417,-88.60914015411618,28.000305180437863,-46.40268558785374
1684782930822406,-58.18265049210345,114.33585107194631,-93.61409933623258
1684782930838396,-109.60555428397049,173.662928206302,-125.84115358205543
1684782930854385,-79.57579919127193,192.40100709544527,-130.87663080796517
1684782930870374,-68.31464103150984,184.10009918364244,-111.6807812619212
1684782930886364,-92.0576791027695,151.41527428091854,-118.79148546578165
1684782930902353,-5.53902494850081,144.51819638361167,-70.45090409704733
1684782930918342,38.01022354467091,121.78225375753414,-18.173495078965516
1684782930934332,50.91935606927609,111.22301060502036,-4.013122758831173
1684782930950321,38.07125963225758,94.56015869382782,-4.501411459525457
1684782930966310,37.857633325704,72.52613107499815,-0.7476920729380936
1684782930982299,35.8739604791333,49.60708018616015,3.3112077515830833
1684782930998289,49.82070649271395,38.19333180743115,5.447470817120575
1684782931014278,78.90440222781717,51.346608682383476,-7.3090714885175885
1684782931030267,125.07820248722055,90.65384908827332,-27.328908216983336
1684782931046203,147.66155489433118,104.81422140840778,-53.20820935378049
1684782931062193,142.65659571221477,78.17196917677575,-66.60563057907984
1684782931078182,144.2435339894712,28.122377355611434,-73.71633478294041
1684782931094171,133.34859235523004,-28.274967574578454,-67.91790646219579
1684782931110160,144.91493095292594,-37.91866941329056,-67.91790646219579
1684782931126150,149.58419165331497,-26.016632333867392,-60.89875638971546
1684782931142139,160.2349889372092,-14.328221560997918,-59.12870984969868
1684782931158128,152.8191042954145,-42.008087281605185,-67.33806363012127
1684782931174118,154.8943312733652,-57.93850614175631,-41.886015106431614
1684782931190107,153.58205539024948,-46.09750514991981,-2.8229190508887996
1684782931206096,161.18104829480444,0.7782101167315432,2.0294499122605885
1684782931222086,160.20447089341587,30.807965209429995,-7.522697795071281
1684782931238075,118.8220035095751,29.098954757,-26.169222552834412
1684782931254064,103.6240177004654,22.3849851224536,-24.612802319371326
1684782931270053,97.00160219729923,23.636224917982645,-26.688029297322032
1684782931286043,103.50194552529183,29.465171282520714,-51.43816281376371
1684782931302032,119.18822003509581,51.13298237582967,-76.15777828641183
1684782931318021,120.13427939269104,52.90302891584656,-96.2691691462577
1684782931334011,109.88021667811108,58.88456549935154,-92.45441367208366
1684782931350000,96.94056610971256,56.90089265278107,-82.16983291371025
1684782931365966,111.83337148088822,62.45517662317843,-89.06691081101701
1684782931381956,167.19310292210275,64.74402990768294,-105.02784771496147
1684782931397945,191.60753795681694,63.88952468146795,-101.42671854734112
1684782931413934,150.07248035400926,35.782406347753295,-77.37850003814754
1684782931429924,156.05401693751423,30.624856946669524,-55.37499046311132
1684782931445913,143.32799267566952,9.99465934233615,-32.82215609979403
1684782931461902,137.5295643549248,-23.971923399710136,-23.849851224536565
1684782931477892,178.63736934462509,-30.014496070801897,-46.066987106126476
1684782931493881,140.70344090943763,-23.78881513694978,-64.25574120698866
1684782931509870,92.69855802243069,12.710765239948046,-40.75684748607614
1684782931525859,61.84481574731058,16.220340276188267,-23.514152742809188
1684782931541849,55.008773937590604,5.081254291599862,-20.157167925535987
1684782931557838,69.04707408255126,-17.685206378271232,-45.02937361715112
1684782931573827,102.6169222552835,130.9681849393453,-140.33722438391692
1684782931589817,33.737697413595924,200.27466239414048,-160.69275959411004
1684782931605806,-27.725642786297385,32.120241092546166,-107.9880979629205
1684782931621795,21.68307011520551,-2.4567025253680868,-46.707866025787666
1684782931637785,47.56237125200278,8.377203021286277,5.813687342641288
1684782931653774,41.76394293125827,1.5716792553597543,31.418326085298077
1684782931669763,45.12092774853136,-9.811551079575793,36.362249179827586
1684782931685730,71.45799954222935,-39.444571602960195,11.276417181658644
1684782931701719,66.2088960097658,-52.81147478446633,-12.069886320286855
1684782931717708,24.856946669718354,-14.999618524452558,-17.593652246890997
1684782931733698,12.497138933394353,-11.764705882352928,-6.1493858243686645
1684782931749687,19.69939726863504,-21.46944380865193,5.1117723353933116
1684782931765676,20.8896009765773,-11.795223926146264,7.034409094376997
1684782931781665,21.377889677271583,-3.921568627450938,9.048599984740918
1684782931797655,21.194781414511226,-1.1139085984588064,12.619211108567924
1684782931813644,0.7171740291447577,-13.534752422369706,17.959868772411596
1684782931829633,-6.820782787823305,-8.133058670939135,12.80231937132828
1684782931845623,-30.716411078049873,-18.936446173800277,18.204013122758738
1684782931861612,-43.28984512092768,-35.62981612878616,25.19264515144573
1684782931877601,-35.11100938429843,-36.14862287327378,20.981155107957534
1684782931893591,-18.570229648279565,-19.241626611734205,13.290608072022565
1684782931909580,-26.99320973525596,-0.8392462043183286,8.255130846112706
1684782931925569,-67.6432440680552,-10.849164568551146,17.77676050965124
1684782931941558,-72.83131151293196,-40.57373922331578,27.969787136644527
1684782931957548,-78.99595635919741,-73.83840695811398,30.89951934081023
1684782931973537,-47.77599755855658,-55.61913481345846,27.267872129396437
1684782931989526,-27.084763866636195,-33.73769741359581,18.6007476920729
1684782932005493,-13.107499809262208,-14.480811779964824,8.529793240253298
1684782932021482,-10.78812848096436,-1.846341649500232,-2.2430762188143945
1684782932037470,-18.6617837796598,9.29274433508806,-8.438239108873063
1684782932053459,-17.746242465858018,6.424048218509142,-4.776073853665935
1684782932069448,-12.100404364080191,5.325398641947004,-0.1373311970702389
1684782932085437,-10.177767605096506,9.9641412985427,-1.2970168612191628
1684782932101426,-1.5106431677729688,14.57236591134506,-3.6469062333104603
1684782932117415,8.346684977492941,13.809414816510184,-5.1117723353933116
1684782932133403,14.236667429617683,9.018081940947582,-3.7079423208972457
1684782932149392,10.910200656137931,12.497138933394353,-4.440375371938671
1684782932165381,3.7384603646905816,15.121690699626129,-5.9357595178148586
1684782932181370,0.045777065690117524,17.441062027923977,-6.332494087129021
1684782932197359,-1.937895780880467,17.1053635461966,-4.654001678492364
1684782932213348,-2.883955138475585,12.222476539253762,-2.1210040436408235
1684782932229336,-0.045777065690117524,7.583733882658066,0.7782101167315432
1684782932245325,1.3275349050126124,5.0202182040130765,2.0294499122605885
1684782932261314,2.731364919508678,5.050736247806526,1.1749446860455919
1684782932277303,3.4027618829633184,5.50850690470736,-0.41199359121083035
1684782932293292,4.562447547112242,5.050736247806526,-0.6561379415579722
1684782932309280,4.379339284351886,5.172808422980097,0.7171740291447577
1684782932325256,2.2735942626077303,3.768978408484031,3.7079423208972457
1684782932341245,3.6469062333104603,3.9520866712443876,4.16571297779808
1684782932357234,3.341725795376533,6.515602349889377,1.2054627298390415
1684782932373222,0.1373311970702389,13.046463721675423,-3.128099488822727
1684782932389211,-2.2735942626077303,15.304798962386485,-5.325398641947004
1684782932405200,-2.883955138475585,13.778896772716848,-5.386434729533789
1684782932421189,-3.250171663996298,10.543984130617218,-4.654001678492364
1684782932437178,-3.9826047150377235,9.9641412985427,-4.715037766079149
1684782932453167,-4.257267109178315,12.13092240787364,-5.600061036087595
1684782932469155,-4.440375371938671,13.87045090409697,-7.125963225757232
1684782932485144,-3.250171663996298,15.030136568245894,-7.614251926451516
1684782932501133,-3.1586175326161765,12.588693064774475,-6.393530174715806
1684782932517122,-2.1210040436408235,10.78812848096436,-4.898146028839506
1684782932533111,-2.4872205691615363,11.032272831311502,-5.386434729533789
1684782932549100,-3.0670634012359415,10.543984130617218,-5.813687342641288
1684782932565088,-3.891050583657602,7.888914320591994,-3.7384603646905816
1684782932581077,-2.2735942626077303,4.928664072632955,-1.266498817425827
1684782932597066,-2.761882963302014,5.905241474021523,-0.93080033569845
1684782932613055,0.3204394598305953,4.16571297779808,-0.6866559853513081
1684782932629044,0.93080033569845,1.7242694743266611,0.2899214160372594
1684782932644989,1.2359807736323773,-1.022354467078685,1.3275349050126124
1684782932660977,0.6866559853513081,-1.6021972991530902,1.9989318684672526
1684782932676966,-1.2054627298390415,-1.266498817425827,2.1210040436408235
1684782932692955,-1.3885709925993979,-0.4730296787976158,1.9073777370870175
1684782932708944,-1.3275349050126124,1.022354467078685,1.022354467078685
1684782932724933,-0.8697642481116645,3.7079423208972457,-0.7476920729380936
1684782932740922,-0.3204394598305953,4.287785152971651,-1.4496070801861833
1684782932756910,-0.19836728465702436,2.1515220874341594,-0.9918364232852355
1684782932772899,-0.015259021896667946,3.1586175326161765,-1.1139085984588064
1684782932788888,-0.22888532845047393,5.50850690470736,-2.3651483939879654
1684782932804877,-0.41199359121083035,6.1493858243686645,-2.334630350194516
1684782932820866,-0.6256198977645226,5.630579079880931,-1.4496070801861833
1684782932836855,0.38147554741738077,7.919432364385443,-1.7547875181201107
1684782932852843,0.16784924086368846,8.712901503013654,-2.761882963302014
1684782932868832,-0.5340657663844013,6.72922865644307,-2.090485999847374
1684782932884821,-0.93080033569845,5.050736247806526,-1.7242694743266611
1684782932900810,-1.5411612115663047,5.874723430228073,-2.090485999847374
1684782932916799,-2.059967956054038,5.813687342641288,-2.090485999847374
1684782932932788,-2.090485999847374,6.790264744029855,-1.8768596932936816
1684782932948776,-2.4567025253680868,7.125963225757232,-1.968413824673803
1684782932964752,-2.3651483939879654,7.003891050583661,-2.4872205691615363
1684782932980741,-2.059967956054038,6.515602349889377,-2.090485999847374
1684782932996729,-2.090485999847374,3.7384603646905816,-1.6937514305333252
1684782933012718,-1.4190890363927338,3.555352101930225,-0.8392462043183286
1684782933028707,-1.5106431677729688,3.8605325398641526,-1.144426642252256
1684782933044696,-1.1139085984588064,4.379339284351886,-1.7242694743266611
1684782933060685,-1.3885709925993979,3.4943160143434397,-1.846341649500232
1684782933076674,-1.8158236057068962,3.128099488822727,-2.1210040436408235
1684782933092662,-1.3275349050126124,3.7079423208972457,-2.1210040436408235
1684782933108651,-1.846341649500232,3.799496452277367,-1.937895780880467
1684782933124640,-1.6937514305333252,4.440375371938671,-1.5106431677729688
1684782933140629,-1.6632333867398756,3.921568627450938,-1.4190890363927338
1684782933156618,-3.9520866712443876,5.447470817120575,-1.2970168612191628
1684782933172607,-2.883955138475585,3.768978408484031,-1.1139085984588064
1684782933188595,-30.22812237735559,-5.600061036087595,34.53116655222402
1684782933204584,-11.825741969939713,6.912336919203426,11.795223926146264
1684782933220573,-4.592965590905578,-3.3112077515830833,0.3204394598305953
1684782933236562,-19.913023575188845,1.8768596932936816,-1.8768596932936816
1684782933252551,-16.76966506446945,21.194781414511226,4.257267109178315
1684782933268540,-4.257267109178315,-2.9144731822690346,0.9918364232852355
1684782933284484,-3.891050583657602,5.294880598153668,1.0833905546654705
1684782933300473,-17.19691767757695,7.0954451819637825,1.4801251239795192
1684782933316461,-22.201876859693357,4.684519722285813,-0.44251163500416624
1684782933332450,-15.762569619287433,2.090485999847374,-1.022354467078685
1684782933348438,-9.231708247501274,3.006027313649156,-1.8768596932936816
1684782933364426,-5.0202182040130765,1.0833905546654705,-1.3885709925993979
1684782933380415,-1.2359807736323773,0.16784924086368846,0.16784924086368846
1684782933396403,2.090485999847374,-2.6703288319218927,1.5411612115663047
1684782933412391,3.006027313649156,-2.212558175020945,1.4801251239795192
1684782933428380,3.3112077515830833,-3.1586175326161765,1.6021972991530902
1684782933444368,2.5787747005416577,-0.22888532845047393,0.9002822919051141
1684782933460356,0.9918364232852355,0.19836728465702436,0.07629510948345342
1684782933476345,0.6561379415579722,1.4496070801861833,-0.5951018539711868
1684782933492333,0.7171740291447577,0.7476920729380936,-0.16784924086368846
1684782933508321,0.7782101167315432,0.8697642481116645,-0.045777065690117524
1684782933524310,0.6561379415579722,1.1749446860455919,0.22888532845047393
1684782933540298,0.93080033569845,1.5411612115663047,0.015259021896667946
1684782933556286,1.4496070801861833,-0.2899214160372594,0.6866559853513081
1684782933572275,1.6021972991530902,-1.052872510872021,1.022354467078685
1684782933588263,1.3885709925993979,-0.3204394598305953,0.6256198977645226
1684782933604248,1.2054627298390415,-1.2970168612191628,0.5035477225909517
1684782933620236,0.6561379415579722,-0.9918364232852355,0.41199359121083035
1684782933636224,-0.4730296787976158,0.38147554741738077,0.19836728465702436
1684782933652213,-1.4496070801861833,1.4190890363927338,-0.045777065690117524
1684782933668201,-1.7242694743266611,0.3509575036240449,0.1373311970702389
1684782933684189,-1.846341649500232,0.5951018539711868,-0.015259021896667946
1684782933700178,-2.059967956054038,1.6327153429465397,-0.93080033569845
1684782933716166,-1.7547875181201107,1.3580529488059483,-0.7782101167315432
1684782933732154,-1.4496070801861833,0.6866559853513081,-0.5951018539711868
1684782933748143,-0.93080033569845,0.5035477225909517,-0.2594033722438098
1684782933764131,-0.5035477225909517,-0.1373311970702389,-0.2899214160372594
1684782933780120,-0.3509575036240449,0.1373311970702389,0.07629510948345342
1684782933796108,-0.44251163500416624,0.7782101167315432,0.2594033722438098
1684782933812096,-0.5645838101777372,1.4190890363927338,0.015259021896667946
1684782933828085,-0.16784924086368846,1.266498817425827,0.07629510948345342
1684782933844073,-0.5645838101777372,2.426184481574751,-0.7171740291447577
1684782933860061,-0.9002822919051141,2.548256656748322,-1.022354467078685
1684782933876050,-0.7476920729380936,1.5716792553597543,-0.6866559853513081
1684782933892038,-0.44251163500416624,0.6256198977645226,-0.3204394598305953
1684782933908026,-0.5645838101777372,0.8697642481116645,0.015259021896667946
1684782933923980,-1.0833905546654705,1.266498817425827,-0.16784924086368846
1684782933939969,-1.022354467078685,1.6632333867398756,-0.5035477225909517
1684782933955957,-1.1139085984588064,1.2970168612191628,-0.38147554741738077
1684782933971945,-1.0833905546654705,2.639810788128443,-0.7782101167315432
1684782933987934,-1.4190890363927338,2.059967956054038,-0.6561379415579722
1684782934003922,-1.4496070801861833,1.6327153429465397,-0.41199359121083035
1684782934019910,-1.5106431677729688,1.3580529488059483,-0.5645838101777372
1684782934035899,-1.6021972991530902,1.6327153429465397,-0.6561379415579722
1684782934051887,-1.6327153429465397,1.7547875181201107,-0.4730296787976158
1684782934067875,-1.6632333867398756,1.8768596932936816,-0.4730296787976158
1684782934083864,-1.8158236057068962,2.212558175020945,-0.6256198977645226
1684782934099852,-2.059967956054038,3.341725795376533,-1.2970168612191628
1684782934115841,-2.9144731822690346,2.761882963302014,-1.3580529488059483
1684782934131829,-3.6469062333104603,2.853437094682249,-1.7547875181201107
1684782934147817,-6.332494087129021,5.203326466773433,-2.1515220874341594
1684782934163806,-3.6469062333104603,3.3112077515830833,-2.1210040436408235
1684782934179794,-2.4872205691615363,1.4190890363927338,-0.8392462043183286
1684782934195782,-2.3651483939879654,0.9918364232852355,-0.5645838101777372
1684782934211771,-1.5716792553597543,1.6632333867398756,-0.7782101167315432
1684782934227759,-1.3580529488059483,1.6327153429465397,-0.93080033569845
1684782934243744,-1.4801251239795192,0.93080033569845,-0.5340657663844013
1684782934259732,-2.426184481574751,2.212558175020945,-0.9918364232852355
1684782934275720,-2.090485999847374,2.426184481574751,-1.052872510872021
1684782934291709,-1.6327153429465397,1.0833905546654705,-0.3204394598305953
1684782934307697,-1.7242694743266611,1.2359807736323773,-0.2594033722438098
1684782934323685,-2.2735942626077303,1.9073777370870175,-0.6561379415579722
1684782934339674,-2.3956664377813013,1.4801251239795192,-0.5340657663844013
1684782934355662,-1.9989318684672526,1.1749446860455919,-0.7476920729380936
1684782934371650,-1.2970168612191628,0.22888532845047393,-0.44251163500416624
1684782934387639,-1.4190890363927338,0.8087281605248791,-0.41199359121083035
1684782934403627,-2.4872205691615363,2.3956664377813013,-1.3885709925993979
1684782934419615,-2.853437094682249,1.3580529488059483,-1.052872510872021
1684782934435604,-3.0670634012359415,1.4190890363927338,-0.9613183794918996
1684782934451592,-3.6469062333104603,1.8768596932936816,-1.2970168612191628
1684782934467580,-3.2806897077897474,1.8158236057068962,-1.5106431677729688
1684782934483569,-2.6092927443351073,0.5035477225909517,-0.8087281605248791
1684782934499557,-2.1210040436408235,1.1749446860455919,-0.7782101167315432
1684782934515545,-1.6632333867398756,1.1139085984588064,-0.6866559853513081
1684782934531534,-4.470893415732007,2.548256656748322,-1.4190890363927338
1684782934547522,-2.426184481574751,0.8392462043183286,-0.6256198977645226
1684782934563476,-1.9073777370870175,1.4801251239795192,-0.7782101167315432
1684782934579465,-1.6632333867398756,1.2970168612191628,-0.41199359121083035
1684782934595453,-1.144426642252256,0.6256198977645226,-0.4730296787976158
1684782934611441,-1.022354467078685,0.2899214160372594,-0.3204394598305953
1684782934627430,-1.266498817425827,0.1373311970702389,-0.38147554741738077
1684782934643418,-0.9613183794918996,1.1749446860455919,-0.38147554741738077
1684782934659406,-0.93080033569845,0.5951018539711868,-0.22888532845047393
1684782934675395,-0.6256198977645226,0.5035477225909517,-0.3204394598305953
1684782934691383,-0.9002822919051141,0.5645838101777372,-0.4730296787976158
1684782934707371,-1.1139085984588064,0.5035477225909517,-0.41199359121083035
1684782934723360,-1.4190890363927338,0.9918364232852355,-0.5951018539711868
1684782934739348,-1.4496070801861833,0.1373311970702389,-0.7476920729380936
1684782934755336,-1.144426642252256,1.022354467078685,-0.6866559853513081
1684782934771325,-1.2970168612191628,0.5645838101777372,-0.8087281605248791
1684782934787313,-1.3580529488059483,1.266498817425827,-1.3580529488059483
1684782934803301,-1.144426642252256,0.22888532845047393,-1.052872510872021
1684782934819290,-0.93080033569845,0.16784924086368846,-0.7476920729380936
1684782934835278,-0.8087281605248791,-0.07629510948345342,-0.41199359121083035
1684782934851266,-0.9002822919051141,-0.4730296787976158,-0.44251163500416624
1684782934867255,-0.7476920729380936,0.5340657663844013,-0.6866559853513081
1684782934883239,-0.8087281605248791,-0.22888532845047393,-0.3204394598305953
1684782934899227,-1.052872510872021,0.44251163500416624,-0.38147554741738077
1684782934915215,-0.8392462043183286,0.4730296787976158,-0.44251163500416624
1684782934931203,-0.7476920729380936,0.2594033722438098,-0.3204394598305953
1684782934947191,-0.7171740291447577,0.16784924086368846,-0.38147554741738077
1684782934963179,-0.7171740291447577,0.16784924086368846,-0.5035477225909517
1684782934979167,-0.4730296787976158,-0.07629510948345342,-0.2899214160372594
1684782934995154,-0.3509575036240449,-0.106813153276903,-0.3204394598305953
1684782935011142,-0.38147554741738077,-0.3509575036240449,-0.22888532845047393
1684782935027130,-0.16784924086368846,-0.045777065690117524,-0.2594033722438098
1684782935043118,0.1373311970702389,-0.3509575036240449,0.045777065690117524
1684782935059106,0.045777065690117524,-0.19836728465702436,-0.2594033722438098
1684782935075094,-0.22888532845047393,-0.44251163500416624,-0.16784924086368846
1684782935091082,-0.38147554741738077,-0.045777065690117524,-0.3204394598305953
1684782935107070,-0.106813153276903,-0.16784924086368846,-0.2594033722438098
1684782935123057,0.2594033722438098,-0.6256198977645226,-0.015259021896667946
1684782935139045,0.7476920729380936,-0.8392462043183286,0.16784924086368846
1684782935155033,0.6561379415579722,-0.93080033569845,-0.015259021896667946
1684782935171021,0.22888532845047393,-0.7476920729380936,-0.07629510948345342
1684782935187009,-0.41199359121083035,-0.3204394598305953,-0.1373311970702389
1684782935203003,-1.052872510872021,0.8697642481116645,-0.4730296787976158
1684782935218990,-1.5716792553597543,1.266498817425827,-0.9918364232852355
1684782935234978,-1.7853055619134466,0.9613183794918996,-1.0833905546654705
1684782935250966,-2.2735942626077303,1.052872510872021,-1.4801251239795192
1684782935266954,-1.6632333867398756,0.38147554741738077,-1.5106431677729688
1684782935282942,-0.6866559853513081,-0.6866559853513081,-0.2594033722438098
1684782935298930,-0.5645838101777372,0.5340657663844013,-0.2594033722438098
1684782935314918,-0.5035477225909517,0.6866559853513081,0.106813153276903
1684782935330906,-0.7782101167315432,0.93080033569845,0.07629510948345342
1684782935346893,-1.2970168612191628,1.1749446860455919,-0.41199359121083035
1684782935362881,-1.3275349050126124,1.6937514305333252,-0.6561379415579722
1684782935378869,-1.1749446860455919,1.6021972991530902,-0.2594033722438098
1684782935394857,-1.2970168612191628,1.5411612115663047,-0.5340657663844013
1684782935410845,-1.2054627298390415,0.9613183794918996,-0.015259021896667946
1684782935426833,-1.1749446860455919,1.3885709925993979,-0.106813153276903
1684782935442821,-1.144426642252256,1.7547875181201107,-0.22888532845047393
1684782935458809,-0.9613183794918996,1.3275349050126124,-0.1373311970702389
1684782935474796,-0.9918364232852355,1.2359807736323773,-0.22888532845047393
1684782935490784,-1.3275349050126124,1.6327153429465397,-0.16784924086368846
1684782935506772,-1.3885709925993979,1.6327153429465397,-0.5035477225909517
1684782935522735,-0.5951018539711868,1.1139085984588064,-0.7476920729380936
1684782935538723,-0.3204394598305953,-0.045777065690117524,0.015259021896667946
1684782935554711,-0.6866559853513081,0.93080033569845,-0.3509575036240449
1684782935570699,-1.1139085984588064,1.2054627298390415,-0.07629510948345342
1684782935586687,-0.9002822919051141,0.2899214160372594,-0.045777065690117524
1684782935602675,-0.5951018539711868,0.015259021896667946,-0.3204394598305953
1684782935618662,-0.5340657663844013,-0.2594033722438098,-0.1373311970702389
1684782935634650,-0.5035477225909517,-0.41199359121083035,0.07629510948345342
1684782935650638,-0.7171740291447577,0.045777065690117524,-0.2594033722438098
1684782935666626,-0.3204394598305953,-0.2899214160372594,0.045777065690117524
1684782935682614,-0.045777065690117524,-0.16784924086368846,0.22888532845047393
1684782935698602,-0.045777065690117524,0.045777065690117524,0.2594033722438098
1684782935714590,-0.16784924086368846,-0.22888532845047393,0.3509575036240449
1684782935730578,-0.16784924086368846,-0.3509575036240449,0.3204394598305953
1684782935746565,-0.16784924086368846,0.045777065690117524,0.045777065690117524
1684782935762553,-0.22888532845047393,0.2594033722438098,-0.07629510948345342
1684782935778541,-0.015259021896667946,-0.3509575036240449,0.3204394598305953
1684782935794529,0.2594033722438098,-0.3509575036240449,0.3509575036240449
1684782935810517,0.2899214160372594,-0.045777065690117524,0.2899214160372594
1684782935826505,0.16784924086368846,0.106813153276903,0.38147554741738077
1684782935842468,-0.106813153276903,0.5951018539711868,0.4730296787976158
1684782935858456,-0.22888532845047393,0.9002822919051141,0.3509575036240449
1684782935874444,-0.3509575036240449,1.052872510872021,0.22888532845047393
1684782935890432,-0.5340657663844013,1.2359807736323773,-0.16784924086368846
1684782935906419,-0.5951018539711868,0.44251163500416624,-0.2899214160372594
1684782935922407,-0.38147554741738077,0.07629510948345342,0.106813153276903
1684782935938395,-0.2594033722438098,0.41199359121083035,0.3204394598305953
1684782935954383,-0.16784924086368846,0.4730296787976158,0.6866559853513081
1684782935970371,0.045777065690117524,0.22888532845047393,0.6256198977645226
1684782935986359,0.045777065690117524,0.045777065690117524,0.44251163500416624
1684782936002347,-0.19836728465702436,0.1373311970702389,0.2594033722438098
1684782936018334,-0.9002822919051141,-0.015259021896667946,0.106813153276903
1684782936034322,-0.7782101167315432,0.41199359121083035,0.16784924086368846
1684782936050310,-0.8697642481116645,1.0833905546654705,-0.07629510948345342
1684782936066298,-0.9918364232852355,0.7171740291447577,-0.16784924086368846
1684782936082286,-1.022354467078685,0.8697642481116645,-0.2594033722438098
1684782936098274,-1.1749446860455919,0.9613183794918996,-0.3204394598305953
1684782936114262,-1.0833905546654705,0.5035477225909517,-0.07629510948345342
1684782936130250,-0.9918364232852355,0.5340657663844013,-0.1373311970702389
1684782936146237,-0.9002822919051141,0.5951018539711868,-0.2899214160372594
1684782936162231,-0.8087281605248791,0.7476920729380936,-0.015259021896667946
1684782936178219,-0.6561379415579722,1.022354467078685,0.045777065690117524
1684782936194207,-0.5645838101777372,0.7476920729380936,0.3204394598305953
1684782936210195,-0.7171740291447577,0.7782101167315432,0.015259021896667946
1684782936226183,-0.7171740291447577,0.2899214160372594,-0.07629510948345342
1684782936242170,-0.7476920729380936,0.19836728465702436,-0.045777065690117524
1684782936258158,-0.5951018539711868,0.5035477225909517,-0.19836728465702436
1684782936274146,-0.5340657663844013,0.3509575036240449,-0.015259021896667946
1684782936290134,-0.5645838101777372,0.07629510948345342,0.2899214160372594
1684782936306122,-0.7171740291447577,0.6561379415579722,0.2594033722438098
1684782936322110,-0.7782101167315432,0.9613183794918996,0.3204394598305953
1684782936338098,-0.7782101167315432,0.9002822919051141,0.19836728465702436
1684782936354086,-0.9918364232852355,1.0833905546654705,0.015259021896667946
1684782936370073,-1.022354467078685,0.7476920729380936,-0.16784924086368846
1684782936386061,-0.8087281605248791,0.6256198977645226,-0.045777065690117524
1684782936402049,-0.93080033569845,0.93080033569845,-0.2594033722438098
1684782936418037,-0.93080033569845,1.0833905546654705,-0.106813153276903
1684782936434025,-1.1139085984588064,1.266498817425827,-0.106813153276903
1684782936450013,-1.1139085984588064,1.2054627298390415,-0.1373311970702389
1684782936466001,-0.6866559853513081,0.9002822919051141,-0.07629510948345342
1684782936481994,-0.8392462043183286,0.9002822919051141,-0.38147554741738077
1684782936497982,-0.9002822919051141,0.7782101167315432,-0.22888532845047393
1684782936513970,-1.052872510872021,0.7171740291447577,-0.106813153276903
1684782936529958,-0.8392462043183286,0.5340657663844013,0.015259021896667946
1684782936545946,-0.7476920729380936,0.38147554741738077,0.1373311970702389
1684782936561934,-0.7782101167315432,0.5340657663844013,0.2899214160372594
1684782936577921,-0.8697642481116645,0.7782101167315432,0.3204394598305953
1684782936593909,-0.7476920729380936,0.41199359121083035,0.44251163500416624
1684782936609897,-0.5645838101777372,0.3509575036240449,0.38147554741738077
1684782936625885,-0.44251163500416624,0.2594033722438098,0.19836728465702436
1684782936641873,-0.5035477225909517,-0.045777065690117524,0.4730296787976158
1684782936657861,-0.015259021896667946,0.2594033722438098,0.5340657663844013
1684782936673849,-0.2594033722438098,0.8392462043183286,0.2594033722438098
1684782936689837,-0.22888532845047393,0.6256198977645226,-0.106813153276903
1684782936705824,-0.16784924086368846,0.2899214160372594,0.106813153276903
1684782936721812,-0.3204394598305953,0.38147554741738077,-0.07629510948345342
1684782936737800,-0.5951018539711868,0.6256198977645226,0.045777065690117524
1684782936753788,-0.7171740291447577,0.7171740291447577,0.1373311970702389
1684782936769776,-0.8392462043183286,0.6561379415579722,0.22888532845047393
1684782936785764,-0.9918364232852355,0.5951018539711868,-0.16784924086368846
1684782936801757,-1.1749446860455919,0.2899214160372594,-0.1373311970702389
1684782936817745,-1.1139085984588064,0.5035477225909517,-0.045777065690117524
1684782936833733,-1.144426642252256,1.1139085984588064,-0.07629510948345342
1684782936849721,-1.052872510872021,1.0833905546654705,0.015259021896667946
1684782936865709,-1.1749446860455919,1.0833905546654705,-0.3204394598305953
1684782936881697,-1.1749446860455919,0.7171740291447577,-0.3204394598305953
1684782936897685,-1.144426642252256,0.7171740291447577,-0.3509575036240449
1684782936913673,-1.022354467078685,0.6866559853513081,-0.106813153276903
1684782936929660,-0.9918364232852355,0.6866559853513081,0.106813153276903
1684782936945648,-1.052872510872021,0.7782101167315432,-0.1373311970702389
1684782936961636,-1.144426642252256,0.6561379415579722,-0.16784924086368846
1684782936977624,-1.1139085984588064,0.8697642481116645,-0.3204394598305953
1684782936993612,-0.9918364232852355,0.7782101167315432,-0.106813153276903
1684782937009600,-0.6561379415579722,0.9002822919051141,-0.2594033722438098
1684782937025588,-0.3509575036240449,0.38147554741738077,0.045777065690117524
1684782937041576,-0.41199359121083035,0.19836728465702436,0.015259021896667946
1684782937057563,-0.38147554741738077,0.5645838101777372,-0.1373311970702389
1684782937073551,-0.8087281605248791,0.8697642481116645,-0.2594033722438098
1684782937089539,-0.9613183794918996,1.1749446860455919,-0.2594033722438098
1684782937105527,-0.8392462043183286,1.1749446860455919,-0.2594033722438098
1684782937121460,-0.5951018539711868,1.0833905546654705,-0.015259021896667946
1684782937137447,-0.5035477225909517,0.6256198977645226,0.1373311970702389
1684782937153435,-0.2899214160372594,0.1373311970702389,0.015259021896667946
1684782937169423,-0.015259021896667946,0.1373311970702389,-0.38147554741738077
1684782937185411,-0.1373311970702389,0.5645838101777372,-0.41199359121083035
1684782937201399,-0.5645838101777372,0.6561379415579722,-0.1373311970702389
1684782937217387,-0.93080033569845,0.8392462043183286,-0.07629510948345342
1684782937233375,-1.2359807736323773,0.9613183794918996,-0.22888532845047393
1684782937249363,-1.3275349050126124,0.8392462043183286,-0.19836728465702436
1684782937265350,-1.1749446860455919,0.5035477225909517,-0.16784924086368846
1684782937281338,-1.0833905546654705,0.4730296787976158,0.015259021896667946
1684782937297326,-1.1139085984588064,0.6561379415579722,0.106813153276903
1684782937313314,-0.7171740291447577,0.7782101167315432,-0.015259021896667946
1684782937329302,-0.3204394598305953,0.4730296787976158,0.045777065690117524
1684782937345290,-0.1373311970702389,0.2594033722438098,0.3204394598305953
1684782937361278,-0.38147554741738077,0.5340657663844013,0.3509575036240449
1684782937377266,-0.8087281605248791,0.6561379415579722,0.6866559853513081
1684782937393253,-0.5951018539711868,0.22888532845047393,0.5340657663844013
1684782937409241,-0.38147554741738077,0.19836728465702436,0.4730296787976158
1684782937425229,-0.3204394598305953,0.045777065690117524,0.22888532845047393
1684782937441223,-0.6561379415579722,0.19836728465702436,0.07629510948345342
1684782937457211,-0.8392462043183286,0.6866559853513081,-0.19836728465702436
1684782937473199,-0.7171740291447577,0.41199359121083035,0.015259021896667946
1684782937489186,-0.5035477225909517,0.16784924086368846,0.2899214160372594
1684782937505174,-0.3509575036240449,0.5340657663844013,0.3204394598305953
1684782937521162,0.1373311970702389,0.38147554741738077,0.9002822919051141
1684782937537150,0.7476920729380936,0.015259021896667946,1.144426642252256
1684782937553138,0.8392462043183286,0.045777065690117524,0.6561379415579722
1684782937569126,0.93080033569845,-1.2359807736323773,0.6256198977645226
1684782937585114,0.9002822919051141,-1.7547875181201107,0.22888532845047393
1684782937601102,0.16784924086368846,-0.3509575036240449,-0.106813153276903
1684782937617089,0.16784924086368846,-0.6866559853513081,0.7171740291447577
1684782937633077,-0.1373311970702389,-0.16784924086368846,0.8697642481116645
1684782937649065,-0.106813153276903,-0.16784924086368846,0.5645838101777372
1684782937665053,-0.3204394598305953,0.2899214160372594,-0.106813153276903
1684782937681041,-0.6561379415579722,0.015259021896667946,-0.16784924086368846
1684782937697029,-0.8087281605248791,0.16784924086368846,-0.22888532845047393
1684782937713017,-0.8392462043183286,0.5035477225909517,-0.1373311970702389
1684782937729004,-0.7782101167315432,0.015259021896667946,-0.07629510948345342
1684782937744992,-0.8087281605248791,-0.3509575036240449,0.19836728465702436
1684782937760986,-0.8087281605248791,0.015259021896667946,-0.015259021896667946
1684782937776974,-0.7171740291447577,0.106813153276903,-0.106813153276903
1684782937792962,-0.6866559853513081,-0.2594033722438098,0.2899214160372594
1684782937808950,-0.6256198977645226,-0.07629510948345342,0.045777065690117524
1684782937824937,-0.7782101167315432,0.3509575036240449,-0.1373311970702389
1684782937840925,-0.8697642481116645,0.6561379415579722,-0.2899214160372594
1684782937856913,-0.8392462043183286,0.44251163500416624,-0.19836728465702436
1684782937872901,-1.052872510872021,0.7476920729380936,-0.16784924086368846
1684782937888889,-1.052872510872021,0.7476920729380936,-0.1373311970702389
1684782937904877,-0.9002822919051141,0.3509575036240449,-0.015259021896667946
1684782937920865,-0.8697642481116645,0.7476920729380936,-0.16784924086368846
1684782937936853,-0.9918364232852355,0.8697642481116645,-0.16784924086368846
1684782937952840,-1.1139085984588064,0.6866559853513081,-0.1373311970702389
1684782937968828,-1.1139085984588064,0.6561379415579722,-0.1373311970702389
1684782937984816,-1.052872510872021,0.7782101167315432,-0.3509575036240449
1684782938000804,-1.266498817425827,1.052872510872021,-0.5645838101777372
1684782938016792,-1.3885709925993979,1.2054627298390415,-0.5645838101777372
1684782938032780,-1.266498817425827,1.1749446860455919,-0.4730296787976158
1684782938048768,-1.1749446860455919,0.9918364232852355,-0.22888532845047393
1684782938064756,-0.9918364232852355,0.5951018539711868,-0.19836728465702436
1684782938080749,-0.8392462043183286,0.3509575036240449,-0.2594033722438098
1684782938096737,-0.8087281605248791,0.5340657663844013,-0.41199359121083035
1684782938112725,-0.8087281605248791,0.7171740291447577,-0.41199359121083035
1684782938128713,-1.022354467078685,1.266498817425827,-0.44251163500416624
1684782938144701,-1.2359807736323773,1.2970168612191628,-0.5340657663844013
1684782938160689,-1.2359807736323773,1.2054627298390415,-0.4730296787976158
1684782938176676,-1.022354467078685,0.7171740291447577,-0.1373311970702389
1684782938192664,-0.7782101167315432,0.6256198977645226,-0.1373311970702389
1684782938208652,-0.5951018539711868,0.41199359121083035,-0.1373311970702389
1684782938224640,-0.3509575036240449,0.106813153276903,-0.045777065690117524
1684782938240628,-0.2899214160372594,-0.045777065690117524,0.22888532845047393
1684782938256616,-0.16784924086368846,0.2594033722438098,0.38147554741738077
1684782938272604,-0.19836728465702436,0.4730296787976158,0.3509575036240449
1684782938288591,-0.19836728465702436,0.5035477225909517,0.07629510948345342
1684782938304579,-0.41199359121083035,0.2594033722438098,-0.2594033722438098
1684782938320567,-0.38147554741738077,-0.1373311970702389,-0.41199359121083035
1684782938336555,-0.22888532845047393,-0.106813153276903,-0.2594033722438098
1684782938352543,0.19836728465702436,-0.3509575036240449,0.106813153276903
1684782938368531,0.38147554741738077,-0.38147554741738077,0.1373311970702389
1684782938384519,0.4730296787976158,-0.5951018539711868,0.2594033722438098
1684782938400482,0.3204394598305953,-0.6561379415579722,0.1373311970702389
1684782938416470,0.2899214160372594,-0.5645838101777372,0.3509575036240449
1684782938432458,0.5340657663844013,-0.6866559853513081,0.6866559853513081
1684782938448445,0.6866559853513081,-0.6256198977645226,0.9918364232852355
1684782938464433,0.8087281605248791,-0.4730296787976158,0.8697642481116645
1684782938480421,1.022354467078685,-0.5035477225909517,0.8087281605248791
1684782938496409,0.6256198977645226,-0.015259021896667946,0.4730296787976158
1684782938512397,-0.2594033722438098,0.4730296787976158,0.22888532845047393
1684782938528385,-0.7171740291447577,0.8087281605248791,-0.015259021896667946
1684782938544373,-0.6866559853513081,0.6256198977645226,-0.015259021896667946
1684782938560361,-0.41199359121083035,0.5035477225909517,0.015259021896667946
1684782938576348,-0.3204394598305953,-0.106813153276903,0.22888532845047393
1684782938592336,-0.3509575036240449,-0.2594033722438098,0.44251163500416624
1684782938608324,-0.7476920729380936,0.5645838101777372,0.106813153276903
1684782938624312,-0.7476920729380936,0.5645838101777372,0.07629510948345342
1684782938640300,-0.2899214160372594,-0.07629510948345342,0.38147554741738077
1684782938656288,0.07629510948345342,-0.3509575036240449,0.5035477225909517
1684782938672276,0.3204394598305953,0.07629510948345342,0.22888532845047393
1684782938688264,0.41199359121083035,0.045777065690117524,0.41199359121083035
1684782938704251,0.3509575036240449,-0.106813153276903,0.38147554741738077
1684782938720214,0.106813153276903,0.07629510948345342,0.41199359121083035
1684782938736202,0.07629510948345342,-0.015259021896667946,0.3509575036240449
1684782938752189,0.045777065690117524,-0.41199359121083035,0.7782101167315432
1684782938768177,0.1373311970702389,-0.44251163500416624,0.9002822919051141
1684782938784164,-0.6561379415579722,0.2899214160372594,0.2899214160372594
1684782938800151,-1.3885709925993979,1.052872510872021,-0.4730296787976158
1684782938816139,-1.4496070801861833,1.2970168612191628,-0.7782101167315432
1684782938832126,-0.9918364232852355,0.8087281605248791,-0.8087281605248791
1684782938848114,-0.9002822919051141,0.5645838101777372,-1.052872510872021
1684782938864101,-0.7782101167315432,0.38147554741738077,-1.1749446860455919
1684782938880088,-0.6256198977645226,0.41199359121083035,-0.9918364232852355
1684782938896076,-0.3509575036240449,-0.22888532845047393,-0.2594033722438098
1684782938912063,0.1373311970702389,-0.19836728465702436,0.2594033722438098
1684782938928051,0.8087281605248791,-0.5035477225909517,0.16784924086368846
1684782938944038,1.144426642252256,-1.1749446860455919,0.6866559853513081
1684782938960025,1.022354467078685,-0.6256198977645226,0.3204394598305953
1684782938976013,0.44251163500416624,0.106813153276903,0.38147554741738077
1684782938992000,-0.015259021896667946,0.5951018539711868,0.19836728465702436
1684782939007988,-0.19836728465702436,0.015259021896667946,0.2899214160372594
1684782939023975,0.07629510948345342,-0.5340657663844013,0.16784924086368846
1684782939039978,0.44251163500416624,-0.6866559853513081,0.5035477225909517
1684782939055965,0.5645838101777372,-0.3509575036240449,0.44251163500416624
1684782939071952,0.8087281605248791,-0.5645838101777372,0.93080033569845
1684782939087940,1.052872510872021,-0.6866559853513081,1.052872510872021
1684782939103927,1.022354467078685,-0.9002822919051141,0.5645838101777372
1684782939119915,1.266498817425827,-1.4496070801861833,0.93080033569845
1684782939135902,0.93080033569845,-0.6256198977645226,0.6866559853513081
1684782939151889,0.22888532845047393,0.015259021896667946,0.8697642481116645
1684782939167877,0.2594033722438098,-0.2899214160372594,0.9002822919051141
1684782939183864,0.41199359121083035,0.106813153276903,0.5035477225909517
1684782939199852,4.592965590905578,6.0578316929884295,3.128099488822727
1684782939215839,-1.2359807736323773,3.3112077515830833,1.3580529488059483
1684782939231826,-0.045777065690117524,0.5035477225909517,0.9002822919051141
1684782939247814,0.4730296787976158,-0.44251163500416624,0.7476920729380936
1684782939263801,0.41199359121083035,-0.44251163500416624,0.44251163500416624
1684782939279789,0.16784924086368846,-0.3204394598305953,0.41199359121083035
1684782939295776,-0.106813153276903,0.015259021896667946,0.16784924086368846
1684782939311763,-0.16784924086368846,0.19836728465702436,0.22888532845047393
1684782939327751,-0.19836728465702436,0.3509575036240449,0.19836728465702436
1684782939343738,-0.045777065690117524,0.045777065690117524,-0.07629510948345342
1684782939359710,0.2594033722438098,-0.7476920729380936,-0.106813153276903
1684782939375698,0.6561379415579722,-0.7476920729380936,-0.19836728465702436
1684782939391685,0.6561379415579722,-0.4730296787976158,0.16784924086368846
1684782939407673,0.3204394598305953,-0.38147554741738077,0.7782101167315432
1684782939423660,-0.16784924086368846,0.015259021896667946,0.8087281605248791
1684782939439647,-0.38147554741738077,0.2594033722438098,0.44251163500416624
1684782939455635,-0.2594033722438098,0.1373311970702389,-0.015259021896667946
1684782939471622,-0.41199359121083035,0.07629510948345342,-0.16784924086368846
1684782939487609,-0.6256198977645226,0.015259021896667946,-0.045777065690117524
1684782939503597,-0.7782101167315432,0.8087281605248791,-0.3204394598305953
1684782939519584,-1.2359807736323773,1.2359807736323773,-0.6561379415579722
1684782939535572,-0.7476920729380936,0.3204394598305953,-0.106813153276903
1684782939551559,-0.5951018539711868,0.5035477225909517,0.1373311970702389
1684782939567546,-0.6561379415579722,0.5951018539711868,0.07629510948345342
1684782939583534,-0.5035477225909517,0.2594033722438098,0.045777065690117524
1684782939599521,-0.44251163500416624,0.015259021896667946,-0.106813153276903
1684782939615509,-0.4730296787976158,-0.19836728465702436,-0.19836728465702436
1684782939631496,-0.4730296787976158,-0.07629510948345342,-0.045777065690117524
1684782939647483,-0.5645838101777372,0.4730296787976158,-0.19836728465702436
1684782939663471,-0.9002822919051141,0.9918364232852355,-0.3204394598305953
1684782939679474,-0.9918364232852355,0.9918364232852355,-0.22888532845047393
1684782939695461,-0.9613183794918996,0.7476920729380936,-0.16784924086368846
1684782939711448,-0.9613183794918996,0.93080033569845,-0.2899214160372594
1684782939727436,-0.93080033569845,0.7476920729380936,-0.3509575036240449
1684782939743423,-0.9918364232852355,0.6561379415579722,-0.2899214160372594
1684782939759410,-0.9918364232852355,0.7782101167315432,-0.22888532845047393
1684782939775398,-1.1749446860455919,0.7171740291447577,-0.3509575036240449
1684782939791385,-1.022354467078685,0.41199359121083035,-0.2594033722438098
1684782939807373,-0.9613183794918996,0.5645838101777372,-0.3509575036240449
1684782939823360,-1.266498817425827,0.7171740291447577,-0.3204394598305953
1684782939839347,-1.3275349050126124,0.8697642481116645,-0.38147554741738077
1684782939855335,-0.8087281605248791,0.3204394598305953,0.07629510948345342
1684782939871322,-0.6256198977645226,0.7782101167315432,0.045777065690117524
1684782939887310,-0.5035477225909517,0.5951018539711868,0.106813153276903
1684782939903297,-0.3509575036240449,0.16784924086368846,0.07629510948345342
1684782939919284,-0.3204394598305953,-0.106813153276903,0.07629510948345342
1684782939935272,-0.22888532845047393,-0.1373311970702389,0.38147554741738077
1684782939951259,-0.106813153276903,-0.045777065690117524,0.5951018539711868
1684782939967247,0.015259021896667946,0.015259021896667946,0.5645838101777372
1684782939983234,0.045777065690117524,-0.045777065690117524,0.38147554741738077
1684782939999237,-0.3204394598305953,0.1373311970702389,-0.015259021896667946
1684782940015224,-0.7476920729380936,0.4730296787976158,-0.2594033722438098
1684782940031211,-0.9918364232852355,0.6256198977645226,-0.3509575036240449
1684782940047199,-1.144426642252256,0.7171740291447577,-0.19836728465702436
1684782940063186,-1.1749446860455919,0.8697642481116645,-0.16784924086368846
1684782940079174,-1.266498817425827,0.8087281605248791,-0.3204394598305953
1684782940095161,-1.266498817425827,0.7782101167315432,-0.3509575036240449
1684782940111148,-1.3580529488059483,0.4730296787976158,-0.19836728465702436
1684782940127136,-1.0833905546654705,1.1749446860455919,-0.3204394598305953
1684782940143123,-0.93080033569845,0.7782101167315432,0.015259021896667946
1684782940159111,-0.8697642481116645,0.4730296787976158,0.07629510948345342
1684782940175098,-0.7171740291447577,0.22888532845047393,0.19836728465702436
1684782940191085,-0.5645838101777372,0.41199359121083035,-0.16784924086368846
1684782940207073,-0.6256198977645226,0.3204394598305953,-0.16784924086368846
1684782940223060,-0.6561379415579722,0.22888532845047393,-0.015259021896667946
1684782940239048,-0.8392462043183286,0.5951018539711868,-0.045777065690117524
1684782940255035,-1.052872510872021,0.7782101167315432,-0.19836728465702436
1684782940271022,-1.052872510872021,0.7782101167315432,-0.16784924086368846
1684782940287010,-1.022354467078685,0.6256198977645226,-0.41199359121083035
1684782940302997,-0.93080033569845,0.16784924086368846,-0.1373311970702389
1684782940318969,-1.022354467078685,0.3204394598305953,-0.3204394598305953
1684782940334957,-0.9002822919051141,0.41199359121083035,-0.19836728465702436
1684782940350944,-1.0833905546654705,0.5951018539711868,-0.106813153276903
1684782940366932,-0.9918364232852355,0.5340657663844013,0.07629510948345342
1684782940382919,-0.9613183794918996,0.7782101167315432,-0.22888532845047393
1684782940398906,-1.0833905546654705,0.8087281605248791,-0.3509575036240449
1684782940414894,-1.3580529488059483,0.38147554741738077,-0.41199359121083035
1684782940430881,-1.3885709925993979,0.7171740291447577,-0.5645838101777372
1684782940446869,-1.5411612115663047,0.2594033722438098,0.19836728465702436
1684782940462856,-0.6561379415579722,-0.106813153276903,0.16784924086368846
1684782940478843,-0.5340657663844013,-0.106813153276903,0.41199359121083035
1684782940494831,-0.41199359121083035,-0.7476920729380936,0.5340657663844013
1684782940510818,-0.4730296787976158,-0.9918364232852355,0.5340657663844013
1684782940526806,-0.7782101167315432,-0.41199359121083035,0.1373311970702389
1684782940542793,-0.8697642481116645,0.106813153276903,-0.19836728465702436
1684782940558780,-1.0833905546654705,0.4730296787976158,-0.16784924086368846
1684782940574768,-1.144426642252256,0.5645838101777372,0.045777065690117524
1684782940590755,-1.144426642252256,0.8697642481116645,0.045777065690117524
1684782940606742,-1.4190890363927338,0.9002822919051141,-0.1373311970702389
1684782940622730,-1.2970168612191628,0.7782101167315432,-0.106813153276903
1684782940638733,-1.144426642252256,0.5035477225909517,-0.38147554741738077
1684782940654720,-0.9918364232852355,0.3204394598305953,-0.2594033722438098
1684782940670707,-1.052872510872021,0.5645838101777372,-0.22888532845047393
1684782940686695,-1.022354467078685,0.7476920729380936,-0.22888532845047393
1684782940702682,-0.9002822919051141,0.6256198977645226,-0.22888532845047393
1684782940718670,-0.7171740291447577,0.6256198977645226,-0.16784924086368846
1684782940734657,-0.5035477225909517,0.44251163500416624,-0.2899214160372594
1684782940750644,-0.3509575036240449,-0.41199359121083035,0.07629510948345342
1684782940766632,-0.106813153276903,-0.16784924086368846,0.3509575036240449
1684782940782619,-0.07629510948345342,-0.4730296787976158,0.7476920729380936
1684782940798606,-0.1373311970702389,-0.5951018539711868,1.0833905546654705
1684782940814594,-0.07629510948345342,-0.2899214160372594,0.6256198977645226
1684782940830581,0.2594033722438098,-0.8392462043183286,0.5645838101777372
1684782940846569,0.3509575036240449,-0.5340657663844013,0.4730296787976158
1684782940862556,0.106813153276903,0.015259021896667946,0.106813153276903
1684782940878543,0.16784924086368846,-0.7476920729380936,0.41199359121083035
1684782940894531,0.1373311970702389,-1.4190890363927338,0.93080033569845
1684782940910518,-1.4801251239795192,-1.3885709925993979,-0.4730296787976158
1684782940926506,-1.9073777370870175,-0.7171740291447577,-1.7242694743266611
1684782940942493,-1.846341649500232,0.16784924086368846,-2.4872205691615363
1684782940958465,-0.7476920729380936,-0.6866559853513081,-2.0294499122605885
1684782940974453,-1.3580529488059483,-0.2594033722438098,-1.4496070801861833
1684782940990440,0.5951018539711868,-0.3204394598305953,-1.2054627298390415
1684782941006427,3.0365453574426056,-1.937895780880467,-1.022354467078685
1684782941022415,5.386434729533789,-3.128099488822727,-1.9989318684672526
1684782941038402,6.88181887541009,-1.4801251239795192,-4.776073853665935
1684782941054390,9.353780422674845,14.114595254444112,2.0294499122605885
1684782941070377,14.480811779964824,23.05638208590824,1.937895780880467
1684782941086364,17.288471808956956,6.179903868162,4.562447547112242
1684782941102352,14.02304112306399,7.40062561989771,3.891050583657602
1684782941118339,12.497138933394353,12.375066758220783,0.045777065690117524
1684782941134327,10.299839780270077,1.2359807736323773,-3.0365453574426056
1684782941150314,14.328221560997918,12.52765697718769,-5.874723430228073
1684782941166301,10.08621347371627,1.8158236057068962,-2.090485999847374
1684782941182289,13.565270466163042,-0.6256198977645226,-3.0670634012359415
1684782941198276,1.0833905546654705,1.144426642252256,6.301976043335571
1684782941214264,4.287785152971651,7.278553444724139,-1.6327153429465397
1684782941230251,0.6866559853513081,2.30411230640118,0.015259021896667946
1684782941246238,-0.045777065690117524,-3.128099488822727,2.6703288319218927
1684782941262226,5.050736247806526,-5.2338445105668825,4.562447547112242
1684782941278228,5.9357595178148586,-6.21042191195545,4.562447547112242
1684782941294216,5.264362554360218,-7.278553444724139,5.142290379186647
1684782941310203,4.531929503318793,-10.299839780270077,10.299839780270077
1684782941326191,3.4943160143434397,-11.825741969939713,16.342412451361838
1684782941342178,5.966277561608308,-18.6617837796598,19.882505531395395
1684782941358165,4.86762798504617,-19.394216830701225,18.631265735866236
1684782941374153,7.125963225757232,-2.334630350194516,12.954909590295188
1684782941390140,5.203326466773433,-5.661097123674381,13.473716334782921
1684782941406128,6.21042191195545,-14.57236591134506,13.107499809262208
1684782941422115,7.370107576104374,-21.77462424658586,16.525520714122194
1684782941438102,1.7853055619134466,-23.971923399710136,29.068436713206665
1684782941454090,-21.042191195544433,-34.16495002670331,35.47722590981925
1684782941470077,-25.314717326619416,-58.85404745555809,40.970473792629946
1684782941486065,-26.779583428702267,-95.78088044556341,46.58579385061421
1684782941502052,-29.251544975967022,-119.73754482337688,44.20538643472969
1684782941518039,-30.685893034256537,-98.619058518349,29.190508888380236
1684782941534027,-16.708628976882665,-81.1322194247349,12.222476539253762
1684782941550014,20.34027618829623,-63.065537499046286,19.424734874494447
1684782941566002,58.213168535896784,-32.60852979324022,31.84557869840546
1684782941581989,136.85816739147026,17.80727855344469,24.979018844891925
1684782941597992,202.83817807278547,97.30678263523328,-13.3211261158159
1684782941613979,55.58861676966512,66.94132906080722,-29.983978027008447
1684782941629966,38.89524681467924,26.565957122148347,-18.966964217593727
1684782941645954,-13.35164415960935,-18.387121385519208,-10.11673151750972
1684782941661941,4.531929503318793,4.83710994125272,-7.339589532310924
1684782941677929,26.199740596627635,39.13939116502638,-19.05851834897385
1684782941693916,3.1586175326161765,11.398489356832215,-32.333867399099745
1684782941709903,-14.419775692378039,-15.091172655832679,-30.685893034256537
1684782941725891,15.426871137560056,16.15930418860148,-14.480811779964824
1684782941741878,3.372243839169869,7.705806057831637,-1.6632333867398756
1684782941757866,-7.431143663691159,0.5645838101777372,-1.6021972991530902
1684782941773853,1.4801251239795192,8.499275196459848,-6.851300831616641
1684782941789840,-0.38147554741738077,8.255130846112706,-9.29274433508806
1684782941805828,-2.212558175020945,4.989700160219741,-9.842069123369129
1684782941821815,-4.684519722285813,-0.6256198977645226,-10.78812848096436
1684782941837803,-2.3651483939879654,2.1515220874341594,-10.08621347371627
1684782941853790,7.675288014038301,6.790264744029855,-5.0202182040130765
1684782941869777,1.8158236057068962,-0.44251163500416624,1.7547875181201107
1684782941885765,-1.1139085984588064,-3.6469062333104603,4.013122758831173
1684782941901752,-1.2970168612191628,-3.0670634012359415,6.454566262302592
1684782941917724,-2.97550926985582,-3.4027618829633184,4.348821240558436
1684782941933712,0.7171740291447577,0.7476920729380936,1.8768596932936816
1684782941949699,1.846341649500232,2.761882963302014,2.090485999847374
1684782941965686,4.623483634699028,2.334630350194516,8.22461280231937
1684782941981674,0.045777065690117524,-2.6703288319218927,13.778896772716848
1684782941997661,-1.2970168612191628,-3.341725795376533,13.962005035477205
1684782942013649,-3.006027313649156,-0.2594033722438098,4.684519722285813
1684782942029636,0.7476920729380936,4.287785152971651,-1.8158236057068962
1684782942045623,0.5035477225909517,2.090485999847374,2.4872205691615363
1684782942061611,-1.6937514305333252,-1.8158236057068962,5.752651255054502
1684782942077598,0.3204394598305953,0.07629510948345342,1.6021972991530902
1684782942093586,2.1515220874341594,2.212558175020945,-0.8697642481116645
1684782942109573,0.8697642481116645,0.07629510948345342,0.8087281605248791
1684782942125560,-1.3580529488059483,-0.9613183794918996,0.8392462043183286
1684782942141548,1.2359807736323773,1.8768596932936816,-0.3204394598305953
1684782942157535,-0.07629510948345342,1.6937514305333252,-1.7547875181201107
1684782942173523,-0.4730296787976158,0.7782101167315432,-1.1139085984588064
1684782942189510,-0.6561379415579722,0.19836728465702436,0.015259021896667946
1684782942205497,-0.7782101167315432,0.9002822919051141,-1.4801251239795192
1684782942221485,1.5411612115663047,3.372243839169869,-2.548256656748322
1684782942237487,0.07629510948345342,3.097581445029391,-1.7853055619134466
1684782942253475,-1.7547875181201107,3.341725795376533,-5.294880598153668
1684782942269462,0.8392462043183286,5.386434729533789,-6.790264744029855
1684782942285450,1.8768596932936816,3.006027313649156,-1.846341649500232
1684782942301437,-2.3956664377813013,-2.30411230640118,1.7853055619134466
1684782942317424,-0.5951018539711868,-0.5340657663844013,0.8697642481116645
1684782942333412,0.7171740291447577,1.937895780880467,-1.9073777370870175
1684782942349399,-1.4801251239795192,-0.5035477225909517,-1.3580529488059483
1684782942365387,-3.2806897077897474,-0.16784924086368846,0.9002822919051141
1684782942381374,-0.1373311970702389,1.9989318684672526,-0.9002822919051141
1684782942397361,-0.93080033569845,0.9918364232852355,-3.0365453574426056
1684782942413349,-0.6256198977645226,1.7853055619134466,-1.5716792553597543
1684782942429336,-0.07629510948345342,0.5340657663844013,-0.015259021896667946
1684782942445324,-3.585870145723675,-2.6092927443351073,-0.16784924086368846
1684782942461311,1.846341649500232,0.5645838101777372,-0.6256198977645226
1684782942477298,1.5716792553597543,-0.7476920729380936,0.2899214160372594
1684782942493286,-3.1586175326161765,-3.0670634012359415,0.8697642481116645
1684782942509273,-1.846341649500232,0.8392462043183286,-0.7171740291447577
1684782942525261,-0.9918364232852355,3.4943160143434397,-3.219653620202962
1684782942541248,-1.2970168612191628,2.2735942626077303,-2.6703288319218927
1684782942557220,-1.846341649500232,0.2594033722438098,-0.93080033569845
1684782942573207,0.3509575036240449,1.5411612115663047,-0.6561379415579722
1684782942589195,-1.2970168612191628,-0.5645838101777372,-1.6937514305333252
1684782942605182,0.2594033722438098,2.3651483939879654,-0.6256198977645226
1684782942621170,0.22888532845047393,1.9073777370870175,-2.0294499122605885
1684782942637157,-1.937895780880467,0.8392462043183286,-2.6092927443351073
1684782942653144,-0.5035477225909517,3.1891355764095124,-2.853437094682249
1684782942669132,-1.1749446860455919,2.1515220874341594,-3.1891355764095124
1684782942685119,-2.182040131227609,1.2054627298390415,-2.761882963302014
1684782942701107,-0.9002822919051141,1.9073777370870175,-2.2430762188143945
1684782942717094,0.9918364232852355,1.6021972991530902,-1.6327153429465397
1684782942733081,-1.9073777370870175,-1.4496070801861833,0.5035477225909517
1684782942749069,-0.5645838101777372,-0.8087281605248791,1.6632333867398756
1684782942765056,-1.3275349050126124,-0.16784924086368846,-0.07629510948345342
1684782942781044,1.5411612115663047,-0.07629510948345342,-0.5951018539711868
1684782942797031,-3.4027618829633184,-4.623483634699028,1.968413824673803
1684782942813018,0.9002822919051141,0.1373311970702389,0.6561379415579722
1684782942829006,-2.853437094682249,0.2899214160372594,-2.426184481574751
1684782942844993,0.07629510948345342,3.677424277103796,-2.8229190508887996
1684782942860981,-1.2359807736323773,2.2735942626077303,-2.212558175020945
1684782942876983,-2.30411230640118,-0.19836728465702436,-1.5716792553597543
1684782942892971,-1.022354467078685,0.6561379415579722,-1.4801251239795192
1684782942908958,-0.1373311970702389,1.6327153429465397,-1.9989318684672526
1684782942924945,-0.8392462043183286,0.38147554741738077,-0.9002822919051141
1684782942940933,-1.4496070801861833,-0.3204394598305953,-1.846341649500232
1684782942956920,0.8392462043183286,1.144426642252256,-1.6327153429465397
1684782942972908,-0.5340657663844013,-0.6561379415579722,0.6561379415579722
1684782942988895,-0.19836728465702436,-0.2594033722438098,0.7476920729380936
1684782943004882,0.9002822919051141,0.5340657663844013,-0.3204394598305953
1684782943020870,0.44251163500416624,0.38147554741738077,0.2594033722438098
1684782943036857,-0.8392462043183286,0.2594033722438098,-0.2899214160372594
1684782943052845,1.3885709925993979,2.059967956054038,-0.6256198977645226
1684782943068832,0.07629510948345342,0.6561379415579722,-1.4190890363927338
1684782943084819,0.7171740291447577,1.2359807736323773,-1.4801251239795192
1684782943100807,0.9918364232852355,0.9918364232852355,-2.1210040436408235
1684782943116794,1.5106431677729688,0.9918364232852355,-0.93080033569845
1684782943132782,0.6561379415579722,-0.07629510948345342,-0.3204394598305953
1684782943148769,0.5951018539711868,-1.144426642252256,-1.1139085984588064
1684782943164756,0.22888532845047393,-0.5035477225909517,-1.4496070801861833
1684782943180744,-0.16784924086368846,-0.5645838101777372,-3.0670634012359415
1684782943196716,-1.937895780880467,0.4730296787976158,-2.9449912260623705
1684782943212703,-0.41199359121083035,2.0294499122605885,-1.6021972991530902
1684782943228691,-1.8768596932936816,0.9002822919051141,-0.9002822919051141
1684782943244678,0.5645838101777372,1.5106431677729688,-2.1210040436408235
1684782943260666,1.6632333867398756,1.7853055619134466,-1.7547875181201107
1684782943276653,-1.266498817425827,-1.266498817425827,-0.6561379415579722
1684782943292640,-0.7171740291447577,-1.7242694743266611,-0.106813153276903
1684782943308628,0.5340657663844013,-1.0833905546654705,0.6256198977645226
1684782943324615,-0.6256198977645226,-2.761882963302014,1.1139085984588064
1684782943340602,-0.7476920729380936,-2.182040131227609,0.9613183794918996
1684782943356590,0.9613183794918996,-0.5035477225909517,1.4801251239795192
1684782943372577,1.8158236057068962,-0.41199359121083035,4.013122758831173
1684782943388565,0.8087281605248791,-2.426184481574751,6.912336919203426
1684782943404552,2.1210040436408235,-5.477988860914024,10.421911955443647
1684782943420539,1.3275349050126124,-13.382162203402686,11.97833218890662
1684782943436527,-5.630579079880931,-22.476539253833835,16.525520714122194
1684782943452514,-1.6021972991530902,-21.34737163347836,14.633401998931845
1684782943468502,4.592965590905578,-18.966964217593727,13.656824597543277
1684782943484489,12.893873502708402,-17.654688334477783,23.05638208590824
1684782943500476,13.076981765468759,-23.48363469901585,35.782406347753295
1684782943516479,25.89456015869382,-24.97901884489204,48.966201266498956
1684782943532467,10.482948043030433,-32.82215609979403,56.29053177691321
1684782943548454,26.718547341115254,-20.859082932784077,50.827801937895856
1684782943564441,35.843442435339966,-15.732051575494097,45.94491493095302
1684782943580429,34.0123598077364,-32.79163805600058,59.00663767452511
1684782943596416,37.03364614328234,-24.795910582131683,57.694361791409165
1684782943612403,34.71427481498449,-39.50560769054698,62.02792401007105
1684782943628391,12.710765239948046,-55.680170901045244,65.90371557183175
1684782943644378,7.156481269550568,-54.36789501792941,56.56519417105369
1684782943660366,4.257267109178315,-44.26642252231625,38.01022354467091
1684782943676353,10.63553826199734,-32.60852979324022,20.187685969329323
1684782943692340,14.847028305485537,-20.5233844510567,4.043640802624509
1684782943708328,6.820782787823305,-17.013809414816592,-8.682383459220205
1684782943724315,9.689478904402222,-19.913023575188845,-5.203326466773433
1684782943740303,2.426184481574751,-28.122377355611548,5.844205386434737
1684782943756290,-8.682383459220205,-34.8058289463645,10.299839780270077
1684782943772277,-25.741969939726914,-26.932173647669174,10.269321736476627
1684782943788265,-37.39986266880294,-25.436789501792987,-1.266498817425827
1684782943804252,-34.866865033951285,-5.691615167467717,-0.7171740291447577
1684782943820240,-38.52903028915841,19.851987487601946,1.3580529488059483
1684782943836242,-47.53185320820944,38.986800946059475,6.088349736781879
1684782943852230,-38.223849851224486,55.49706263828489,25.040054932478824
1684782943868217,-18.600747692073014,61.722743572137006,65.81216144045175
1684782943884204,-16.800183108262786,69.32173647669174,111.80285343709465
1684782943900192,34.59220263981092,106.95048447394538,132.55512321660171
1684782943916179,19.0280003051804,96.14709697108424,175.70763714045938
1684782943932167,-12.64972915236126,40.39063096055543,219.1958495460442
1684782943948154,-119.76806286717022,15.701533531700534,218.24979018844874
1684782943964141,-168.99366750591287,-22.4460212100405,278.70603494316015
1684782943980129,-84.97749294270238,42.893110551613745,215.1369497215228
1684782943996116,-123.67437247272449,-24.490730144197755,224.62806134126822
1684782944012104,-40.90943770504305,-51.102464332036334,234.57694361791414
1684782944028091,52.78095674067299,-8.1025406271458,201.58693827725642
1684782944044078,-110.76523994811942,-7.492179751277945,217.66994735637445
1684782944060066,-76.73762111848623,19.089036392767184,222.06454566262323
1684782944076053,-19.33318074311444,38.681620508125434,223.55992980849942
1684782944092041,-39.68871595330734,52.32318608377204,250.41580834668503
1684782944108028,-22.323949034866928,50.46158541237514,254.35263599603263
1684782944124015,4.776073853665935,64.31677729457533,242.84733348592363
1684782944140003,27.664606698710486,81.6510261692224,234.3938353551539
1684782944155975,14.206149385824347,66.11734187838556,185.2903028915846
1684782944171962,13.99252307927054,81.5594720378424,159.59411001754802
1684782944187950,-16.037232013428024,63.584344243533906,132.79926756694886
1684782944203937,-63.82848859388116,3.4332799267566543,127.06187533379102
1684782944219925,-81.10170138094156,-71.97680628671696,135.24071107042028
1684782944235912,-77.74471656366825,-112.35217822537584,142.71763179980167
1684782944251899,38.89524681467924,-32.730601968413794,74.90653849088267
1684782944267887,12.619211108567924,-22.842755779354547,28.305485618371677
1684782944283874,-67.58220798046841,-75.15068284122981,92.54596780346378
1684782944299862,-87.60204470893416,-70.38986800946054,130.29678797589077
1684782944315849,-113.26771953917762,-85.00801098649583,159.4415197985811
1684782944331836,-46.585793850614095,-55.31395437552453,157.76302738994445
1684782944347824,-41.611352712291136,6.393530174715806,172.10650797283893
1684782944363811,-58.243686579690234,-15.396353093766606,106.85893034256515
1684782944379799,-119.09666590371558,-12.985427634088637,-15.915159838254453
1684782944395786,-127.21446555275804,-17.624170290684447,-49.7901884489205
1684782944411773,-92.82063019760437,8.987563897154132,-58.945601586938324
1684782944427761,-68.68085755703055,9.475852597848416,-81.3458457312887
1684782944443748,-58.12161440451666,31.937132829785696,-88.94483863584344
1684782944459735,-66.30045014114592,13.778896772716848,-95.90295262073698
1684782944475708,-82.4139772640574,18.6007476920729,-104.72266727702754
1684782944491695,-87.75463492790118,31.754024567025454,-149.03486686503402
1684782944507682,-82.38345922026406,34.98893720912497,-198.47409781033036
1684782944523670,-69.50484473945221,56.656748302433925,-242.9694056610972
1684782944539657,-44.81574731059732,65.93423361562532,-277.1190966659037
1684782944555645,-27.93926909285119,74.845502403296,-284.9622339208057
1684782944571632,-20.12664988174265,35.50774395361259,-256.85511558709084
1684782944587619,-26.657511253528696,26.138704509040963,-208.4229800869765
1684782944603607,-20.920119020370862,16.769665064469336,-149.27901121538116
1684782944619594,-36.60639353017473,-10.574502174410554,-106.1264972915236
1684782944635582,-43.68657969024184,9.842069123369129,-83.29900053406584
1684782944651569,-52.567330434119185,49.301899748226106,-96.75745784695198
1684782944667556,-50.94987411306943,58.24368657969035,-109.9717708094912
1684782944683544,-60.502021820401296,32.60852979324045,-97.73403524834055
1684782944699531,-54.062714579995486,-4.898146028839506,-57.32814526588845
1684782944715519,-72.98390173189898,-30.22812237735559,-22.56809338521407
1684782944731506,-51.71282520790419,-29.67879758907452,0.8087281605248791
1684782944747493,-29.495689326314164,-30.411230640115946,-17.105363546196713
1684782944763481,-30.869001297016894,5.294880598153668,-39.20042725261305
1684782944779468,-43.68657969024184,31.418326085298077,-79.270618753338
1684782944795471,-60.34943160143439,49.1493095292592,-100.66376745250625
1684782944811458,-33.46303501945522,79.48424505989169,-124.34576943617913
1684782944827446,-58.67093919279773,55.9243152513925,-98.37491416800185
1684782944843433,-61.69222552834367,33.40199893186855,-58.27420462348368
1684782944859420,-24.948500801098703,16.769665064469336,-14.66392004272518
1684782944875408,-17.898832684824924,-44.38849469748982,34.439612420844014
1684782944891395,-18.997482261387063,-84.73334859235524,58.15213244831011
1684782944907383,-40.39063096055543,-99.38200961318375,48.11169604028396
1684782944923370,-69.9931334401465,-80.7049668116274,13.19905394064233
1684782944939357,-89.06691081101701,-50.76676585030907,-25.314717326619416
1684782944955345,-74.02151522087433,-21.957732509346215,-50.76676585030907
1684782944971332,-40.63477531090257,7.888914320591994,-31.60143434805832
1684782944987320,-9.353780422674845,-3.9520866712443876,-11.062790875104838
1684782945003307,13.595788509956492,-31.326771953917728,14.02304112306399
1684782945019294,22.812237735561098,-53.45235370412763,29.922941939421662
1684782945035282,37.18623636224925,-46.707866025787666,47.837033646143254
1684782945051269,50.85831998168919,-25.314717326619416,64.95765621423675
1684782945067257,48.783093003738486,10.330357824063412,54.551003280689656
1684782945083244,57.999542229343206,41.91653315022518,58.518348973830825
1684782945099231,39.78027008468757,2.212558175020945,75.42534523537029
1684782945115234,-0.015259021896667946,-50.79728389410241,72.46509498741125
1684782945131221,-10.147249561303056,-55.58861676966512,58.335240711070355
1684782945147209,-15.548943312733627,-34.43961242084379,33.82925154497616
1684782945163196,26.260776684214534,9.56740672922865,38.803692683299005
1684782945179184,44.48004882887017,23.02586404211479,33.981841763943066
1684782945195171,18.57022964827945,9.018081940947582,0.5951018539711868
1684782945211158,23.239490348668596,24.216067750057164,-22.873273823147997
1684782945227146,13.687342641336613,18.112458991378617,-18.875410086213492
1684782945243133,7.248035400930803,9.56740672922865,2.059967956054038
1684782945259121,24.67383840695811,15.121690699626129,19.058518348973735
1684782945275108,20.8896009765773,4.16571297779808,18.081940947585167
1684782945291095,33.0052643625545,-4.379339284351886,0.22888532845047393
1684782945307083,37.27779049362948,-3.0365453574426056,1.8158236057068962
1684782945323070,27.45098039215668,3.799496452277367,-0.106813153276903
1684782945339058,51.59075303273062,29.037918669413102,12.375066758220783
1684782945355045,29.49568932631405,5.813687342641288,24.42969405661097
1684782945371032,9.262226291294724,-28.61066605630583,25.314717326619302
1684782945387020,14.236667429617683,-3.768978408484031,8.041504539559014
1684782945403007,13.656824597543277,23.361562523842167,-11.367971313038765
1684782945418995,13.107499809262208,21.072709239337655,-15.487907225146841
1684782945434967,3.463797970550104,17.80727855344469,-15.274280918593035
1684782945450954,9.903105210955914,16.31189440756839,-11.154345006485073
1684782945466941,1.6632333867398756,12.558175020981139,-12.588693064774475
1684782945482929,4.470893415732007,8.346684977492941,-10.238803692683291
1684782945498916,7.3090714885175885,9.506370641641865,-8.163576714732585
1684782945514904,10.75761043717091,11.032272831311502,-3.372243839169869
1684782945530891,4.074158846417959,2.97550926985582,2.9144731822690346
1684782945546878,-0.9002822919051141,-7.1869993133440175,8.987563897154132
1684782945562866,1.8768596932936816,-11.825741969939713,17.01380941481648
1684782945578853,-22.4460212100405,-25.77248798352025,28.73273823147929
1684782945594841,3.5248340581368893,-10.971236743724717,29.709315632867856
1684782945610828,7.431143663691159,-7.705806057831637,26.474402990768112
1684782945626815,-7.248035400930803,-22.201876859693357,33.798733501182596
1684782945642803,13.717860685130063,-16.037232013428024,16.800183108262672
1684782945658790,-0.07629510948345342,-17.99038681620516,2.2430762188143945
1684782945674778,5.53902494850081,-9.44533455405508,-2.4872205691615363
1684782945690765,-2.090485999847374,-10.391393911650198,-5.722133211261166
1684782945706752,-13.656824597543277,-11.97833218890662,-10.269321736476627
1684782945722740,-1.4190890363927338,1.2054627298390415,-11.581597619592571
1684782945738727,-7.797360189211872,-1.8158236057068962,-14.999618524452558
1684782945754730,1.3885709925993979,-0.3204394598305953,-16.89173723964302
1684782945770717,13.931486991683755,-11.764705882352928,-18.356603341725872
1684782945786705,16.617074845502316,-27.206836041809765,-19.119554436560634
1684782945802692,15.793087663080769,-14.602883955138395,-37.979705500877344
1684782945818679,15.030136568245894,-6.912336919203426,-61.875333791104026
1684782945834667,20.06561379415575,24.42969405661097,-71.79369802395661
1684782945850654,7.614251926451516,19.638361181048253,-51.19401846341657
1684782945866642,7.461661707484495,2.5177386129548722,-35.26359960326545
1684782945882629,5.2338445105668825,-18.295567254139087,-14.602883955138395
1684782945898616,18.539711604486115,-17.44106202792409,-20.0961318379492
1684782945914604,36.91157396810877,-1.8768596932936816,-29.892423895628326
1684782945930591,23.910887312123236,-2.4872205691615363,-53.54390783550775
1684782945946579,14.450293736171488,10.391393911650198,-62.05844205386438
1684782945962566,9.079118028534367,27.267872129396437,-59.037155718318445
1684782945978553,1.5716792553597543,39.87182421606781,-42.43533989471268
1684782945994541,4.409857328145222,27.542534523536915,-18.78385595483337
1684782946010528,12.252994583047212,16.525520714122194,3.6469062333104603
1684782946026516,26.99320973525596,-0.4730296787976158,19.11955443656052
1684782946042503,14.785992217898752,-27.969787136644527,24.12451361867693
1684782946058490,25.955596246280493,-13.412680247196135,17.25795376516362
1684782946074463,3.677424277103796,-13.19905394064233,-11.398489356832215
1684782946090450,-2.7924010070954637,4.074158846417959,-37.582970931563295
1684782946106437,-4.654001678492364,16.891737239642907,-54.18478675516906
1684782946122425,-13.138017853055544,13.748378728923399,-45.85336079957267
1684782946138412,-22.629129472800855,20.798046845197177,-38.19333180743115
1684782946154399,12.191958495460426,31.78454261081879,-22.232394903486693
1684782946170387,10.025177386129485,10.11673151750972,-18.478675516899443
1684782946186374,-22.29343099107348,6.118867780575215,-23.33104448004883
1684782946202362,11.917296101319835,39.16990920881972,-26.35233081559477
1684782946218349,-5.050736247806526,27.05424582284263,-33.98184176394295
1684782946234336,-28.274967574578454,13.931486991683755,-26.56595712214846
1684782946250324,-6.851300831616641,24.94850080109859,-2.426184481574751
1684782946266311,-7.40062561989771,6.240939955748786,28.0308232242312
1684782946282299,0.9918364232852355,-6.393530174715806,42.496375982299696
1684782946298286,1.8768596932936816,-6.912336919203426,38.77317463950567
1684782946314273,-6.2714579995422355,4.470893415732007,11.184863050278409
1684782946330261,-8.438239108873063,12.375066758220783,-8.07202258335235
1684782946346248,-10.08621347371627,10.147249561303056,-8.560311284046634
1684782946362236,2.639810788128443,8.804455634393776,7.858396276798658
1684782946378223,3.6163881895170107,-4.226749065384865,30.31967650873571
1684782946394226,19.729915312428375,-11.551079575799122,37.582970931563295
1684782946410213,19.39421683070111,-14.297703517204468,49.75967040512705
1684782946426200,18.35660334172576,-9.933623254749364,63.340199893186764
1684782946442188,3.921568627450938,-4.806591897459384,55.46654459449155
1684782946458175,-9.44533455405508,1.6937514305333252,35.9349965667202
1684782946474163,-18.387121385519208,9.99465934233615,23.30052643625538
1684782946490150,-17.685206378271232,6.179903868162,17.34950789654374
1684782946506137,-5.752651255054502,-4.531929503318793,28.97688258182643
1684782946522125,-2.8229190508887996,-6.393530174715806,40.60425726710923
1684782946538112,12.375066758220783,-7.949950408178779,56.01586938277251
1684782946554100,3.555352101930225,-24.185549706263828,62.302586404211524
1684782946570087,3.250171663996298,-30.807965209430108,61.478599221789864
1684782946586074,5.264362554360218,-49.05775539787908,60.34943160143439
1684782946602062,-13.748378728923399,-31.937132829785583,61.17341878385605
1684782946618049,-22.81223773556121,-20.55390249485015,51.31609063859014
1684782946634037,-29.526207370107613,-20.462348363469914,35.35515373464568
1684782946650024,-23.025864042114904,-29.83138780804154,12.13092240787364
1684782946666011,-27.176317998016316,-37.00312809948878,2.3651483939879654
1684782946681999,-10.147249561303056,-30.716411078049873,-24.826428625925132
1684782946697986,-0.5951018539711868,-0.3204394598305953,-25.10109102006561
1684782946713989,-5.081254291599862,0.3509575036240449,-7.339589532310924
1684782946729976,-15.304798962386485,-16.983291371023142,15.823605706874105
1684782946745964,-14.114595254444112,-27.084763866636195,29.007400625619766
1684782946761951,-12.039368276493406,-38.681620508125434,43.62554360265517
1684782946777938,-10.391393911650198,-44.23590447852291,55.28343633173108
1684782946793926,-7.370107576104374,-33.98184176394295,57.7248798352025
1684782946809913,-10.055695429922935,-23.48363469901585,46.55527580682087
1684782946825901,-8.377203021286277,-4.776073853665935,23.392080567635503
1684782946841888,-17.349507896543855,11.734187838559478,-2.853437094682249
1684782946857875,-21.22529945830479,20.157167925535873,-14.69443808651863
1684782946873863,-26.657511253528696,13.99252307927054,-8.316166933699492
1684782946889850,-18.448157473105994,9.811551079575793,18.35660334172576
1684782946905838,-18.722819867246585,3.768978408484031,40.05493247882828
1684782946921825,-5.630579079880931,15.548943312733627,46.86045624475469
1684782946937812,-2.426184481574751,21.13374532692444,44.66315709163041
1684782946953800,-8.346684977492941,23.086900129701576,35.41618982223258
1684782946969787,-0.8392462043183286,24.64332036316455,15.732051575493983
1684782946985775,-18.50919356069278,7.431143663691159,-11.795223926146264
1684782947001762,6.546120393682713,20.06561379415575,-21.805142290379194
1684782947017749,1.8158236057068962,11.001754787518053,-19.607843137254918
1684782947033722,15.945677882047676,19.882505531395395,-14.511329823758274
1684782947049709,26.443884946974777,17.166399633783385,0.6256198977645226
1684782947065696,18.02090485999838,7.614251926451516,9.750514991989007
1684782947081684,22.35446707866015,14.389257648584703,10.025177386129485
1684782947097671,5.142290379186647,10.574502174410554,9.719996948195558
1684782947113659,1.3275349050126124,13.87045090409697,6.332494087129021
1684782947129646,-6.088349736781879,6.851300831616641,-2.6092927443351073
1684782947145633,-1.8158236057068962,0.015259021896667946,-5.752651255054502
1684782947161621,6.393530174715806,-1.3275349050126124,-0.7782101167315432
1684782947177608,20.981155107957534,6.363012130922357,7.583733882658066
1684782947193596,12.832837415121617,-0.7476920729380936,11.673151750972693
1684782947209583,20.126649881742537,4.1962310215915295,11.184863050278409
1684782947225570,14.511329823758274,-0.2594033722438098,14.724956130311966
1684782947241558,20.035095750362302,-6.790264744029855,19.089036392767184
1684782947257545,17.166399633783385,-19.18059052414742,16.6781109330891
1684782947273532,27.908751049057628,-24.46021210040442,13.290608072022565
1684782947289520,25.864042114900258,-34.71427481498438,10.452429999236983
1684782947305507,27.298390173189773,-34.65323872739759,-0.93080033569845
1684782947321495,29.861905851834763,-11.30693522545198,-17.502098115510876
1684782947337482,25.680933852140015,0.9613183794918996,-27.725642786297385
1684782947353485,13.778896772716848,0.3509575036240449,-23.727779049362994
1684782947369472,12.191958495460426,8.499275196459848,-18.966964217593727
1684782947385460,2.426184481574751,-2.334630350194516,-3.5248340581368893
1684782947401447,2.7924010070954637,-4.409857328145222,8.865491721980561
1684782947417434,8.133058670939135,1.3275349050126124,9.99465934233615
1684782947433422,17.502098115510762,-6.820782787823305,16.98329137102303
1684782947449409,28.79377431906596,2.6092927443351073,16.800183108262672
1684782947465397,9.658960860608772,-8.255130846112706,20.309758144502894
1684782947481384,5.783169298847952,5.172808422980097,9.29274433508806
1684782947497371,-5.569542992294146,7.675288014038301,-2.2735942626077303
1684782947513359,-2.30411230640118,18.204013122758738,-9.872587167162578
1684782947529346,-2.639810788128443,17.89883268482481,-10.818646524757696
1684782947545333,-2.761882963302014,10.360875867856862,-10.574502174410554
1684782947561321,2.4872205691615363,13.138017853055544,-14.145113298237561
1684782947577308,13.839932860303634,14.755474174105416,-10.63553826199734
1684782947593296,7.3090714885175885,6.0578316929884295,-10.299839780270077
1684782947609283,13.107499809262208,-5.081254291599862,-2.8229190508887996
1684782947625270,24.82642862592502,2.7008468757152286,1.846341649500232
1684782947641258,19.39421683070111,24.612802319371212,-24.612802319371326
1684782947657245,25.223163195239067,64.59143968871604,-47.56237125200278
1684782947673217,40.5737392233159,70.51194018463411,-39.658197909514
1684782947689205,42.374303807126125,58.88456549935154,-50.705729762722285
1684782947705192,23.392080567635503,41.367208361943995,-61.9974059662776
1684782947721180,31.418326085298077,43.533989471274936,-81.07118333714811
1684782947737167,28.27496757457834,41.031509880216845,-104.96681162737468
1684782947753154,36.63691157396829,55.527580682078224,-124.22369726100555
1684782947769142,33.64614328221569,68.71137560082389,-140.6729228656444
1684782947785129,27.2373540856031,54.489967193102984,-115.12932021057452
1684782947801117,7.217517357137353,33.61562523842235,-82.99382009613191
1684782947817104,-10.147249561303056,30.472266727702618,-39.597161821927216
1684782947833091,-25.833524071107036,8.74341954680699,2.5787747005416577
1684782947849079,-28.33600366216524,3.250171663996298,25.680933852140015
1684782947865066,-38.40695811398484,-1.5106431677729688,48.783093003738486
1684782947881054,-49.85122453650729,-11.093308918898288,54.032196536202036
1684782947897041,-59.52544441901273,4.409857328145222,60.04425116350035
1684782947913028,-52.29266803997871,31.204699778744043,80.4913405050736
1684782947929016,-75.39482719157695,-1.846341649500232,87.54100862134737
1684782947945003,-99.77874418249792,-24.33813992523085,95.93347066453043
1684782947960991,-95.44518196383615,-28.793774319066188,125.96322575722888
1684782947976978,-98.31387808041507,-103.68505378805219,169.32936598764036
1684782947992981,-98.74113069352256,-163.89715419241622,217.60891126878755
1684782948008968,-97.97817959868769,-167.43724727244978,239.3377584496834
1684782948024955,-91.29472800793474,-136.4614328221561,200.54932478828096
1684782948040943,-56.99244678416119,-48.2948043030442,100.93842984664684
1684782948056930,-41.367208361943995,-16.64759288929588,35.721370260166395
1684782948072918,-54.24582284275584,-64.74402990768294,10.330357824063412
1684782948088905,-59.708552681773085,-86.8390936140994,9.99465934233615
1684782948104892,-51.377126726176925,-68.68085755703055,51.46868085755705
1684782948120880,-54.27634088654918,-56.626230258640476,54.734111543450126
1684782948136867,-23.544670786602637,-22.53757534142062,75.51689936675052
1684782948152855,-2.731364919508678,-1.7853055619134466,62.302586404211524
1684782948168842,13.473716334782921,36.88105592431543,37.7965972381171
1684782948184829,-9.933623254749364,37.27779049362948,14.419775692378039
1684782948200817,-18.600747692073014,0.7171740291447577,1.266498817425827
1684782948216804,-5.325398641947004,21.896696421759316,1.968413824673803
1684782948232792,-6.698710612649734,1.846341649500232,-3.372243839169869
1684782948248779,-18.051422903791945,-42.3743038071259,-22.018768596933
1684782948264766,-23.514152742809188,-11.184863050278409,-40.45166704814221
1684782948280754,-33.92080567635617,0.6256198977645226,-36.758983749141635
1684782948296741,-49.82070649271384,-8.590829327840083,-24.33813992523085
1684782948312713,-62.851911192492594,-21.98825055313955,-32.76112001220724
1684782948328701,-71.51903562981613,-21.652552071412288,-38.254367895017936
1684782948344688,-47.318226901655635,2.426184481574751,-22.354467078660264
1684782948360675,-36.02655069810021,-2.761882963302014,11.032272831311502
1684782948376663,-53.48287174792097,-26.901655603875838,29.43465323872738
1684782948392650,-72.52613107499803,-31.876096742198797,84.76386663614858
1684782948408638,-152.39185168230722,-18.814373998626706,87.32738231479357
1684782948424625,-176.4400701915008,-18.600747692073014,49.301899748226106
1684782948440612,-195.30022125581752,6.515602349889377,8.651865415426869
1684782948456600,-238.3916990920883,-7.370107576104374,-3.921568627450938
1684782948472587,-242.175936522469,-38.101777676050915,29.8924238956281
1684782948488575,-213.18379491874578,-47.04356450751516,80.18616006713955
1684782948504562,-143.14488441290916,12.558175020981139,58.48783093003749
1684782948520549,-120.01220721751736,49.91226062409396,-1.4801251239795192
1684782948536537,-96.81849393453876,50.76676585030896,-57.54177157244226
1684782948552524,-93.67513542381937,32.0897230487526,-98.13076981765471
1684782948568512,-128.92347600518804,43.930724040588984,-136.15625238422217
1684782948584499,-152.97169451438162,18.081940947585167,-171.0994125276569
1684782948600486,14.175631342030897,-4.013122758831173,-165.57564660105288
1684782948616474,-56.504158083466905,-27.90875104905774,-62.424658579385095
1684782948632476,-119.85961699855045,-106.82841229877158,-55.03929198138405
1684782948648464,-118.15060654612046,-88.57862211032273,-38.62058442053865
1684782948664451,-42.22171358815899,-10.63553826199734,-22.41550316624705
1684782948680439,12.80231937132828,-20.64545662623027,-8.468757152666512
1684782948696426,38.01022354467091,-39.993896391241265,5.264362554360218
1684782948712413,20.92011902037075,-64.10315098802164,28.91584649423953
1684782948728401,12.161440451666977,-42.89311055161363,33.52407110704212
1684782948744388,-4.898146028839506,-51.071946288243,35.32463569085235
1684782948760376,-37.09468223086901,-60.59357595178153,-16.983291371023142
1684782948776363,-41.39772640573733,-53.665980010681324,-28.854810406652973
1684782948792350,-33.127336537727956,-12.954909590295188,-25.558861676966558
1684782948808338,-20.920119020370862,5.172808422980097,-20.279240100709558
1684782948824325,-22.598611429007406,8.22461280231937,-6.9733730067902115
1684782948840313,-20.492866407263364,6.668192568856284,6.698710612649734
1684782948856300,-15.396353093766606,-6.546120393682713,10.727092393377575
1684782948872287,-5.172808422980097,-20.79804684519729,8.07202258335235
1684782948888275,7.797360189211872,-13.565270466163042,2.3956664377813013
1684782948904262,-1.6021972991530902,5.752651255054502,-3.372243839169869
1684782948920250,-18.53971160448623,26.504921034561676,-7.064927138170447
1684782948936237,-20.370794232089793,30.563820859082853,-10.269321736476627
1684782948952209,-35.35515373464557,18.44815747310588,-16.983291371023142
1684782948968196,-35.965514610513424,14.297703517204468,-16.64759288929588
1684782948984184,-31.509880216678084,18.173495078965402,-15.671015487907312
1684782949000171,-15.823605706874218,21.896696421759316,-13.809414816510184
1684782949016159,-11.093308918898288,8.89600976577401,-14.297703517204468
1684782949032146,-19.05851834897385,9.9641412985427,-14.724956130311966
1684782949048133,-58.33524071107047,3.341725795376533,-27.2373540856031
1684782949064121,-76.09674219882504,22.079804684519672,-37.85763332570377
1684782949080108,-47.68444342717635,30.472266727702618,-31.784542610818676
1684782949096096,-43.74761577782863,10.910200656137931,-29.43465323872738
1684782949112083,-36.881055924315206,16.250858319981603,-23.697261005569544
1684782949128070,-39.871824216067694,15.335317006179821,-21.89669642175943
1684782949144058,-58.88456549935154,6.72922865644307,-26.230258640421198
1684782949160045,-64.0726329442283,16.800183108262672,-20.584420538643485
1684782949176033,-39.444571602960195,18.783855954833257,-8.865491721980561
1684782949192020,-11.032272831311502,23.666742961776094,0.19836728465702436
1684782949208007,-2.212558175020945,10.63553826199734,-7.736324101625087
1684782949223995,-4.745555809872599,-2.731364919508678,-2.182040131227609
1684782949239982,-40.32959487296864,-24.093995574883706,-9.903105210955914
1684782949255970,-37.033646143282226,6.393530174715806,-13.3211261158159
1684782949271972,-31.47936217288475,32.73060196841402,-8.285648889906156
1684782949287960,-23.544670786602637,40.11596856641495,16.31189440756839
1684782949303947,-19.394216830701225,26.474402990768112,28.885328450446195
1684782949319934,-21.683070115205624,15.060654612039343,22.35446707866015
1684782949335922,-16.922255283436357,33.157854581521406,4.501411459525457
1684782949351909,-12.771801327534831,47.59288929579611,4.409857328145222
1684782949367897,-4.806591897459384,54.64255741206989,4.348821240558436
1684782949383884,-3.9826047150377235,39.04783703364615,11.520561532005786
