Timestamp (microseconds),Accel X (g),Accel Y (g),Accel Z (g)
1682104740903991,0.49713893339436943,0.7006332494087131,0.6753643091477839
1682104740919989,0.5735561150530248,0.7377431906614786,0.5805142290379184
1682104740935986,0.41730373083085404,0.7625238422217135,0.25983062485694663
1682104740951984,0.49921416037232014,0.6649881742580304,0.46186007476920743
1682104740967981,0.5088578622110322,0.7273670557717251,0.5526817730983442
1682104740983978,0.4612497138933396,0.7700923170824749,0.6085908293278397
1682104740999976,0.47516594186312666,0.8004882887006941,0.6270237277790498
1682104741015973,0.5269245441367207,0.7528801403830014,0.7398184176394293
1682104741031971,0.542793926909285,0.7700923170824749,0.6839093614099339
1682104741047968,0.5821011673151748,0.7956054016937513,0.5293659876401922
1682104741063965,0.6319066147859926,0.817578393224994,0.6035858701457233
1682104741079963,0.6469214923323419,0.8458991378652625,0.6728007934691389
1682104741095960,0.6323949034866869,0.8490730144197753,0.7111314564736402
1682104741111958,0.6292210269321741,0.8051270313572898,0.6889143205920503
1682104741127955,0.6149385824368654,0.7472648203250172,0.7337148088807508
1682104741143952,0.6011444266422519,0.6604715037766082,0.8106202792401005
1682104741159950,0.5761196307316698,0.6101777676050961,0.8385748073548482
1682104741175947,0.5526817730983442,0.5786831464103148,0.856275272755016
1682104741191945,0.5482871747920957,0.4740672922865645,0.8092774853131912
1682104741207942,0.563546196688792,0.47357900358587024,0.7790035858701456
1682104741223938,0.5724574654764627,0.4334172579537654,0.7007553215838866
1682104741239935,0.6011444266422519,0.47565423056382095,0.6308079652094305
1682104741255932,0.5383993286030364,0.5185015640497443,0.5468223086900128
1682104741271930,0.38202487220569203,0.5951628900587469,0.5196002136263065
1682104741287927,0.29034866865033937,0.5951628900587469,0.75727473868925
1682104741303925,0.28204776073853655,0.53510337987335,0.7600823987182421
1682104741319922,0.2985275043869686,0.3566338597695884,0.8759288929579618
1682104741335919,0.21356527046616325,0.2965743495841915,0.7335927367055772
1682104741351917,0.2545815213244831,0.2754558632791637,0.642038605325399
1682104741367914,0.2943770504310672,0.34711223010604986,0.5842984664682991
1682104741383912,0.2931563286793315,0.35590142671854696,0.5564660105287249
1682104741399909,0.273380636301213,0.2952315556572822,0.6626688029297325
1682104741415907,0.2897383077744715,0.3279468986037992,0.6417944609750519
1682104741431904,0.2826581216144044,0.3057297627222093,0.6726787212939653
1682104741447901,0.37775234607461705,0.36224917982757265,0.6698710612649732
1682104741463899,0.37897306782635276,0.46222629129472814,0.6682841229877168
1682104741479896,0.40424200808728195,0.5275349050125886,0.5514610513466085
1682104741495894,0.34076447699702417,0.44831006332494105,0.44501411459525464
1682104741511891,0.3355153734645606,0.38287937743190703,0.6015106431677726
1682104741527888,0.32916762035553493,0.41254291599908477,0.851148241397726
1682104741543853,0.47431143663691167,0.6043183031967647,0.9052262149996189
1682104741559851,0.40631723506523265,0.7327382314793622,0.7664301518272678
1682104741575848,0.5221637293049515,0.5409628442816814,0.7517814908064393
1682104741591846,0.6310521095597776,0.5653772793163956,0.6937972075989931
1682104741607843,1.1494926375219352,1.007888914320592,-0.05401693751430514
1682104741623840,0.4160830090791183,1.8018463416495,-0.350041962310216
1682104741639838,0.23541618982223245,1.3628747997253372,0.7045395590142673
1682104741655835,0.4175478751812012,1.172320134279393,0.9563744563973451
1682104741671833,0.4375677119096668,0.6211642633707175,0.5824673838406955
1682104741687830,0.3716487373159376,0.4527046616311896,0.48651865415426876
1682104741703827,0.18585488670176264,0.20685130083161685,0.7422598611429008
1682104741719825,0.3031662470435643,0.5487754634927899,1.0867475394827188
1682104741735822,0.18402380407415908,0.42938887617303756,1.1272755016403453
1682104741751820,0.09405661097123641,0.3053635461966886,0.9823758297093157
1682104741767817,0.23260852979324032,0.20306706340123615,0.9564965285725187
1682104741783815,0.24493781948577098,0.494697489890898,0.7368886854352636
1682104741799812,0.4191348134584576,0.53339436942092,0.47736324101625094
1682104741815809,0.40302128633554624,0.7189440756847487,0.7323720149538415
1682104741831807,0.40802624551766264,0.928786144808118,0.5403524834058135
1682104741847804,0.41095597772182835,0.6367895017929355,0.5249713893339436
1682104741863617,0.3616388189517048,0.6001678492408633,0.8207522697795069
1682104741879613,0.19806210421911974,0.6902571145189595,1.109452964065003
1682104741895609,0.33832303349355275,0.41388570992599405,0.9374532692454416
1682104741911606,0.39252307927061914,0.5054398413061723,0.825268940260929
1682104741927602,0.4005798428320748,0.6345922026398112,0.8644541084916453
1682104741943599,0.39923704890516554,0.6549782558937975,0.8576180666819253
1682104741959595,0.41852445258258975,0.6236057068741889,0.9490501258869308
1682104741975592,0.44782177462424677,0.6701152056153203,0.5929655909056226
1682104741991588,0.3766536964980549,0.6349584191653319,0.869092851148241
1682104742007585,0.3506523231860834,0.6106660563057904,0.7694819562066071
1682104742023581,0.32990005340657635,0.5344930189974821,0.7227283131151294
1682104742039578,0.21100175478751826,0.5412069886320285,0.7240711070420387
1682104742055574,0.10052643625543567,0.5617151140611885,0.9320820935378045
1682104742071570,0.06182955672541368,0.6226291294728004,1.0186312657358663
1682104742087567,0.09100480659189714,0.6106660563057904,0.8712901503013653
1682104742103563,0.02154573891813527,0.5117875944151979,0.6879377431906617
1682104742119560,-0.06598001068131554,0.40766002899214193,0.8180666819256883
1682104742135556,-0.09686427100022899,0.3344167238879985,0.8371099412527654
1682104742151553,0.01886015106431671,0.5520714122224764,0.5847867551689934
1682104742167549,0.16522468909742916,0.6009002822919047,0.6164034485389482
1682104742183410,0.09893949797817925,0.5966277561608297,0.7140611886778059
1682104742199406,-0.030823224231326662,0.45380331120775175,0.7432364385442893
1682104742215402,-0.08905165178912045,0.49066910811017017,0.7356679636835279
1682104742231398,-0.05938811322194226,0.7433585107194629,0.7642328526741435
1682104742247394,-0.05365072098878443,0.7277332722972458,0.7267566948958573
1682104742263390,-0.15130846112764162,0.6510719462882433,0.7577630273899443
1682104742279386,-0.1464255741206988,0.6207980468451968,0.706614785992218
1682104742295382,-0.2057526512550547,0.6762188143739989,0.6029755092698554
1682104742311378,-0.167421988250553,0.7936522468909741,0.49665064469367515
1682104742327374,-0.15326161593041876,0.878736552986954,0.3926451514457927
1682104742343370,-0.18536659800106792,1.0143587396047913,0.3834897383077749
1682104742359366,-0.21722743572137038,1.0908979934386203,0.42352941176470615
1682104742375362,-0.32037842374303827,1.0240024414435034,0.5934538796063169
1682104742391358,-0.3659113450827802,0.9099870298313881,0.6380102235446712
1682104742407354,-0.32709239337758467,0.867383840695811,0.6635233081559475
1682104742423350,-0.19794003204394617,0.7229724574654766,0.9806668192568857
1682104742439346,-0.08929579613946759,0.6923323414969103,0.7766842145418478
1682104742455342,-0.29120317387655437,0.8140383001449605,0.13702601663233427
1682104742471338,-0.2805828946364537,0.3804379339284356,0.3766536964980549
1682104742487334,-0.2594644083314259,0.3876401922636763,0.6983138780804152
1682104742503173,-0.1712062256809337,0.5467002365148392,0.5833218890669105
1682104742519169,-0.07391470206759765,0.7097886625467309,0.4455024032959489
1682104742535164,-0.024475471122300974,0.7359121080338751,0.34967574578469485
1682104742551160,-0.10626382848859395,0.75385671778439,0.4657663843747617
1682104742567155,-0.07794308384832549,0.7320057984283208,0.5879606317235062
1682104742583151,-0.0715953307392998,0.789990081635767,0.6244602121004039
1682104742599146,-0.09356832227054257,0.826123445487144,0.6801251239795532
1682104742615142,-0.04974441138323016,0.8314946211947811,0.7034409094377052
1682104742631137,-0.08453498130769832,0.8386968795300218,0.803662165255207
1682104742647133,-0.11834897383077747,0.717723353933013,0.9015640497444117
1682104742663128,-0.09832913710231184,0.6989242389562831,0.852002746623941
1682104742679124,-0.0820935378042269,0.7852292668039977,0.8056153200579841
1682104742695119,-0.041565575646600905,0.8522468909742882,0.8112306401159683
1682104742711115,-0.09002822919050901,0.8628671702143889,0.7437247272449836
1682104742727110,-0.10418860151064324,0.7937743190661477,0.7080796520943009
1682104742743106,-0.12262149996185245,0.7551995117112993,0.7462882429236286
1682104742759101,-0.12970168612191957,0.7285877775234608,0.742748149843595
1682104742775097,-0.12860303654535743,0.7246814679179066,0.76411078049897
1682104742791092,-0.15301747158007162,0.7364003967345694,0.7591058213168536
1682104742807088,-0.15631342030975803,0.7105210955977723,0.8322270542458226
1682104742822937,-0.13238727397573813,0.7356679636835279,0.756420233463035
1682104742838932,-0.12603952086671244,0.7509269855802243,0.7298084992751965
1682104742854927,-0.15448233768215447,0.8073243305104141,0.8268558785381854
1682104742870922,-0.17438010223544653,0.7846189059281299,0.9256122682536052
1682104742886917,-0.16998550392919798,0.7570305943389029,0.9254901960784316
1682104742902912,-0.18426794842450578,0.7204089417868316,0.7449454489967193
1682104742918907,-0.08355840390630975,0.7984130617227434,0.6507057297627226
1682104742934902,-0.0955214770733197,0.817578393224994,0.7710688944838635
1682104742950897,-0.07183947508964694,0.8043945983062484,0.6641336690318154
1682104742966892,-0.1266498817425803,0.784863050278477,0.8292973220416568
1682104742982887,-0.18951705195696977,0.7825436789501792,0.821850919356069
1682104742998882,-0.17755397878995938,0.7493400473029679,0.8109864957656212
1682104743014877,-0.11090257114518964,0.648020141908904,0.6677958342870225
1682104743030872,-0.08087281605249119,0.6277561608300912,0.649729152361334
1682104743046867,-0.07684443427176335,0.6400854505226219,0.5989471274891276
1682104743062862,-0.10003814755474183,0.6458228427557797,0.6568093385214011
1682104743078857,-0.12506294346532387,0.648874647135119,0.749584191653315
1682104743094852,-0.1392233157854581,0.6164034485389482,0.7752193484397649
1682104743110847,-0.09527733272297256,0.815014877546349,-0.03802548256656735
1682104743126842,-0.12091248950942246,0.6345922026398112,0.5513389791714349
1682104743142669,-0.11639581902800034,0.6631570916304268,0.5895475700007626
1682104743158663,-0.10089265278095683,0.6648661020828568,0.6603494316014347
1682104743174657,-0.10138094148165111,0.6632791638056004,0.6244602121004039
1682104743190652,-0.09076066224155044,0.6922102693217367,0.6095674067292283
1682104743206646,-0.09662012664988184,0.7255359731441215,0.6205539024948497
1682104743222640,-0.0800183108262762,0.6752422369726103,0.7094224460212102
1682104743238634,-0.08722056916151688,0.6958724345769438,0.7543450064850843
1682104743254628,-0.08038452735179691,0.7034409094377052,0.7526359960326543
1682104743270622,-0.0365606164644845,0.6967269398031588,0.7327382314793622
1682104743286616,-0.023620965896085977,0.731395437552453,0.7366445410849165
1682104743302610,-0.01495384145876244,0.7404287785152972,0.729686427100023
1682104743318604,-0.002990768291752488,0.7265125505455101,0.7523918516823072
1682104743334598,-0.02398718242160669,0.6984359502555888,0.7355458915083544
1682104743350592,0.0012817578393224949,0.6740215152208746,0.7475089646753643
1682104743366586,0.00848401617456318,0.6746318760967425,0.7434805828946365
1682104743382580,0.007873655298695326,0.6536354619668883,0.7445792324711986
1682104743398574,-0.008850232700083893,0.6554665445944918,0.7405508506904708
1682104743414569,-0.00970473792629889,0.6630350194552532,0.7300526436255437
1682104743430563,-0.018005645838101714,0.6753643091477839,0.7130846112764173
1682104743446557,-0.034973678187228074,0.6554665445944918,0.710887312123293
1682104743462432,-0.041687647821774476,0.6499732967116811,0.7056382085908295
1682104743478426,-0.04827954528114731,0.6450904097047383,0.7063706416418709
1682104743494420,-0.04986648355840373,0.6453345540550854,0.7080796520943009
1682104743510413,-0.049134050507362304,0.6455786984054326,0.7013656824597545
1682104743526407,-0.04107728694590662,0.6415503166247047,0.691844052796216
1682104743542400,-0.032410162508583085,0.6469214923323419,0.6793926909285117
1682104743558394,-0.03302052338445094,0.6580300602731368,0.6813458457312889
1682104743574388,-0.03143358510719452,0.6681620508125432,0.7122301060502023
1682104743590381,-0.033630884260318794,0.6896467536430917,0.7018539711604488
1682104743606375,-0.030823224231326662,0.6793926909285117,0.7079575799191273
1682104743622368,-0.031189440756847375,0.6847638666361489,0.7040512703135731
1682104743638362,-0.03302052338445094,0.7057602807660031,0.7114976729991609
1682104743654356,-0.03167772945754166,0.6986800946059359,0.7282215609979401
1682104743670349,-0.03533989471274879,0.682444495307851,0.7450675211718929
1682104743686343,-0.09503318837262542,0.7184557869840544,0.7898680094605934
1682104743702336,-0.03326466773479808,0.6706034943160146,0.7583733882658121
1682104743718330,-0.010803387502861028,0.6763408865491725,0.726268406195163
1682104743734324,-0.006286717021438903,0.685008010986496,0.6933089188982988
1682104743750317,-0.016784924086366004,0.6936751354238195,0.6940413519493402
1682104743766311,-0.025574120698863112,0.6760967421988253,0.6974593728542002
1682104743782257,-0.024475471122300974,0.6580300602731368,0.7165026321812773
1682104743798250,-0.029846646829938095,0.6515602349889376,0.7378652628366522
1682104743814244,-0.015564202334630295,0.6572976272220954,0.7428702220187686
1682104743830237,-0.027038986800945963,0.659983215075914,0.7449454489967193
1682104743846231,-0.025085831998168828,0.6635233081559475,0.7351796749828337
1682104743862225,1.831082627603564E-4,0.6825665674830246,0.7129625391012437
1682104743878218,-0.007629510948348184,0.676462958724346,0.7215075913633937
1682104743894212,-0.024719615472648115,0.6660868238345925,0.7411612115663386
1682104743910205,-0.023376821545738835,0.6795147631036853,0.7577630273899443
1682104743926199,-0.03411917296101308,0.7016098268101016,0.7860837720302127
1682104743942193,-0.025085831998168828,0.7022201876859695,0.7904783703364613
1682104743958186,-0.016662851911192433,0.689280537117571,0.7748531319142442
1682104743974180,-0.02923628595407024,0.7051499198901352,0.7489738307774472
1682104743990173,-0.045349813076981604,0.6997787441824981,0.7483634699015793
1682104744006167,-0.03436331731136022,0.6695048447394525,0.7321278706034944
1682104744022161,-0.02935835812924381,0.6664530403601132,0.7212634470130466
1682104744038154,-0.05011062790875087,0.6674296177615018,0.7468986037994965
1682104744054148,-0.048157473105973736,0.6636453803311211,0.7635004196231021
1682104744070141,-0.03399710078583951,0.678171969176776,0.7374990463111315
1682104744086135,-0.04107728694590662,0.7002670328831924,0.7101548790722516
1682104744101959,-0.051941710536354435,0.6800030518043796,0.7222400244144351
1682104744117951,-0.06292820630197626,0.6564431219958804,0.7291981383993287
1682104744133944,-0.062439917601281536,0.6477759975585569,0.7301747158007172
1682104744149937,-0.05792324711985941,0.6789044022278174,0.7113756008239873
1682104744165929,-0.05938811322194226,0.6948958571755552,0.7035629816128788
1682104744181922,-0.057312886243991557,0.6985580224307624,0.679026474402991
1682104744197915,-0.06878767071030767,0.6959945067521174,0.6956282902265967
1682104744213907,-0.08648813611047546,0.7058823529411766,0.7068589303425652
1682104744229900,-0.09869535362783255,0.7009994659342338,0.7171129930571452
1682104744245893,-0.09527733272297256,0.6980697337300681,0.7058823529411766
1682104744261885,-0.09564354924849328,0.7024643320363166,0.6912336919203481
1682104744277878,-0.09942778667887398,0.7002670328831924,0.676462958724346
1682104744293871,-0.09356832227054257,0.6974593728542002,0.6809796292057682
1682104744309863,-0.08770885786221116,0.7028305485618374,0.6908674753948274
1682104744325856,-0.08307011520561547,0.7178454261081866,0.7062485694666973
1682104744341848,-0.07806515602349906,0.7300526436255437,0.716014343480583
1682104744357841,-0.06988632028686981,0.7328603036545358,0.7204089417868316
1682104744373834,-0.06829938200961339,0.7317616540779737,0.7196765087357901
1682104744389826,-0.07061875333791123,0.7329823758297094,0.7084458686198216
1682104744405819,-0.07147325856412623,0.7321278706034944,0.7023422598611431
1682104744421722,-0.06964217593652267,0.725413900968948,0.6963607232776381
1682104744437715,-0.0724498359655148,0.7169909208819716,0.6930647745479517
1682104744453707,-0.07757686732280478,0.7106431677729459,0.6919661249713895
1682104744469700,-0.07769893949797835,0.7036850537880524,0.6872053101396203
1682104744485693,-0.07550164034485407,0.7013656824597545,0.6831769283588924
1682104744501685,-0.0829480430304419,0.6988021667811095,0.680735484855421
1682104744517678,-0.0875867856870376,0.6995345998321509,0.6796368352788589
1682104744533671,-0.08538948653391332,0.7055161364156559,0.6715800717174032
1682104744549663,-0.0963759822995347,0.7053940642404823,0.6785381857022967
1682104744565656,-0.09649805447470827,0.6995345998321509,0.6736552986953539
1682104744581648,-0.0896620126649883,0.6999008163576717,0.6723125047684446
1682104744597641,-0.09564354924849328,0.7101548790722516,0.6796368352788589
1682104744613634,-0.09796292057679112,0.721141374837873,0.6880598153658353
1682104744629626,-0.09076066224155044,0.7291981383993287,0.6826886396581981
1682104744645619,-0.08929579613946759,0.7387197680628672,0.6813458457312889
1682104744661612,-0.09491111619745185,0.7420157167925536,0.6851300831616696
1682104744677604,-0.10138094148165111,0.7420157167925536,0.6878156710154881
1682104744693597,-0.10333409628442825,0.7360341802090486,0.6848859388113224
1682104744709590,-0.1022354467078661,0.7316395819028001,0.6803692683299003
1682104744725582,-0.1001602197299154,0.7311512932021058,0.675608453498131
1682104744741485,-0.09967193102922112,0.7307850766765851,0.6734111543450068
1682104744757477,-0.10199130235751896,0.7252918287937744,0.6785381857022967
1682104744773470,-0.09869535362783255,0.7244373235675594,0.6758525978484782
1682104744789462,-0.09967193102922112,0.7235828183413444,0.6751201647974368
1682104744805454,-0.0993057145037004,0.7201647974364844,0.6693827725642789
1682104744821446,-0.09832913710231184,0.722850385290303,0.6597390707255668
1682104744837438,-0.10284580758373396,0.7155260547798887,0.6647440299076832
1682104744853430,-0.10333409628442825,0.7199206530861373,0.6768291752498667
1682104744869423,-0.09771877622644398,0.7216296635385673,0.6911116197451745
1682104744885415,-0.09698634317540256,0.7320057984283208,0.6970931563286795
1682104744901407,-0.09283588921950114,0.74360265506981,0.6934309910734724
1682104744917399,-0.08917372396429402,0.7400625619897765,0.6906233310444803
1682104744933391,-0.09320210574502186,0.7354238193331808,0.6912336919203481
1682104744949383,-0.0955214770733197,0.7307850766765851,0.6951400015259024
1682104744965376,-0.093446250095369,0.7240711070420387,0.6896467536430917
1682104744981368,-0.09539940489814613,0.7201647974364844,0.688426031891356
1682104744997360,-0.09686427100022899,0.7183337148088809,0.6828107118333717
1682104745013352,-0.09698634317540256,0.7119859616998552,0.6808575570305946
1682104745029344,-0.09906157015335326,0.7171129930571452,0.6856183718623639
1682104745045336,-0.09967193102922112,0.7136949721522852,0.6854962996871903
1682104745061279,-0.09820706492713827,0.713450827801938,0.6836652170595867
1682104745077271,-0.1047989623865111,0.7140611886778059,0.6779278248264289
1682104745093262,-0.1106584267948425,0.7145494773785002,0.6751201647974368
1682104745109254,-0.10992599374380108,0.713450827801938,0.6754863813229575
1682104745125246,-0.11053635461966893,0.7186999313344016,0.6784161135271232
1682104745141237,-0.1077286945906768,0.7218738078889144,0.684153505760281
1682104745157229,-0.10663004501411466,0.722850385290303,0.6865949492637524
1682104745173221,-0.1030899519340811,0.7217517357137408,0.686717021438926
1682104745189212,-0.10211337453269254,0.7321278706034944,0.6763408865491725
1682104745205204,-0.10760662241550323,0.7409170672159915,0.6688944838635846
1682104745221196,-0.10284580758373396,0.7295643549248494,0.6953841458762495
1682104745237187,-0.10492103456168467,0.7335927367055772,0.6945296406500345
1682104745253179,-0.1098039215686275,0.7807125963225756,0.6768291752498667
1682104745269171,-0.09759670405127041,0.8032959487296862,0.692698558022431
1682104745285163,-0.08624399176012831,0.8415045395590139,0.6903791866941331
1682104745301154,-0.07586785687037478,0.8758068207827883,0.682444495307851
1682104745317146,-0.09112687876707115,0.8924086366063939,0.6657206073090718
1682104745333138,-0.10113679713130397,0.8866712443732361,0.6585183489738311
1682104745349129,-0.10565346761272609,0.8808117799649047,0.659128709849699
1682104745365121,-0.12164492256046389,0.8546883344777596,0.6419165331502255
1682104745381012,-0.13153276874952313,0.863965819790951,0.6330052643625548
1682104745397003,-0.12249942778667888,0.8415045395590139,0.625558861676967
1682104745412995,-0.09613183794918756,0.8393072404058897,0.6077363241016247
1682104745428987,-0.10003814755474183,0.8113527122911419,0.6253147173266198
1682104745444978,-0.11676203555352105,0.7803463797970549,0.6033417257953761
1682104745460970,-0.0838025482566569,0.7163805600061037,0.5620813305867092
1682104745476962,-0.04351873044937804,0.7139391165026323,0.6079804684519718
1682104745492953,-0.059876401922636546,0.6870832379644467,0.6228732738231475
1682104745508945,-0.07025253681239052,0.6395971618219276,0.6576638437476161
1682104745524937,-0.05816739147020655,0.6848859388113224,0.5856412603952084
1682104745540928,-0.03668268863965807,0.7372549019607844,0.5459678034637978
1682104745556920,-0.03936827649347663,0.747875181200885,0.5260700389105057
1682104745572912,-0.05743495841916513,0.756420233463035,0.48493171587701234
1682104745588904,-0.06744487678339839,0.782299534599832,0.46894026092927454
1682104745604895,-0.07635614557106907,0.8140383001449605,0.46088349736781886
1682104745620887,-0.026306553749904538,0.7945067521171891,0.47394522011139095
1682104745636879,-0.08404669260700404,0.8582284275577932,0.492133974212253
1682104745652870,-0.05279621576256943,0.8760509651331354,0.507515068284123
1682104745668862,-0.07428091859311836,0.9119401846341653,0.4943312733653773
1682104745684854,-0.07098496986343195,0.8924086366063939,0.4984817273212787
1682104745700775,-0.08636606393530188,0.9052262149996189,0.49787136644541086
1682104745716766,-0.13910124361028453,0.881300068665599,0.5474326695658807
1682104745732757,-0.12225528343633174,0.8169680323491262,0.5265583276112
1682104745748748,-0.1144426642252232,0.7711909666590371,0.5442587930113678
1682104745764740,-0.10235751888303968,0.7768062867170213,0.5012893873502708
1682104745780731,-0.12298771648737317,0.7888914320592049,0.5043411917296101
1682104745796722,-0.13055619134813456,0.7708247501335164,0.5293659876401922
1682104745812713,-0.1485008010986495,0.7843747615777827,0.5028763256275273
1682104745828704,-0.1447165636682688,0.7987792782482641,0.4892042420080873
1682104745844696,-0.15338368810559233,0.8412603952086668,0.4404974441138325
1682104745860687,-0.16339360646982515,0.7943846799420156,0.42267490653849116
1682104745876678,-0.17938506141756294,0.8465094987411304,0.40082398718242196
1682104745892669,-0.16046387426565945,0.873365377279316,0.47943846799420164
1682104745908661,-0.13226520180056456,0.9110856794079503,0.467963683527886
1682104745924652,-0.11468680857557034,0.9147478446631574,0.48859388113221947
1682104745940643,-0.10650797283894109,0.9175555046921495,0.5036087586785687
1682104745956634,-0.10247959105821325,0.9389181353475244,0.5053177691309987
1682104745972625,-0.08331425955596261,0.8937514305333032,0.542793926909285
1682104745988617,-0.07086289768825837,0.892652780956741,0.5519493400473028
1682104746004608,-0.05499351491569371,0.8694590676737617,0.5882047760738534
1682104746020538,-0.04852368963149445,0.8395513847562368,0.5961394674601355
1682104746036529,-0.04058899824521234,0.8092774853131912,0.6121309224078733
1682104746052520,-0.033630884260318794,0.8008545052262148,0.6139620050354768
1682104746068512,-0.035217822537575216,0.7923094529640649,0.6294651712825212
1682104746084503,-0.039002059967955915,0.764965285725185,0.6601052872510875
1682104746100494,-0.018249790188448856,0.7582513160906386,0.6621805142290382
1682104746116485,0.004943923094529623,0.793408102540627,0.6323949034866869
1682104746132476,0.02020294499122599,0.8147707331960019,0.6072480354009304
1682104746148468,0.02154573891813527,0.8067139696345462,0.6212863355458911
1682104746164459,0.01373311970702673,0.7818112458991378,0.6162813763637747
1682104746180450,0.013855191882200302,0.7605706874189364,0.642038605325399
1682104746196441,0.011902037079423167,0.7437247272449836,0.6215304798962382
1682104746212432,0.008850232700083893,0.7165026321812773,0.6049286640726326
1682104746228424,0.00836194399938961,0.7127183947508966,0.5982146944380862
1682104746244415,0.005432211795223907,0.707469291218433,0.5927214465552755
1682104746260406,-0.0020141908903639205,0.7128404669260702,0.5821011673151748
1682104746276397,0.0025024795910582043,0.7056382085908295,0.5862516212710762
1682104746292389,0.007019150072480329,0.7140611886778059,0.5927214465552755
1682104746308380,0.008728160524910322,0.7056382085908295,0.6206759746700232
1682104746324371,0.011169604028381741,0.7018539711604488,0.6402075226977955
1682104746340301,0.016784924086366004,0.6972152285038531,0.6718242160677503
1682104746356292,0.022278171969176697,0.6748760204470896,0.7169909208819716
1682104746372283,0.02667277027542525,0.6621805142290382,0.6995345998321509
1682104746388273,0.022400244144350268,0.6825665674830246,0.7033188372625316
1682104746404264,0.01361104753185316,0.7051499198901352,0.6883039597161824
1682104746420255,0.007019150072480329,0.7011215381094074,0.6604715037766082
1682104746436246,-0.006286717021438903,0.7339589532310979,0.6280003051804384
1682104746452236,-0.010070954451819603,0.7536125734340429,0.6579079880979632
1682104746468227,-0.017639429312581,0.7744869153887235,0.6590066376745254
1682104746484218,-0.004333562218661768,0.7855954833295185,0.684153505760281
1682104746500208,0.014587624933241727,0.8026855878538184,0.6774395361257346
1682104746516199,0.03350881208514522,0.8125734340428776,0.6963607232776381
1682104746532190,0.045593957427328746,0.8126955062180512,0.6977035172045474
1682104746548181,0.0508430609597923,0.8163576714732583,0.7008773937590602
1682104746564171,0.058411535820553695,0.8051270313572898,0.7094224460212102
1682104746580162,0.07440299076829149,0.784008545052262,0.7152819104295416
1682104746596153,0.07904173342488718,0.7620355535210193,0.6839093614099339
1682104746612144,0.06158541237506654,0.729686427100023,0.6397192339971012
1682104746628134,0.04229800869764233,0.6989242389562831,0.6096894789044018
1682104746644125,0.03350881208514522,0.6740215152208746,0.6088349736781868
1682104746660034,0.027405203326466676,0.6687724116884111,0.6187228198672461
1682104746676025,0.024597543297474544,0.6614480811779968,0.6327611200122076
1682104746692015,0.02777141985198739,0.6638895246814682,0.6529030289158468
1682104746708006,0.035095750362401645,0.6753643091477839,0.6587624933241782
1682104746723997,0.05096513313496587,0.6879377431906617,0.6624246585793854
1682104746739987,0.05401693751430514,0.682444495307851,0.6990463111314567
1682104746755978,0.05877775234607441,0.6995345998321509,0.7227283131151294
1682104746771969,0.04864576180666802,0.7051499198901352,0.7577630273899443
1682104746787960,0.06744487678339794,0.7053940642404823,0.7761959258411535
1682104746803950,0.07684443427176291,0.7140611886778059,0.76923781185626
1682104746819941,0.07379262989242363,0.7036850537880524,0.7580071717402914
1682104746835932,0.0831921873807886,0.7008773937590602,0.756420233463035
1682104746851923,0.08172732127870574,0.6809796292057682,0.7573968108644236
1682104746867913,0.07721065079728362,0.6585183489738311,0.7366445410849165
1682104746883904,0.07989623865110218,0.6431372549019612,0.7423819333180743
1682104746899895,0.0844129091325243,0.6365453574425883,0.7583733882658121
1682104746915886,0.09149309529259142,0.6436255436026554,0.7631342030975814
1682104746931876,0.09478904402227784,0.6389868009460598,0.7609369039444571
1682104746947867,0.09564354924849283,0.6492408636606397,0.7493400473029679
1682104746963858,0.09478904402227784,0.6559548332951861,0.7376211184863051
1682104746979828,0.09076066224155,0.6658426794842454,0.724559395742733
1682104746995818,0.08014038300144932,0.6662088960097661,0.731395437552453
1682104747011808,0.06268406195162868,0.6754863813229575,0.7715571831845578
1682104747027798,0.05633630884260299,0.7001449607080188,0.7582513160906386
1682104747043789,0.0499885557335773,0.7166247043564509,0.7532463569085222
1682104747059779,0.042786297398336615,0.716014343480583,0.7528801403830014
1682104747075769,0.03424124513618665,0.7246814679179066,0.7536125734340429
1682104747091759,0.027038986800945963,0.7339589532310979,0.7411612115663386
1682104747107750,0.01239032578011745,0.7064927138170445,0.7522697795071336
1682104747123740,-1.831082627603564E-4,0.6989242389562831,0.758129243915465
1682104747139730,-0.0018921187151903496,0.7053940642404823,0.754711223010605
1682104747155720,0.004333562218661768,0.7061264972915238,0.7289539940489815
1682104747171711,-0.0015259021896696368,0.7035629816128788,0.7212634470130466
1682104747187701,-0.003112840466926059,0.6911116197451745,0.7276112001220723
1682104747203691,-0.012512397955291021,0.6940413519493402,0.7388418402380408
1682104747219681,-0.018005645838101714,0.6999008163576717,0.7490959029526207
1682104747235672,-0.01861600671396957,0.687571526665141,0.7234607461661708
1682104747251662,-0.015442130159456724,0.6731670099946596,0.6997787441824981
1682104747267652,-0.015075913633936011,0.6662088960097661,0.6979476615548945
1682104747283642,-0.016784924086366004,0.6596169985503932,0.6967269398031588
1682104747299591,-0.015197985809109582,0.6338597695887698,0.7302967879758908
1682104747315581,-0.013488975356679589,0.6358129243915469,0.7309071488517587
1682104747331571,-0.0037232013427939137,0.6496070801861604,0.7466544594491493
1682104747347561,-0.0012817578393224949,0.6570534828717483,0.7602044708934157
1682104747363552,0.0016479743648432077,0.6553444724193183,0.7379873350118258
1682104747379542,-0.004821850919356052,0.6561989776455333,0.728831921873808
1682104747395532,-0.015564202334630295,0.6568093385214011,0.7110093842984666
1682104747411522,-0.0042114900434881974,0.6323949034866869,0.6997787441824981
1682104747427513,-0.006286717021438903,0.6256809338521405,0.7121080338750287
1682104747443503,-0.020935378042267416,0.6375219348439769,0.7300526436255437
1682104747459493,-0.00323491264209963,0.6559548332951861,0.7324940871290151
1682104747475484,0.011413748378728883,0.6709697108415353,0.7437247272449836
1682104747491474,0.019104295414663852,0.6811017013809417,0.7680170901045242
1682104747507464,0.03179980163271523,0.6923323414969103,0.8065918974593727
1682104747523454,0.04864576180666802,0.6945296406500345,0.8416266117341875
1682104747539445,0.07684443427176291,0.7024643320363166,0.8495613031204696
1682104747555435,0.08953994048981428,0.7252918287937744,0.8274662394140533
1682104747571425,0.07830930037384576,0.7373769741359579,0.8253910124361026
1682104747587415,0.061097123674372256,0.7135728999771116,0.8657969024185546
1682104747603406,0.06500343327992653,0.7084458686198216,0.8274662394140533
1682104747619354,0.06585793850614152,0.687571526665141,0.8249027237354083
1682104747635344,0.05401693751430514,0.6575417715724425,0.8234378576333254
1682104747651333,0.03314259555962451,0.6261692225528348,0.8123292896925305
1682104747667323,0.03155565728236809,0.5943083848325319,0.7912108033875027
1682104747683313,0.03216601815823594,0.5842984664682991,0.7838864728770885
1682104747699303,0.02667277027542525,0.5718471046005948,0.76923781185626
1682104747715293,0.03033493553063238,0.5602502479591056,0.7627679865720607
1682104747731282,0.031067368581673804,0.5523155565728235,0.7526359960326543
1682104747747272,0.028625925078202386,0.5532921339742121,0.7571526665140764
1682104747763262,0.032532234683756656,0.5637903410391392,0.766674296177615
1682104747779252,0.04339665827420447,0.581490806439307,0.7748531319142442
1682104747795241,0.045471885252155175,0.5985809109636069,0.7716792553597314
1682104747811231,0.03851377126726163,0.6063935301747154,0.7670405127031357
1682104747827221,0.03680476081483164,0.6076142519264511,0.7742427710383764
1682104747843211,0.03350881208514522,0.6194552529182875,0.7890135042343784
1682104747859201,0.03826962691691449,0.6309300373846041,0.8048828870069427
1682104747875190,0.04779125658045302,0.6339818417639433,0.8075684748607612
1682104747891180,0.04522774090180803,0.6533913176165411,0.8107423514152741
1682104747907170,0.04339665827420447,0.6552224002441447,0.8114747844663155
1682104747923160,0.049500267032883016,0.6692607003891053,0.8075684748607612
1682104747939087,0.04827954528114731,0.6660868238345925,0.8072022583352405
1682104747955076,0.038879987792782345,0.6604715037766082,0.8131837949187455
1682104747971066,0.03985656519417091,0.6474097810330361,0.8130617227435719
1682104747987056,0.041565575646600905,0.6306858930342569,0.8087891966124969
1682104748003046,0.044251163500419466,0.6172579537651632,0.8118410009918362
1682104748019035,0.045349813076981604,0.5872281986724648,0.8015869382772562
1682104748035025,0.046692607003890885,0.5692835889219499,0.7897459372854199
1682104748051015,0.05352864881361086,0.5535362783245592,0.7875486381322956
1682104748067005,0.054627298390172996,0.5321736476691843,0.7825436789501792
1682104748082995,0.04986648355840373,0.5289997711146714,0.7791256580453192
1682104748098984,0.04254215304798947,0.5249713893339436,0.783154039826047
1682104748114974,0.049134050507362304,0.5338826581216143,0.7830319676508735
1682104748130964,0.05133134966048658,0.53168535896849,0.7943846799420156
1682104748146954,0.041687647821774476,0.5430380712596321,0.7979247730220491
1682104748162943,0.05523765926604085,0.54535744258793,0.8014648661020827
1682104748178933,0.04644846265354374,0.5514610513466085,0.8064698252841991
1682104748194923,0.0567025253681237,0.5639124132143127,0.8125734340428776
1682104748210913,0.06207370107576082,0.5719691767757684,0.8223392080567633
1682104748226903,0.06036469062333083,0.5796597238117034,0.8325932707713433
1682104748242892,0.061097123674372256,0.578072785534447,0.8306401159685661
1682104748258850,0.06732280460822437,0.5927214465552755,0.832104982070649
1682104748274840,0.06488136110475295,0.5868619821469441,0.8364995803768975
1682104748290829,0.050598916609445155,0.5855191882200348,0.8400396734569311
1682104748306819,0.04388494697489875,0.5880827038986798,0.8391851682307161
1682104748322809,0.03558403906309593,0.5846646829938198,0.829541466392004
1682104748338799,0.0319218738078888,0.5799038681620505,0.8194094758525976
1682104748354788,0.02410925459678026,0.5676966506446934,0.8135500114442662
1682104748370778,0.014709697108415298,0.5596398870832378,0.8013427939269091
1682104748386768,0.0021362630655374915,0.5486533913176164,0.7818112458991378
1682104748402758,-0.011535820553902454,0.5407186999313343,0.7658197909514
1682104748418748,-0.02667277027542525,0.5479209582665749,0.7595941100175478
1682104748434737,-0.039002059967955915,0.5530479896238649,0.7716792553597314
1682104748450727,-0.029968719005111666,0.5714808880750741,0.7940184634164948
1682104748466717,-0.033630884260318794,0.5922331578545812,0.8106202792401005
1682104748482707,-0.035095750362401645,0.6083466849774926,0.8059815365835048
1682104748498696,-0.042664225223163044,0.617624170290684,0.8001220721751734
1682104748514686,-0.050720988784618726,0.6242160677500568,0.8081788357366291
1682104748530676,-0.05108720531013944,0.6183566033417254,0.8075684748607612
1682104748546666,-0.046570534828717314,0.6089570458533604,0.7982909895475698
1682104748562656,-0.04864576180666802,0.602243076218814,0.789135576409552
1682104748578613,-0.05633630884260299,0.6007782101167312,0.7858396276798656
1682104748594602,-0.06976424811169624,0.5969939726863505,0.7844968337529563
1682104748610592,-0.06683451590753053,0.6046845197222854,0.7885252155336842
1682104748626581,-0.0604867627985044,0.6043183031967647,0.8026855878538184
1682104748642570,-0.050476844434271584,0.6050507362478061,0.8172121766994733
1682104748658559,-0.050476844434271584,0.5847867551689934,0.8195315480277712
1682104748674549,-0.055725947966735134,0.5930876630807962,0.8257572289616233
1682104748690538,-0.07684443427176335,0.5834439612420841,0.8306401159685661
1682104748706527,-0.09124895094224472,0.5777065690089263,0.8501716639963375
1682104748722517,-0.10235751888303968,0.5802700846875712,0.8483405813687339
1682104748738506,-0.07391470206759765,0.5773403524834055,0.8488288700694282
1682104748754495,-0.10125886930647754,0.5987029831387805,0.8394293125810632
1682104748770485,-0.11871519035629818,0.6016327153429462,0.8377203021286332
1682104748786474,-0.10565346761272609,0.603097581445029,0.8479743648432132
1682104748802463,-0.09478904402227828,0.5966277561608297,0.8616464484626531
1682104748818452,-0.08563363088426046,0.5913786526283662,0.8767833981841768
1682104748834442,-0.08160524910353262,0.5758754863813227,0.871656366826886
1682104748850431,-0.0896620126649883,0.5734340428778513,0.8703135728999767
1682104748866420,-0.10492103456168467,0.573800259403372,0.8721446555275802
1682104748882410,-0.12396429388876173,0.574654764629587,0.8684824902723731
1682104748898376,-0.1354390783550774,0.5847867551689934,0.8567635614557103
1682104748914365,-0.15545891508354304,0.6121309224078733,0.8230716411078047
1682104748930355,-0.12396429388876173,0.5728236820019834,0.8163576714732583
1682104748946344,-0.1517967498283359,0.5834439612420841,0.7956054016937513
1682104748962333,-0.15509269855802232,0.5719691767757684,0.7888914320592049
1682104748978323,-0.1337300679026474,0.5571984435797663,0.7996337834744791
1682104748994312,-0.11859311818112461,0.5559777218280306,0.8091554131380176
1682104749010301,-0.10516517891203181,0.571236743724727,0.8335698481727318
1682104749026291,-0.10357824063477539,0.5795376516365298,0.8388189517051954
1682104749042280,-0.1018692301823454,0.5828336003662162,0.836377508201724
1682104749058269,-0.10418860151064324,0.5852750438696877,0.8136720836194398
1682104749074258,-0.10418860151064324,0.5700160219729913,0.7896238651102463
1682104749090248,-0.10406652933546967,0.5598840314335849,0.7761959258411535
1682104749106237,-0.12774853131914243,0.5490196078431371,0.7622796978713664
1682104749122226,-0.13568322270542454,0.53852140077821,0.7625238422217135
1682104749138216,-0.14959945067521163,0.5499961852445256,0.7676508735790035
1682104749154205,-0.15655756466010518,0.5685511558709084,0.7726558327611199
1682104749170194,-0.15252918287937733,0.5773403524834055,0.7750972762645914
1682104749186184,-0.1450827801937895,0.5882047760738534,0.7774166475928892
1682104749202173,-0.14410620279240094,0.5941863126573583,0.7809567406729228
1682104749218109,-0.14032196536202024,0.5908903639276719,0.7835202563515677
1682104749234098,-0.1371480888075074,0.5801480125123977,0.7885252155336842
1682104749250087,-0.13055619134813456,0.5811245899137862,0.7938963912413213
1682104749266077,-0.1299458304722667,0.5933318074311433,0.7999999999999998
1682104749282066,-0.13055619134813456,0.6041962310215911,0.804516670481422
1682104749298055,-0.12811474784466315,0.6102998397802697,0.8097657740138855
1682104749314045,-0.12774853131914243,0.6204318303196761,0.8062256809338519
1682104749330034,-0.128725108720531,0.6196993972686347,0.7992675669489584
1682104749346023,-0.12933546959639886,0.6123750667582204,0.7940184634164948
1682104749362012,-0.12884718089570457,0.6012664988174254,0.7937743190661477
1682104749378002,-0.13006790264744028,0.5856412603952084,0.793408102540627
1682104749393991,-0.1333638513771267,0.575509269855802,0.7921873807888913
1682104749409980,-0.14459449149309522,0.5741664759288927,0.7887693598840313
1682104749425970,-0.14251926451514452,0.5716029602502477,0.7755855649652856
1682104749441959,-0.13971160448615239,0.570382238498512,0.7658197909514
1682104749457948,-0.14312962539101237,0.5650110627908749,0.7520256351567864
1682104749473938,-0.14898908979934378,0.5532921339742121,0.7384756237125201
1682104749489927,-0.15863279163805588,0.5482871747920957,0.7277332722972458
1682104749505916,-0.17755397878995938,0.5570763714045928,0.712596322575723
1682104749521906,-0.18023956664377794,0.5767299916075377,0.7055161364156559
1682104749537872,-0.16559090562294942,0.6006561379415576,0.6915999084458688
1682104749553861,-0.1911039902342262,0.6526588845654997,0.6641336690318154
1682104749569850,-0.1555809872587166,0.654001678492409,0.6424048218509197
1682104749585838,-0.1890287632562755,0.7285877775234608,0.6626688029297325
1682104749601827,-0.19122606240939977,0.7727779049362935,0.6654764629587246
1682104749617816,-0.19427786678873904,0.8048828870069427,0.6881818875410088
1682104749633805,-0.18744182497901862,0.8404058899824518,0.7064927138170445
1682104749649794,-0.1820706492713815,0.8810559243152518,0.7256580453192951
1682104749665783,-0.1741359578850994,0.9026626993209739,0.7355458915083544
1682104749681771,-0.165712977798123,0.9104753185320824,0.7420157167925536
1682104749697760,-0.15399404898146019,0.9019302662699324,0.7405508506904708
1682104749713749,-0.13702601663233382,0.8756847486076147,0.7373769741359579
1682104749729738,-0.12164492256046389,0.8256351567864497,0.7227283131151294
1682104749745727,-0.11920347905699247,0.7753414206149385,0.7195544365606166
1682104749761716,-0.11981383993286032,0.7238269626916916,0.7265125505455101
1682104749777704,-0.11334401464866106,0.6808575570305946,0.7316395819028001
1682104749793693,-0.09869535362783255,0.6518043793392847,0.7240711070420387
1682104749809682,-0.0762340733958955,0.6322728313115134,0.7061264972915238
1682104749825671,-0.05560387579156156,0.6222629129472796,0.6908674753948274
1682104749841660,-0.04571602960250232,0.6104219119554433,0.6813458457312889
1682104749857635,-0.042786297398336615,0.6033417257953761,0.6872053101396203
1682104749873624,-0.047913328755626594,0.5877164873731591,0.6967269398031588
1682104749889613,-0.062317845426107965,0.5960173952849619,0.7096665903715573
1682104749905602,-0.06768902113374553,0.6018768596932933,0.7246814679179066
1682104749921590,-0.07684443427176335,0.6303196765087362,0.7514152742809186
1682104749937579,-0.092591744869154,0.6642557412069889,0.7610589761196307
1682104749953568,-0.1018692301823454,0.7022201876859695,0.7556878004119936
1682104749969557,-0.10724040588998252,0.7400625619897765,0.7548332951857786
1682104749985546,-0.11078049897001607,0.7678950179293507,0.7514152742809186
1682104750001535,-0.10943770504310679,0.786572060730907,0.7440909437705043
1682104750017523,-0.10528725108720538,0.7858396276798656,0.7460440985732815
1682104750033512,-0.10113679713130397,0.7846189059281299,0.7394522011139086
1682104750049501,-0.09747463187609684,0.7718013275349049,0.7263904783703365
1682104750065490,-0.10614175631342038,0.7643549248493171,0.7161364156557566
1682104750081479,-0.11371023117418178,0.7482413977264057,0.7033188372625316
1682104750097468,-0.12652780956740672,0.7196765087357901,0.6934309910734724
1682104750113456,-0.13531700617990383,0.6977035172045474,0.6818341344319832
1682104750129445,-0.14105439841306167,0.6796368352788589,0.6695048447394525
1682104750145434,-0.1505760280766002,0.6670634012359811,0.6583962767986575
1682104750161423,-0.163149462119478,0.6605935759517818,0.6460669871061269
1682104750177429,-0.17401388570992582,0.6607156481269554,0.6275120164797441
1682104750193418,-0.1808499275196458,0.6680399786373696,0.6109102006561375
1682104750209406,-0.19769588769359903,0.6985580224307624,0.6059052414740211
1682104750225395,-0.16852063782711513,0.692698558022431,0.5128862439917601
1682104750241384,-0.201968413824674,0.7061264972915238,0.5868619821469441
1682104750257373,-0.238101777676051,0.7450675211718929,0.5817349507896541
1682104750273362,-0.22662699320973534,0.7364003967345694,0.581490806439307
1682104750289351,-0.2167391470206761,0.7793698023956663,0.5861295490959026
1682104750305339,-0.19549858854047475,0.7719233997100785,0.5498741130693521
1682104750321328,-0.18231479362172864,0.7569085221637293,0.5436484321355
1682104750337317,-0.18365758754863792,0.7449454489967193,0.5636682688639656
1682104750353306,-0.17840848401617437,0.7628900587472343,0.5705043106736856
1682104750369295,-0.17462424658579367,0.7765621423666742,0.5858854047455555
1682104750385284,-0.1703517204547187,0.7947508964675363,0.5744106202792398
1682104750401272,-0.17022964827954512,0.8006103608758677,0.5624475471122299
1682104750417261,-0.18158236057068722,0.7873044937819484,0.5612268253604942
1682104750433250,-0.1911039902342262,0.7880369268329899,0.5515831235217821
1682104750449239,-0.1919584954604412,0.7869382772564277,0.5446250095368885
1682104750465228,-0.1948882276646069,0.7818112458991378,0.5521934843976499
1682104750481217,-0.1940337224383919,0.7853513389791713,0.574654764629587
1682104750497161,-0.19562066071564832,0.7920653086137177,0.5788052185854884
1682104750513150,-0.1928130006866562,0.7926756694895856,0.5735561150530248
1682104750529139,-0.18793011367971335,0.7954833295185777,0.5654993514915692
1682104750545128,-0.19159227893492048,0.7947508964675363,0.5557335774776835
1682104750561117,-0.1943999389639126,0.7875486381322956,0.5447470817120621
1682104750577106,-0.19794003204394617,0.7787594415197985,0.5534142061493856
1682104750593094,-0.20550850690470757,0.7980468451972227,0.5541466392004271
1682104750609083,-0.20782787823300541,0.8034180209048598,0.5514610513466085
1682104750625072,-0.21954680704966822,0.8225833524071104,0.5648889906157013
1682104750641061,-0.22479591058213177,0.8314946211947811,0.5662317845426106
1682104750657050,-0.22528419928282606,0.8239261463340197,0.558419165331502
1682104750673039,-0.2301670862897689,0.8266117341878383,0.5451132982375828
1682104750689027,-0.23077744716563675,0.8206301976043333,0.5426718547341114
1682104750705016,-0.23736934462500958,0.8076905470359348,0.5529259174486914
1682104750721005,-0.23553826199740602,0.8147707331960019,0.5614709697108413
1682104750736994,-0.2229648279545282,0.8091554131380176,0.5568322270542456
1682104750752983,-0.22858014801251247,0.8117189288166626,0.5866178377965969
1682104750768972,-0.22772564278629748,0.8092774853131912,0.5692835889219499
1682104750784960,-0.2360265506981003,0.8107423514152741,0.5622034027618827
1682104750800949,-0.2401770046540017,0.8009765774013884,0.5731898985275041
1682104750816925,-0.23968871595330743,0.8029297322041655,0.5665980010681313
1682104750832914,-0.23907835507743957,0.8068360418097198,0.560982681010147
1682104750848902,-0.2401770046540017,0.8018310826276034,0.5568322270542456
1682104750864891,-0.2473792629892424,0.7995117112993055,0.5581750209811549
1682104750880880,-0.25775539787899593,0.8074464026855876,0.564400701915007
1682104750896869,-0.2637369344625009,0.8087891966124969,0.5606164644846263
1682104750912858,-0.26935225452048517,0.8102540627145798,0.5554894331273363
1682104750928846,-0.2755779354543373,0.8114747844663155,0.5612268253604942
1682104750944835,-0.27325856412603944,0.8109864957656212,0.5487754634927899
1682104750960824,-0.2738689250019073,0.8217288471808954,0.5471885252155335
1682104750976813,-0.2616617074845502,0.8358892195010297,0.5373006790264743
1682104750992802,-0.2595864805065995,0.8347905699244675,0.5238727397573815
1682104751008791,-0.2667887388418402,0.8263675898374911,0.5319295033188371
1682104751024779,-0.271671625848783,0.8109864957656212,0.5354695963988707
1682104751040768,-0.26739909971770803,0.8125734340428776,0.5260700389105057
1682104751056757,-0.2678873884184023,0.8134279392690926,0.5220416571297779
1682104751072746,-0.275944151979858,0.7871824216067749,0.5261921110856793
1682104751088735,-0.2755779354543373,0.789990081635767,0.5371786068513007
1682104751104724,-0.2797283894102387,0.8078126192111084,0.49457541771572444
1682104751120712,-0.28876173037308295,0.7792477302204928,0.5133745326924544
1682104751136657,-0.2926680399786372,0.7733882658121614,0.5064164187075608
1682104751152646,-0.29596398870832363,0.7648432135500114,0.5080033569848172
1682104751168634,-0.2932784008545051,0.7661860074769207,0.5056839856565194
1682104751184622,-0.29596398870832363,0.7709468223086899,0.5169146257724879
1682104751200611,-0.29498741130693507,0.7798580910963606,0.5260700389105057
1682104751216599,-0.2962081330586708,0.7869382772564277,0.5206988632028686
1682104751232587,-0.28241397726405726,0.7787594415197985,0.5192339971007858
1682104751248576,-0.279362172884718,0.7802243076218813,0.5153276874952315
1682104751264564,-0.2764324406805523,0.7837644007019149,0.5160601205462729
1682104751280552,-0.2783855954833294,0.7875486381322956,0.5314412146181429
1682104751296541,-0.27704280155642014,0.8013427939269091,0.5321736476691843
1682104751312529,-0.27069504844739445,0.8104982070649269,0.530830853742275
1682104751328518,-0.2666666666666666,0.8172121766994733,0.5242389562829022
1682104751344506,-0.25470359349965666,0.818432898451209,0.5344930189974821
1682104751360494,-0.24798962386511025,0.8106202792401005,0.53852140077821
1682104751376483,-0.23797970550087744,0.8040283817807277,0.5336385137712671
1682104751392471,-0.24213015945677885,0.8015869382772562,0.5434042877851528
1682104751408459,-0.24713511863889526,0.7969481956206605,0.5513389791714349
1682104751424448,-0.24664682993820097,0.7998779278248263,0.5600061036087585
1682104751440436,-0.23248645761806674,0.7990234225986113,0.556710154879072
1682104751456421,-0.22027924010070965,0.799389639124132,0.5488975356679635
1682104751472409,-0.21905851834897394,0.7929198138399327,0.5482871747920957
1682104751488397,-0.22333104448004892,0.7833981841763942,0.5517051956969556
1682104751504386,-0.22687113756008248,0.7702143892576485,0.5556115053025099
1682104751520374,-0.22784771496147105,0.7716792553597314,0.5617151140611885
1682104751536362,-0.23175402456702532,0.7809567406729228,0.563546196688792
1682104751552351,-0.23163195239185175,0.794262607766842,0.5668421454184784
1682104751568339,-0.23334096284428174,0.7982909895475698,0.560128175783932
1682104751584327,-0.23541618982223245,0.7975585564965284,0.5590295262073699
1682104751600316,-0.24298466468299385,0.8050049591821162,0.5569542992294192
1682104751616304,-0.24664682993820097,0.7984130617227434,0.5537804226749063
1682104751632292,-0.23920042725261315,0.7962157625696191,0.5524376287479971
1682104751648281,-0.23419546807049674,0.8008545052262148,0.5530479896238649
1682104751664269,-0.23419546807049674,0.8018310826276034,0.555855649652857
1682104751680257,-0.23956664377813386,0.8008545052262148,0.5606164644846263
1682104751696246,-0.24835584039063097,0.802807660028992,0.5603723201342792
1682104751712234,-0.24750133516441597,0.801098649576562,0.5546349279011213
1682104751728222,-0.25055313954375524,0.7974364843213548,0.5552452887769892
1682104751744211,-0.25592431525139236,0.8015869382772562,0.5541466392004271
1682104751760199,-0.24689097428854812,0.801098649576562,0.5543907835507742
1682104751776153,-0.23553826199740602,0.7986572060730905,0.5475547417410542
1682104751792142,-0.23871213855191886,0.8018310826276034,0.5587853818570228
1682104751808130,-0.2448157473105974,0.7995117112993055,0.5602502479591056
1682104751824118,-0.239810788128481,0.789990081635767,0.5562218661783778
1682104751840107,-0.241519798580911,0.7876707103074692,0.5485313191424428
1682104751856095,-0.24921034561684596,0.7895017929350727,0.5574425879301135
1682104751872083,-0.2482337682154574,0.783154039826047,0.5607385366597999
1682104751888072,-0.23273060196841389,0.7826657511253527,0.5540245670252535
1682104751904060,-0.23797970550087744,0.7866941329060806,0.5578088044556342
1682104751920048,-0.2527504386968795,0.7936522468909741,0.5659876401922634
1682104751936037,-0.2520180056458381,0.7954833295185777,0.5619592584115356
1682104751952025,-0.23956664377813386,0.7919432364385441,0.5517051956969556
1682104751968013,-0.2435950255588617,0.7886472877088577,0.5481651026169221
1682104751984002,-0.2540932326237888,0.7849851224536506,0.5531700617990385
1682104751999990,-0.2506752117189288,0.7843747615777827,0.5586633096818492
1682104752015978,-0.24701304646372169,0.7838864728770885,0.5582970931563285
1682104752031967,-0.24310673685816742,0.7958495460440984,0.555855649652857
1682104752047955,-0.240665293354696,0.7952391851682306,0.5603723201342792
1682104752063943,-0.2427405203326467,0.7935301747158006,0.5611047531853206
1682104752079932,-0.23871213855191886,0.7989013504234377,0.5598840314335849
1682104752095916,-0.23370717936980245,0.7963378347447927,0.5586633096818492
1682104752111905,-0.23260852979324032,0.7898680094605934,0.5552452887769892
1682104752127893,-0.23578240634775316,0.784008545052262,0.5534142061493856
1682104752143881,-0.23846799420157172,0.782299534599832,0.5573205157549399
1682104752159870,-0.239810788128481,0.780590524147402,0.5579308766308078
1682104752175858,-0.23504997329671173,0.7790035858701456,0.5562218661783778
1682104752191846,-0.2318760967421989,0.7648432135500114,0.5510948348210878
1682104752207835,-0.238101777676051,0.7799801632715342,0.5562218661783778
1682104752223823,-0.24371709773403527,0.7774166475928892,0.5546349279011213
1682104752239812,-0.23871213855191886,0.7808346684977492,0.5551232166018156
1682104752255800,-0.23883421072709243,0.7890135042343784,0.5506065461203935
1682104752271788,-0.243228809033341,0.8035400930800334,0.5524376287479971
1682104752287777,-0.24603646906233312,0.8065918974593727,0.5547570000762949
1682104752303765,-0.24676890211337454,0.8015869382772562,0.5541466392004271
1682104752319753,-0.24969863431754025,0.8101319905394062,0.5514610513466085
1682104752335742,-0.24847791256580454,0.8112306401159683,0.5471885252155335
1682104752351730,-0.25262836652170595,0.8177004654001676,0.5442587930113678
1682104752367718,-0.2590981918059052,0.8203860532539862,0.5430380712596321
1682104752383707,-0.26227206836041805,0.8152590218966962,0.5364461738002593
1682104752399695,-0.26153963530937663,0.8126955062180512,0.5349813076981764
1682104752415680,-0.26398107881284805,0.8092774853131912,0.5387655451285571
1682104752431668,-0.2661783779659723,0.8075684748607612,0.5425497825589378
1682104752447656,-0.2695963988708323,0.8031738765545127,0.5357137407492178
1682104752463645,-0.27228198672465087,0.8001220721751734,0.5311970702677957
1682104752479633,-0.2792401007095444,0.7929198138399327,0.5279011215381093
1682104752495621,-0.2814373998626687,0.7860837720302127,0.5309529259174486
1682104752511610,-0.29217975127794293,0.7804684519722285,0.537666895551995
1682104752527598,-0.28754100862134724,0.7860837720302127,0.5399862668802928
1682104752543586,-0.2890058747234301,0.7903562981612877,0.5388876173037307
1682104752559575,-0.2927901121538108,0.787426565957122,0.53510337987335
1682104752575563,-0.28705271992065295,0.7969481956206605,0.5254596780346379
1682104752591551,-0.2780193789578087,0.8224612802319369,0.5265583276112
1682104752607540,-0.27777523460746156,0.8264896620126647,0.527412832837415
1682104752623528,-0.28119325551232155,0.800244144350347,0.5343709468223086
1682104752639516,-0.27582207980468443,0.7923094529640649,0.5340047302967879
1682104752655505,-0.27191577019913016,0.7890135042343784,0.5352254520485236
1682104752671493,-0.27228198672465087,0.7886472877088577,0.5371786068513007
1682104752687482,-0.270817120622568,0.7924315251392384,0.5352254520485236
1682104752703470,-0.2705729762722209,0.7938963912413213,0.5330281528953993
1682104752719458,-0.27154955367360945,0.7909666590371556,0.5305867093919279
1682104752735443,-0.27496757457846943,0.785717555504692,0.5348592355230029
1682104752751431,-0.27862973983367656,0.7790035858701456,0.5341268024719614
1682104752767419,-0.27399099717708086,0.7739986266880292,0.5327840085450521
1682104752783408,-0.27020675974670016,0.7794918745708399,0.5348592355230029
1682104752799396,-0.2692301823453116,0.7906004425116349,0.5392538338292514
1682104752815384,-0.27191577019913016,0.8012207217517355,0.54193942168307
1682104752831373,-0.2783855954833294,0.8035400930800334,0.5424277103837642
1682104752847361,-0.2822919050888837,0.7995117112993055,0.5373006790264743
1682104752863350,-0.2848554207675287,0.7932860303654534,0.5310749980926222
1682104752879338,-0.2826581216144044,0.784863050278477,0.5261921110856793
1682104752895326,-0.2877851529716944,0.7824216067750056,0.5293659876401922
1682104752911315,-0.2871747920958265,0.784008545052262,0.5302204928664072
1682104752927303,-0.2927901121538108,0.7886472877088577,0.5288776989394979
1682104752943291,-0.2955977721828029,0.7859616998550392,0.5247272449835965
1682104752959280,-0.29791714351110077,0.7829098954756999,0.5264362554360265
1682104752975268,-0.29962615396353076,0.7733882658121614,0.5275349050125886
1682104752991256,-0.2969405661097122,0.7696040283817807,0.5247272449835965
1682104753007245,-0.2923018234531165,0.7687495231555657,0.5246051728084229
1682104753023233,-0.28583199816891725,0.7802243076218813,0.5341268024719614
1682104753039221,-0.2789959563591973,0.7846189059281299,0.534248874647135
1682104753055175,-0.2728923476005187,0.7807125963225756,0.5319295033188371
1682104753071164,-0.27362478065156015,0.7733882658121614,0.5300984206912336
1682104753087152,-0.2804608224612801,0.7672846570534828,0.5335164415960936
1682104753103140,-0.2835126268406194,0.7725337605859464,0.5366903181506064
1682104753119129,-0.29303425650415793,0.7852292668039977,0.5380331120775157
1682104753135117,-0.29291218432898436,0.8017090104524298,0.5442587930113678
1682104753151106,-0.29034866865033937,0.8108644235904476,0.5448691538872357
1682104753167094,-0.2886396581979094,0.8148928053711755,0.5456015869382771
1682104753183082,-0.2898603799496451,0.8136720836194398,0.5447470817120621
1682104753199071,-0.2881513694972151,0.8084229800869762,0.5468223086900128
1682104753215059,-0.29340047302967864,0.8009765774013884,0.5477988860914014
1682104753231047,-0.2885175860227358,0.800244144350347,0.5501182574196992
1682104753247036,-0.27948424505989156,0.7960936903944456,0.5485313191424428
1682104753263024,-0.2775310902571144,0.7938963912413213,0.5482871747920957
1682104753279012,-0.2814373998626687,0.789135576409552,0.5496299687190049
1682104753295001,-0.281071183337148,0.788281071183337,0.5526817730983442
1682104753310989,-0.27191577019913016,0.7832761120012206,0.5481651026169221
1682104753326977,-0.2649576562142366,0.7818112458991378,0.5508506904707406
1682104753342966,-0.26520180056458376,0.7803463797970549,0.5541466392004271
1682104753358954,-0.2625162127107652,0.7785152971694513,0.5564660105287249
1682104753374939,-0.2603189135576409,0.7752193484397649,0.5540245670252535
1682104753390926,-0.26605630579079875,0.7748531319142442,0.5536583504997328
1682104753406914,-0.2721599145494773,0.7727779049362935,0.5564660105287249
1682104753422902,-0.2611734187838559,0.7752193484397649,0.5552452887769892
1682104753438890,-0.2548256656748302,0.7772945754177156,0.5564660105287249
1682104753454878,-0.25055313954375524,0.7881589990081634,0.5640344853894863
1682104753470866,-0.2544594491493095,0.7927977416647591,0.5727016098268098
1682104753486854,-0.25348287174792095,0.7946288242923627,0.5713588158999006
1682104753502842,-0.24713511863889526,0.7924315251392384,0.5639124132143127
1682104753518829,-0.2507972838941024,0.7830319676508735,0.5600061036087585
1682104753534817,-0.2558022430762188,0.7738765545128556,0.556710154879072
1682104753550805,-0.2562905317769131,0.779736018921187,0.5580529488059813
1682104753566793,-0.2528725108720531,0.7793698023956663,0.5629358358129242
1682104753582781,-0.25506981002517737,0.7863279163805599,0.5696498054474706
1682104753598769,-0.2499427786678874,0.7907225146868084,0.5717250324254213
1682104753614757,-0.2448157473105974,0.7871824216067749,0.5691615167467763
1682104753630745,-0.24725719081406883,0.7868162050812542,0.5685511558709084
1682104753646732,-0.25421530479896237,0.8029297322041655,0.572091248950942
1682104753662720,-0.2666666666666666,0.7975585564965284,0.5722133211261156
1682104753678708,-0.27106126497291516,0.7838864728770885,0.5675745784695199
1682104753694702,-0.2666666666666666,0.7757076371404592,0.5565880827038985
1682104753710690,-0.2667887388418402,0.7731441214618142,0.5562218661783778
1682104753726678,-0.2700846875715266,0.7709468223086899,0.5625696192874035
1682104753742665,-0.273380636301213,0.7747310597390706,0.5681849393453877
1682104753758653,-0.273380636301213,0.7791256580453192,0.5709925993743799
1682104753774641,-0.27789730678263513,0.7765621423666742,0.5736781872281984
1682104753790629,-0.2755779354543373,0.7710688944838635,0.5752651255054548
1682104753806617,-0.269108110170138,0.76752880140383,0.5679407949950406
1682104753822605,-0.26642252231631947,0.7686274509803921,0.571236743724727
1682104753838593,-0.26349279011215376,0.76923781185626,0.5718471046005948
1682104753854581,-0.2553139543755245,0.7698481727321278,0.5758754863813227
1682104753870568,-0.2507972838941024,0.7719233997100785,0.5835660334172577
1682104753886556,-0.25677882047760736,0.7696040283817807,0.5904020752269776
1682104753902544,-0.2582436865796902,0.7658197909514,0.5878385595483326
1682104753918532,-0.2604409857328145,0.7653315022507057,0.582345311665522
1682104753934520,-0.2687418936446173,0.7456778820477608,0.5838101777676048
1682104753950508,-0.2771648737315937,0.7340810254062715,0.5902800030518041
1682104753966496,-0.27948424505989156,0.7543450064850843,0.5915007248035398
1682104753982483,-0.2667887388418402,0.7986572060730905,0.5788052185854884
1682104753998471,-0.2586099031052109,0.8279545281147476,0.5769741359578848
1682104754014465,-0.2590981918059052,0.8421149004348818,0.5885709925993741
1682104754030453,-0.2654459449149309,0.8100099183642326,0.5994354161898219
1682104754046441,-0.28070496681162727,0.7935301747158006,0.5775844968337527
1682104754062429,-0.2881513694972151,0.7747310597390706,0.5585412375066756
1682104754078416,-0.2905928130006865,0.7616693369954985,0.5446250095368885
1682104754094404,-0.29681849393453863,0.7342030975814451,0.5520714122224764
1682104754110392,-0.31110093842984643,0.7366445410849165,0.570382238498512
1682104754126380,-0.32513923857480753,0.7475089646753643,0.5833218890669105
1682104754142368,-0.3197680628671704,0.7484855420767529,0.5696498054474706
1682104754158356,-0.3126878767071033,0.7389639124132144,0.5530479896238649
1682104754174344,-0.3124437323567557,0.7315175097276265,0.544502937361715
1682104754190332,-0.31183337148088786,0.7307850766765851,0.5488975356679635
1682104754206319,-0.30780498970016,0.7416495002670329,0.558419165331502
1682104754222307,-0.3108567940794993,0.7544670786602579,0.5751430533302813
1682104754238295,-0.3079270618753336,0.7660639353017471,0.5800259403372241
1682104754254283,-0.2993820096131836,0.7655756466010528,0.570382238498512
1682104754270271,-0.2962081330586708,0.7602044708934157,0.558419165331502
1682104754286259,-0.3031662470435643,0.7583733882658121,0.5598840314335849
1682104754302247,-0.3091477836270693,0.7630121309224078,0.5691615167467763
1682104754318235,-0.30975814450293715,0.7658197909514,0.5801480125123977
1682104754334198,-0.30389868009460574,0.7829098954756999,0.5759975585564963
1682104754350185,-0.2995040817883572,0.7870603494316013,0.5790493629358355
1682104754366173,-0.2955977721828029,0.7860837720302127,0.5842984664682991
1682104754382161,-0.2918135347524222,0.7724116884107728,0.5899137865262833
1682104754398149,-0.2931563286793315,0.7526359960326543,0.5851529716945141
1682104754414137,-0.29633020523384435,0.7361562523842222,0.576363775082017
1682104754430125,-0.3065842679484243,0.7197985809109637,0.5684290836957349
1682104754446113,-0.31329823758297115,0.7167467765316244,0.5700160219729913
1682104754462101,-0.31134508278019357,0.7218738078889144,0.5691615167467763
1682104754478088,-0.3131761654077976,0.7353017471580072,0.5767299916075377
1682104754494076,-0.30560769054703574,0.7403067063401236,0.5790493629358355
1682104754510064,-0.30060273136491933,0.7457999542229343,0.5757534142061491
1682104754526052,-0.3062180514229036,0.7454337376974136,0.5757534142061491
1682104754542040,-0.30731670099946573,0.7464103150988022,0.5725795376516363
1682104754558028,-0.3100022888532843,0.7486076142519265,0.5819790951400012
1682104754574016,-0.31012436102845786,0.7543450064850843,0.5864957656214234
1682104754590004,-0.30438696879530003,0.7597161821927214,0.5874723430228119
1682104754605991,-0.29547570000762935,0.7720454718852521,0.5853971160448612
1682104754621979,-0.2938887617303729,0.7753414206149385,0.5874723430228119
1682104754637967,-0.2932784008545051,0.7678950179293507,0.5851529716945141
1682104754653961,-0.2932784008545051,0.7562981612878614,0.5827115281910427
1682104754669949,-0.30267795834287003,0.7462882429236286,0.5764858472571905
1682104754685937,-0.3079270618753336,0.7411612115663386,0.5736781872281984
1682104754701924,-0.3045090409704736,0.7429922941939422,0.5730678263523306
1682104754717912,-0.2990157930876629,0.7489738307774472,0.580636301213092
1682104754733900,-0.2909590295262072,0.758129243915465,0.5878385595483326
1682104754749888,-0.2924238956282901,0.7610589761196307,0.5939421683070112
1682104754765876,-0.2953536278324558,0.7603265430685893,0.5883268482490269
1682104754781864,-0.29791714351110077,0.7599603265430686,0.5788052185854884
1682104754797852,-0.3023117418173493,0.7551995117112993,0.5742885481040663
1682104754813840,-0.2982833600366215,0.7505607690547036,0.5752651255054548
1682104754829827,-0.2969405661097122,0.7488517586022736,0.5770962081330584
1682104754845815,-0.2990157930876629,0.746166170748455,0.5783169298847941
1682104754861803,-0.3002365148393986,0.7509269855802243,0.5778286411840998
1682104754877791,-0.3057297627222093,0.7528801403830014,0.5833218890669105
1682104754893779,-0.30182345311665504,0.7576409552147707,0.5800259403372241
1682104754909767,-0.29596398870832363,0.7520256351567864,0.574654764629587
1682104754925755,-0.29840543221179505,0.7541008621347371,0.5796597238117034
1682104754941743,-0.30133516441596075,0.7536125734340429,0.5817349507896541
1682104754957730,-0.29425497825589364,0.751293202105745,0.5733119707026777
1682104754973724,-0.2926680399786372,0.7490959029526207,0.5700160219729913
1682104754989712,-0.2944991226062408,0.7497062638284886,0.5733119707026777
1682104755005700,-0.2924238956282901,0.7438467994201572,0.5775844968337527
1682104755021688,-0.29413290608072007,0.7489738307774472,0.5825894560158691
1682104755037675,-0.29547570000762935,0.7543450064850843,0.5855191882200348
1682104755053663,-0.29010452429999223,0.756420233463035,0.5784390020599677
1682104755069651,-0.2935225452048522,0.7544670786602579,0.5801480125123977
1682104755085639,-0.2995040817883572,0.7545891508354314,0.5825894560158691
1682104755101627,-0.29633020523384435,0.7532463569085222,0.5756313420309755
1682104755117615,-0.2924238956282901,0.7519035629816129,0.574654764629587
1682104755133603,-0.29547570000762935,0.7575188830395971,0.5742885481040663
1682104755149591,-0.2960860608834972,0.7549553673609521,0.5778286411840998
1682104755165578,-0.2944991226062408,0.7532463569085222,0.5817349507896541
1682104755181566,-0.29205767910276936,0.7520256351567864,0.5779507133592734
1682104755197554,-0.2924238956282901,0.7549553673609521,0.5775844968337527
1682104755213542,-0.29413290608072007,0.7577630273899443,0.5759975585564963
1682104755229530,-0.29962615396353076,0.7571526665140764,0.5725795376516363
1682104755245518,-0.30341039139391146,0.7566643778133821,0.573800259403372
1682104755261506,-0.3074387731746393,0.7551995117112993,0.5751430533302813
1682104755277494,-0.3081712062256807,0.7559319447623407,0.5790493629358355
1682104755293487,-0.30719462882429216,0.7625238422217135,0.5817349507896541
1682104755309475,-0.30304417486839075,0.7709468223086899,0.5813687342641334
1682104755325463,-0.3041428244449529,0.7703364614328221,0.5748989089799341
1682104755341451,-0.3029221026932172,0.7737544823376821,0.576363775082017
1682104755357439,-0.30170138094148147,0.7703364614328221,0.5733119707026777
1682104755373427,-0.30170138094148147,0.7680170901045242,0.5761196307316698
1682104755389414,-0.30548561837186217,0.7676508735790035,0.5777065690089263
1682104755405402,-0.30634012359807716,0.7671625848783092,0.5745326924544134
1682104755421390,-0.2998702983138779,0.7647211413748378,0.5713588158999006
1682104755437378,-0.29803921568627434,0.7621576256961928,0.5730678263523306
1682104755453366,-0.30353246356908503,0.7565423056382086,0.5756313420309755
1682104755469354,-0.30548561837186217,0.7549553673609521,0.5670862897688256
1682104755485342,-0.3090257114518957,0.7532463569085222,0.5630579079880977
1682104755501330,-0.31110093842984643,0.7580071717402914,0.5656214236667427
1682104755517317,-0.30804913405050716,0.7630121309224078,0.567818722819867
1682104755533305,-0.30084687571526647,0.7705806057831692,0.5764858472571905
1682104755549293,-0.2953536278324558,0.7744869153887235,0.5769741359578848
1682104755565281,-0.29205767910276936,0.7710688944838635,0.5751430533302813
1682104755581269,-0.2960860608834972,0.7704585336079957,0.5739223315785456
1682104755597257,-0.30133516441596075,0.7696040283817807,0.5742885481040663
1682104755613220,-0.3012130922407872,0.7685053788052185,0.5683070115205613
1682104755629208,-0.2964522774090179,0.7727779049362935,0.5672083619439992
1682104755645196,-0.2953536278324558,0.7724116884107728,0.5683070115205613
1682104755661183,-0.2938887617303729,0.7676508735790035,0.5700160219729913
1682104755677171,-0.2923018234531165,0.7614251926451514,0.5735561150530248
1682104755693159,-0.2894941634241244,0.7573968108644236,0.5628137636377506
1682104755709147,-0.2924238956282901,0.753002212558175,0.566109712367437
1682104755725135,-0.2888838025482565,0.7526359960326543,0.5636682688639656
1682104755741123,-0.28754100862134724,0.75898374914168,0.5596398870832378
1682104755757111,-0.2809491111619744,0.732249942778668,0.5208209353780422
1682104755773099,-0.2886396581979094,0.75727473868925,0.5717250324254213
1682104755789086,-0.2860761425192644,0.7621576256961928,0.5791714351110091
1682104755805074,-0.281925688563363,0.7685053788052185,0.5744106202792398
1682104755821062,-0.2788738841840237,0.7741206988632028,0.5657434958419163
1682104755837050,-0.28204776073853655,0.7758297093156328,0.5653772793163956
1682104755853038,-0.2881513694972151,0.7711909666590371,0.5668421454184784
1682104755869026,-0.2938887617303729,0.7670405127031357,0.5683070115205613
1682104755885014,-0.2881513694972151,0.7608148317692836,0.5658655680170899
1682104755901002,-0.28839551384756223,0.7553215838864729,0.5636682688639656
1682104755916989,-0.28448920424200796,0.7567864499885557,0.5611047531853206
1682104755932983,-0.2852216372930494,0.7647211413748378,0.5598840314335849
1682104755948971,-0.2926680399786372,0.7656977187762264,0.5647669184405277
1682104755964959,-0.29047074082551294,0.7671625848783092,0.5672083619439992
1682104755980947,-0.28668650339513224,0.7663080796520942,0.5728236820019834
1682104755996935,-0.28204776073853655,0.76752880140383,0.5796597238117034
1682104756012922,-0.276798657206073,0.7693598840314335,0.5697718776226441
1682104756028910,-0.280216678110933,0.7614251926451514,0.571236743724727
1682104756044898,-0.28412298771648725,0.7604486152437628,0.5705043106736856
1682104756060886,-0.2838788433661401,0.7626459143968871,0.5684290836957349
1682104756076874,-0.2789959563591973,0.7639887083237964,0.5651331349660484
1682104756092862,-0.2831464103150987,0.7721675440604256,0.569527733272297
1682104756108850,-0.2838788433661401,0.7770504310673685,0.5731898985275041
1682104756124838,-0.28241397726405726,0.7724116884107728,0.5762417029068434
1682104756140825,-0.28253604943923083,0.7661860074769207,0.5723353933012891
1682104756156813,-0.28705271992065295,0.7608148317692836,0.5761196307316698
1682104756172801,-0.29120317387655437,0.7578850995651178,0.5748989089799341
1682104756188789,-0.2888838025482565,0.7536125734340429,0.5672083619439992
1682104756204777,-0.2871747920958265,0.7505607690547036,0.5608606088349735
1682104756220765,-0.29132524605172794,0.75214770733196,0.5646448462653542
1682104756236753,-0.29877164873731576,0.7537346456092164,0.5735561150530248
1682104756252746,-0.29669642175936506,0.7573968108644236,0.5767299916075377
1682104756268734,-0.29303425650415793,0.7561760891126879,0.5690394445716027
1682104756284722,-0.2952315556572822,0.7583733882658121,0.5683070115205613
1682104756300710,-0.2977950713359272,0.7635004196231021,0.5707484550240327
1682104756316698,-0.29706263828488577,0.7650873579003585,0.5709925993743799
1682104756332686,-0.2919356069275958,0.76411078049897,0.5681849393453877
1682104756348673,-0.29120317387655437,0.7638666361486228,0.5694056610971234
1682104756364661,-0.29633020523384435,0.759838254367895,0.5717250324254213
1682104756380649,-0.30182345311665504,0.7569085221637293,0.5700160219729913
1682104756396637,-0.29877164873731576,0.7503166247043564,0.5673304341191727
1682104756412625,-0.2953536278324558,0.7508049134050507,0.5645227740901806
1682104756428613,-0.2919356069275958,0.758129243915465,0.5679407949950406
1682104756444601,-0.2915693904020751,0.7622796978713664,0.5739223315785456
1682104756460589,-0.29669642175936506,0.763256275272755,0.581490806439307
1682104756476576,-0.2976729991607536,0.7619134813458457,0.5807583733882655
1682104756492564,-0.29340047302967864,0.7616693369954985,0.5700160219729913
1682104756508552,-0.28790722514686795,0.7614251926451514,0.5636682688639656
1682104756524540,-0.28632028686961153,0.7671625848783092,0.5663538567177842
1682104756540528,-0.2847333485923551,0.7722896162355992,0.5707484550240327
1682104756556516,-0.2868085755703058,0.7730220492866406,0.5744106202792398
1682104756572509,-0.28998245212481866,0.7715571831845578,0.5751430533302813
1682104756588497,-0.2962081330586708,0.7686274509803921,0.571236743724727
1682104756604485,-0.2948653391317615,0.7660639353017471,0.5676966506446934
1682104756620473,-0.2847333485923551,0.7661860074769207,0.5612268253604942
1682104756636461,-0.27606622415503157,0.7750972762645914,0.5641565575646599
1682104756652449,-0.27826352330815585,0.7703364614328221,0.5725795376516363
1682104756668437,-0.27606622415503157,0.7694819562066071,0.5694056610971234
1682104756684425,-0.2848554207675287,0.7685053788052185,0.5697718776226441
1682104756700412,-0.2938887617303729,0.7687495231555657,0.5663538567177842
1682104756716400,-0.2953536278324558,0.7677729457541771,0.5550011444266421
1682104756732388,-0.2924238956282901,0.7693598840314335,0.5440146486610207
1682104756748376,-0.29010452429999223,0.7755855649652856,0.5432822156099792
1682104756764364,-0.2914473182269015,0.7863279163805599,0.5568322270542456
1682104756780352,-0.3002365148393986,0.7919432364385441,0.5744106202792398
1682104756796340,-0.30426489662012646,0.7962157625696191,0.5769741359578848
1682104756812327,-0.3041428244449529,0.7992675669489584,0.5697718776226441
1682104756828315,-0.3082932784008543,0.803662165255207,0.5676966506446934
1682104756844303,-0.313054093232624,0.8091554131380176,0.5744106202792398
1682104756860291,-0.31329823758297115,0.8080567635614555,0.5821011673151748
1682104756876279,-0.31012436102845786,0.8024414435034712,0.5908903639276719
1682104756892212,-0.3036545357442586,0.7973144121461813,0.6028534370946819
1682104756908199,-0.2993820096131836,0.7893797207598992,0.600534065766384
1682104756924187,-0.29596398870832363,0.7871824216067749,0.5836881055924312
1682104756940175,-0.3020675974670022,0.7791256580453192,0.5734340428778513
1682104756956163,-0.32135500114442683,0.7639887083237964,0.5774624246585791
1682104756972151,-0.32892347600518823,0.7494621194781415,0.5783169298847941
1682104756988139,-0.32330815594720397,0.7439688715953308,0.5753871976806284
1682104757004127,-0.3236743724727247,0.7431143663691158,0.5795376516365298
1682104757020115,-0.32123292896925326,0.7407949950408179,0.5939421683070112
1682104757036102,-0.31280994888227687,0.7439688715953308,0.5995574883649955
1682104757052090,-0.3081712062256807,0.7533684290836957,0.6009002822919047
1682104757068078,-0.3057297627222093,0.7433585107194629,0.6121309224078733
1682104757084066,-0.30182345311665504,0.7273670557717251,0.616769665064469
1682104757100054,-0.29217975127794293,0.7186999313344016,0.6188448920424197
1682104757116042,-0.2888838025482565,0.7295643549248494,0.6260471503776612
1682104757132030,-0.2838788433661401,0.7184557869840544,0.6509498741130697
1682104757148018,-0.2805828946364537,0.7171129930571452,0.6570534828717483
1682104757164005,-0.28326848249027226,0.725413900968948,0.6435034714274819
1682104757179993,-0.2965743495841915,0.718577859159228,0.6342259861142905
1682104757195981,-0.30841535057602787,0.7097886625467309,0.6469214923323419
1682104757211975,-0.3075608453498129,0.6911116197451745,0.6792706187533382
1682104757227963,-0.29669642175936506,0.6834210727092396,0.7011215381094074
1682104757243950,-0.2826581216144044,0.7058823529411766,0.718577859159228
1682104757259938,-0.2671549553673609,0.7189440756847487,0.7204089417868316
1682104757275926,-0.2654459449149309,0.6723125047684446,0.7654535744258792
1682104757291914,-0.23358510719462888,0.6734111543450068,0.7730220492866406
1682104757307902,-0.2549477378500038,0.6231174181734946,0.7416495002670329
1682104757323890,-0.25421530479896237,0.6044403753719383,0.7367666132600901
1682104757339878,-0.2641031509880216,0.5623254749370563,0.726268406195163
1682104757355866,-0.27777523460746156,0.5476768139162278,0.7167467765316244
1682104757371853,-0.28326848249027226,0.5366903181506064,0.7075913633936066
1682104757387841,-0.27875181200885013,0.5281452658884564,0.6915999084458688
1682104757403829,-0.2871747920958265,0.5337605859464407,0.6779278248264289
1682104757419817,-0.2969405661097122,0.560982681010147,0.6740215152208746
1682104757435805,-0.3031662470435643,0.5853971160448612,0.6709697108415353
1682104757451793,-0.28998245212481866,0.6543678950179297,0.6551003280689711
1682104757467781,-0.26739909971770803,0.6632791638056004,0.6856183718623639
1682104757483769,-0.2955977721828029,0.6715800717174032,0.7133287556267645
1682104757499756,-0.28448920424200796,0.6251926451514462,0.7317616540779737
1682104757515744,-0.269108110170138,0.5042191195544365,0.7616693369954985
1682104757531738,-0.2620279240100709,0.5056839856565194,0.7428702220187686
1682104757547726,-0.2520180056458381,0.560128175783932,0.7116197451743345
1682104757563714,-0.25177386129549095,0.5768520637827113,0.690135042343786
1682104757579702,-0.25970855268177306,0.578072785534447,0.6826886396581981
1682104757595689,-0.2556801709010452,0.5831998168917369,0.6780498970016025
1682104757611677,-0.2582436865796902,0.5796597238117034,0.6796368352788589
1682104757627665,-0.2549477378500038,0.5690394445716027,0.6814679179064624
1682104757643653,-0.2650797283894102,0.5938200961318376,0.6890363927672238
1682104757659641,-0.26813153276874946,0.6294651712825212,0.6964827954528117
1682104757675629,-0.2623941405355916,0.6631570916304268,0.7030746929121845
1682104757691617,-0.2525062943465324,0.6894026092927446,0.7084458686198216
1682104757707605,-0.24750133516441597,0.6979476615548945,0.713450827801938
1682104757723592,-0.24213015945677885,0.6967269398031588,0.7174792095826659
1682104757739580,-0.24127565423056385,0.6917219806210424,0.7226062409399558
1682104757755568,-0.22186617837796607,0.7088120851453423,0.7207751583123523
1682104757771556,-0.20099183642328544,0.7240711070420387,0.7188220035095751
1682104757787544,-0.16888685435263584,0.7182116426337073,0.7299305714503701
1682104757803532,-0.15741206988632017,0.7138170443274587,0.7556878004119936
1682104757819520,-0.14361791409170666,0.7089341573205159,0.7757076371404592
1682104757835507,-0.10125886930647754,0.7409170672159915,0.7763179980163271
1682104757851501,-0.07306019684138265,0.8034180209048598,0.7602044708934157
1682104757867489,-0.06829938200961339,0.7428702220187686,0.7981689173723963
1682104757883477,-0.09735255970092327,0.7150377660791944,0.7509269855802243
1682104757899465,-0.13153276874952313,0.7042954146639202,0.7652094300755321
1682104757915453,-0.12689402609292744,0.7154039826047152,0.7278553444724194
1682104757931440,-0.12628366521705958,0.725413900968948,0.7020981155107959
1682104757947428,-0.13604943923094526,0.7497062638284886,0.681589990081636
1682104757963416,-0.126161593041886,0.7205310139620051,0.6933089188982988
1682104757979404,-0.14703593499656664,0.6994125276569774,0.686717021438926
1682104757995392,-0.13983367666132596,0.6834210727092396,0.6941634241245138
1682104758011380,-0.1290913252460517,0.6911116197451745,0.6757305256733046
1682104758027368,-0.1144426642252232,0.679880979629206,0.6618142977035175
1682104758043356,-0.10443274586099038,0.6665751125352868,0.6637674525062947
1682104758059343,-0.10675211718928823,0.6605935759517818,0.6544899671931033
1682104758075331,-0.12262149996185245,0.6752422369726103,0.6518043793392847
1682104758091319,-0.1299458304722667,0.6724345769436182,0.652292668039979
1682104758107307,-0.11688410772869462,0.694407568474861,0.6450904097047383
1682104758123295,-0.10711833371480894,0.7036850537880524,0.6266575112535291
1682104758139283,-0.1047989623865111,0.7038071259632259,0.6215304798962382
1682104758155271,-0.11224536507209892,0.7224841687647823,0.6348363469901583
1682104758171234,-0.12079041733424889,0.7433585107194629,0.6391088731212333
1682104758187222,-0.12396429388876173,0.7576409552147707,0.6322728313115134
1682104758203210,-0.12567330434119173,0.747875181200885,0.6240939955748832
1682104758219197,-0.13495078965438312,0.7462882429236286,0.6359349965667205
1682104758235185,-0.1450827801937895,0.7447013046463722,0.6507057297627226
1682104758251173,-0.15252918287937733,0.7381094071869994,0.6698710612649732
1682104758267161,-0.16290531776913086,0.7344472419317922,0.6551003280689711
1682104758283149,-0.16815442130159441,0.7235828183413444,0.6376440070191505
1682104758299137,-0.18316929884794364,0.7186999313344016,0.6087129015030133
1682104758315125,-0.16534676127260228,0.6933089188982988,0.6301976043335626
1682104758331112,-0.17633325703822367,0.7064927138170445,0.6175020981155104
1682104758347100,-0.18988326848249049,0.689280537117571,0.6272678721293969
1682104758363088,-0.20477607385366614,0.7030746929121845,0.6309300373846041
1682104758379076,-0.202822919050889,0.7387197680628672,0.6275120164797441
1682104758395064,-0.18927290760662263,0.7703364614328221,0.6433813992523083
1682104758411052,-0.1627832455939573,0.7790035858701456,0.6769512474250403
1682104758427040,-0.14325169756618594,0.7716792553597314,0.7152819104295416
1682104758443028,-0.13812466620889596,0.7650873579003585,0.7189440756847487
1682104758459015,-0.1480125123979552,0.7688715953307392,0.6859845883878846
1682104758475003,-0.15790035858701446,0.7514152742809186,0.6587624933241782
1682104758490997,-0.17084000915541298,0.7365224689097429,0.6575417715724425
1682104758506985,-0.17608911268787653,0.7274891279468987,0.6685282673380639
1682104758522973,-0.17315938048371082,0.7241931792172123,0.672190432593271
1682104758538961,-0.17181658655680154,0.7180895704585337,0.6802471961547267
1682104758554948,-0.17584496833752938,0.7241931792172123,0.6800030518043796
1682104758570936,-0.17853055619134794,0.7233386739909973,0.6876935988403146
1682104758586924,-0.17389181353475225,0.7298084992751965,0.6675516899366754
1682104758602912,-0.17181658655680154,0.7196765087357901,0.6736552986953539
1682104758618900,-0.16705577172503228,0.710032806897078,0.6856183718623639
1682104758634888,-0.15997558556496516,0.707469291218433,0.6942854962996874
1682104758650876,-0.15667963683527875,0.7089341573205159,0.6878156710154881
1682104758666864,-0.16339360646982515,0.710887312123293,0.6865949492637524
1682104758682851,-0.1698634317540244,0.7152819104295416,0.6891584649423974
1682104758698839,-0.16803234912642084,0.715159838254368,0.6970931563286795
1682104758714827,-0.16620126649881728,0.7246814679179066,0.7144274052033266
1682104758730815,-0.16180666819256873,0.7365224689097429,0.7235828183413444
1682104758746803,-0.15631342030975803,0.7511711299305714,0.7355458915083544
1682104758762791,-0.15167467765316234,0.7527580682078279,0.7343251697566187
1682104758778779,-0.1531395437552452,0.7943846799420156,0.710032806897078
1682104758794767,-0.14837872892347592,0.7992675669489584,0.7007553215838866
1682104758810760,-0.1371480888075074,0.8300297550926983,0.7388418402380408
1682104758826748,-0.12225528343633174,0.789135576409552,0.7912108033875027
1682104758842736,-0.12738231479362172,0.7643549248493171,0.7802243076218813
1682104758858724,-0.11248950942244607,0.7116197451743345,0.7747310597390706
1682104758874712,-0.10431067368581681,0.6728007934691389,0.7293202105745022
1682104758890699,-0.11285572594796678,0.6393530174715805,0.7190661478599223
1682104758906687,-0.13604943923094526,0.5976043335622183,0.7300526436255437
1682104758922675,-0.14081025406271452,0.5956511787594412,0.7249256122682537
1682104758938663,-0.14532692454413665,0.603097581445029,0.7310292210269322
1682104758954651,-0.15204089417868305,0.5899137865262833,0.7172350652323187
1682104758970639,-0.15106431677729448,0.6012664988174254,0.7014877546349281
1682104758986627,-0.15191882200350948,0.6209201190203704,0.7020981155107959
1682104759002615,-0.15912108033875016,0.6115205615320054,0.7024643320363166
1682104759018602,-0.15704585336079946,0.6032196536202026,0.7090562294956895
1682104759034590,-0.14984359502555877,0.6117647058823525,0.7112535286488137
1682104759050578,-0.15619134813458446,0.6162813763637747,0.7162584878309302
1682104759066566,-0.16583504997329657,0.617624170290684,0.7255359731441215
1682104759082554,-0.15802243076218803,0.6475318532082097,0.7293202105745022
1682104759098542,-0.1480125123979552,0.652292668039979,0.7433585107194629
1682104759114530,-0.1450827801937895,0.6570534828717483,0.744457160296025
1682104759130523,-0.14740215152208735,0.6623025864042118,0.7412832837415122
1682104759146511,-0.15277332722972448,0.6638895246814682,0.7321278706034944
1682104759162499,-0.1552147707331959,0.6674296177615018,0.7399404898146029
1682104759178487,-0.1543602655069809,0.6765850308995196,0.7522697795071336
1682104759194475,-0.14752422369726093,0.6729228656443125,0.756420233463035
1682104759210463,-0.1392233157854581,0.6687724116884111,0.7604486152437628
1682104759226451,-0.13360799572747384,0.6680399786373696,0.764965285725185
1682104759242438,-0.13519493400473026,0.6681620508125432,0.7638666361486228
1682104759258426,-0.13434042877851526,0.6653543907835511,0.7573968108644236
1682104759274414,-0.1299458304722667,0.6538796063172354,0.7639887083237964
1682104759290402,-0.13238727397573813,0.6436255436026554,0.7656977187762264
1682104759306390,-0.1345845731288624,0.6430151827267876,0.7672846570534828
1682104759322378,-0.13141069657434956,0.6410620279240105,0.7631342030975814
1682104759338366,-0.13189898527504385,0.6325169756618605,0.7545891508354314
1682104759354354,-0.13238727397573813,0.6282444495307855,0.754711223010605
1682104759370341,-0.13385214007782098,0.6258030060273141,0.7570305943389029
1682104759386329,-0.1380025940337224,0.6236057068741889,0.7536125734340429
1682104759402317,-0.1380025940337224,0.6334935530632491,0.7548332951857786
1682104759418305,-0.1447165636682688,0.6381322957198448,0.7543450064850843
1682104759434293,-0.1476462958724345,0.642893110551614,0.7565423056382086
1682104759450256,-0.1471580071717402,0.646311131456474,0.7501945525291829
1682104759466244,-0.15240711070420376,0.6438696879530026,0.7468986037994965
1682104759482232,-0.1602197299153123,0.6452124818799119,0.7411612115663386
1682104759498220,-0.15631342030975803,0.6527809567406733,0.7468986037994965
1682104759514207,-0.1564354924849316,0.6658426794842454,0.7508049134050507
1682104759530195,-0.15875486381322945,0.6669413290608075,0.7570305943389029
1682104759546183,-0.16095216296635373,0.6625467307545589,0.7510490577553979
1682104759562171,-0.16510261692225514,0.6577859159227897,0.7481193255512322
1682104759578159,-0.16668955519951156,0.6515602349889376,0.7365224689097429
1682104759594147,-0.1719386587319751,0.648874647135119,0.7338368810559244
1682104759610135,-0.17401388570992582,0.6654764629587246,0.7366445410849165
1682104759626123,-0.16583504997329657,0.6640115968566418,0.7401846341649501
1682104759642110,-0.1607080186160066,0.6535133897917147,0.7415274280918593
1682104759658098,-0.16473640039673443,0.6435034714274819,0.7381094071869994
1682104759674086,-0.17389181353475225,0.638620584420539,0.7362783245593958
1682104759690074,-0.1762111848630501,0.6355687800411998,0.7349355306324865
1682104759706062,-0.17303730830853725,0.6308079652094305,0.7278553444724194
1682104759722050,-0.17718776226443866,0.6343480582894641,0.7284657053482873
1682104759738038,-0.17853055619134794,0.6376440070191505,0.7324940871290151
1682104759754026,-0.17523460746166153,0.6465552758068212,0.7356679636835279
1682104759770019,-0.1719386587319751,0.6500953688868547,0.7320057984283208
1682104759786007,-0.17511253528648796,0.6449683375295647,0.7329823758297094
1682104759801995,-0.17669947356374438,0.6461890592813004,0.7301747158007172
1682104759817983,-0.17376974135957868,0.646311131456474,0.7346913862821394
1682104759833971,-0.1719386587319751,0.6498512245365076,0.7351796749828337
1682104759849959,-0.17486839093614082,0.6583962767986575,0.7388418402380408
1682104759865946,-0.18060578316929865,0.6610818646524761,0.7400625619897765
1682104759881934,-0.18023956664377794,0.6516823071641111,0.7376211184863051
1682104759897922,-0.17608911268787653,0.6391088731212333,0.7346913862821394
1682104759913910,-0.1749904631113144,0.6326390478370341,0.7389639124132144
1682104759929898,-0.1803616388189515,0.6309300373846041,0.7368886854352636
1682104759945886,-0.1803616388189515,0.6383764400701919,0.7403067063401236
1682104759961874,-0.1741359578850994,0.6465552758068212,0.7431143663691158
1682104759977862,-0.1749904631113144,0.6458228427557797,0.7501945525291829
1682104759993849,-0.17865262836652152,0.6409399557488369,0.75214770733196
1682104760009837,-0.1799954222934308,0.6322728313115134,0.7549553673609521
1682104760025825,-0.1803616388189515,0.6336156252384226,0.7539787899595636
1682104760041813,-0.18280308232242293,0.6372777904936298,0.7482413977264057
1682104760057801,-0.18353551537346435,0.642038605325399,0.7396963454642558
1682104760073789,-0.18243686579690221,0.6399633783474483,0.7383535515373465
1682104760089782,-0.18390173189898507,0.6371557183184562,0.7468986037994965
1682104760105770,-0.1791409170672158,0.6265354390783555,0.7605706874189364
1682104760121758,-0.1715724422064544,0.6135957885099561,0.7754634927901121
1682104760137746,-0.1598535133897916,0.6170138094148161,0.7787594415197985
1682104760153734,-0.15045395590142663,0.625558861676967,0.7758297093156328
1682104760169722,-0.15570305943389018,0.6378881513694976,0.7613031204699778
1682104760185710,-0.15863279163805588,0.6500953688868547,0.7591058213168536
1682104760201697,-0.13775844968337525,0.6345922026398112,0.7892576485847256
1682104760217685,-0.09356832227054257,0.6493629358358133,0.8319829098954754
1682104760233673,-0.08612191958495474,0.7252918287937744,0.8678721293965053
1682104760249661,-0.010315098802166744,0.697825589379721,0.9523460746166172
1682104760265649,-0.001037613488975353,0.7847409781033035,1.0071564812695506
1682104760281637,0.027038986800945963,0.7940184634164948,1.0573281452658883
1682104760297625,0.012512397955291021,0.8332036316472111,1.0749065384908825
1682104760313613,-0.035095750362401645,0.825268940260929,1.080155642023346
1682104760329600,-0.07257190814068837,0.8130617227435719,1.1012741283283738
1682104760345588,-0.07037460898756409,0.712596322575723,1.1048142214084073
1682104760361576,-0.06146334019989297,0.6273899443045705,1.0616006713969632
1682104760377564,-0.05365072098878443,0.520576791027695,0.9970244907301442
1682104760393552,-0.04766918440527945,0.43744563973449324,0.9204852368963152
1682104760409546,-0.13519493400473026,0.40839246204318336,0.8266117341878383
1682104760425533,-0.05035477225909801,0.33832303349355275,0.8064698252841991
1682104760441521,-0.04571602960250232,0.3218432898451207,0.7580071717402914
1682104760457509,-0.03338673990997165,0.315495536736095,0.7272449835965515
1682104760473497,-0.016662851911192433,0.30560769054703574,0.7020981155107959
1682104760489485,-0.005676356145571049,0.3239185168230714,0.6929427023727781
1682104760505473,0.014709697108415298,0.3812924391546506,0.7276112001220723
1682104760521461,0.057190814068817986,0.4497749294270239,0.8032959487296862
1682104760537449,0.07635614557106862,0.5249713893339436,0.867383840695811
1682104760553436,0.06292820630197582,0.5933318074311433,0.896070801861601
1682104760569424,0.04693675135423803,0.6513160906385904,0.893507286182956
1682104760585412,0.0604867627985044,0.6729228656443125,0.898634317540246
1682104760601400,0.07074082551308436,0.6654764629587246,0.9263447013046466
1682104760617388,0.07574578469520077,0.6304417486839098,0.9408712901503016
1682104760633376,0.10003814755474139,0.607370107576104,0.9231708247501338
1682104760649364,0.10772869459067635,0.5800259403372241,0.8904554818036168
1682104760665351,0.10003814755474139,0.5093461509117265,0.8327153429465168
1682104760681339,0.0869764248111693,0.4480659189745939,0.797680628671702
1682104760697327,0.0936903944457157,0.4064393072404062,0.7533684290836957
1682104760713315,0.10345616845960137,0.3766536964980549,0.7227283131151294
1682104760729278,0.13128862439917643,0.3440604257267106,0.7085679407949952
1682104760745266,0.1482566567483028,0.4090028229190512,0.7011215381094074
1682104760761254,0.15045395590142707,0.37653162432288134,0.7736324101625085
1682104760777242,0.1401998931868471,0.38861676966506487,0.8147707331960019
1682104760793230,0.15313954375524563,0.3936217288471813,0.7969481956206605
1682104760809218,0.1763332570382241,0.4606393530174717,0.7697261005569542
1682104760825205,0.14129854276340925,0.4425726710917832,0.7249256122682537
1682104760841193,0.11236743724727205,0.40766002899214193,0.7141832608529795
1682104760857181,0.12750438696879574,0.38580910963607273,0.7501945525291829
1682104760873169,0.12262149996185201,0.3809262226291299,0.795117112993057
1682104760889157,0.12298771648737272,0.40204470893415767,0.8434576943617911
1682104760905145,0.13263141832608571,0.42572671091783043,0.8666514076447696
1682104760921133,0.1439841306172278,0.44379339284351893,0.8921644922560468
1682104760937121,0.1377584496833757,0.41730373083085404,0.9363546196688795
1682104760953108,0.1272602426184486,0.48065918974593735,0.9408712901503016
1682104760969096,0.1415426871137564,0.49921416037232014,0.940749217975128
1682104760985084,0.13092240787365572,0.5143511100938429,0.9844510566872664
1682104761001072,0.11346608682383419,0.5150835431448844,0.9969024185549706
1682104761017060,0.11639581902799989,0.49616235599298086,0.9886015106431678
1682104761033048,0.06561379415579438,0.4700389105058367,0.9826199740596628
1682104761049041,0.02935835812924381,0.466254673075456,0.9626001373311972
1682104761065029,0.002746623941405346,0.4876173037308309,0.9730983443961243
1682104761081017,0.0424200808728159,0.5668421454184784,0.9152361333638517
1682104761097005,0.09503318837262498,0.6653543907835511,0.8378423743038068
1682104761112993,0.053284504463263715,0.6367895017929355,0.8018310826276034
1682104761128981,0.03411917296101308,0.5391317616540778,0.7003891050583659
1682104761144969,0.014587624933241727,0.5778286411840998,0.7592278934920271
1682104761160956,-0.07647821774624264,0.7392080567635615,0.7146715495536737
1682104761176944,-0.0109254596780346,0.6319066147859926,0.5680628671702141
1682104761192932,-0.013122758831158876,1.0109407186999313,0.44159609369039465
1682104761208920,0.05279621576256943,1.1013962005035474,0.2738689250019073
1682104761224908,0.044007019150072324,0.9876249332417792,0.41010147249561335
1682104761240896,-0.03265430685893023,0.9387960631723509,0.5607385366597999
1682104761256884,-0.0678110933089191,0.9317158770122838,0.6416723887998783
1682104761272872,-0.03802548256656735,0.896925307087816,0.6417944609750519
1682104761288859,-0.021057450217440987,0.8799572747386897,0.6564431219958804
1682104761304847,-0.02545204852368954,0.8635996032654303,0.6800030518043796
1682104761320835,-0.03167772945754166,0.8782482642862597,0.6955062180514231
1682104761336823,-0.019714656290531707,0.8689707789730674,0.7025864042114902
1682104761352811,-0.017029068436713146,0.8241702906843669,0.7096665903715573
1682104761368805,-0.027405203326466676,0.787426565957122,0.7085679407949952
1682104761384792,-0.027283131151293105,0.7523918516823072,0.6853742275120167
1682104761400780,-0.03033493553063238,0.7437247272449836,0.6253147173266198
1682104761416768,-0.02935835812924381,0.75727473868925,0.5338826581216143
1682104761432756,-0.044251163500419466,0.7251697566186008,0.5076371404592965
1682104761448744,-0.06939803158617552,0.7017318989852752,0.5279011215381093
1682104761464732,-0.07318226901655622,0.6737773708705275,0.5426718547341114
1682104761480720,-0.06976424811169624,0.6594949263752197,0.5510948348210878
1682104761496708,-0.07232776379034123,0.679026474402991,0.5611047531853206
1682104761512695,-0.07489127946898622,0.7000228885328452,0.5751430533302813
1682104761528683,-0.07806515602349906,0.74702067597467,0.5657434958419163
1682104761544671,-0.0724498359655148,0.7541008621347371,0.5767299916075377
1682104761560659,-0.08953994048981473,0.7583733882658121,0.6098115510795754
1682104761576647,-0.09356832227054257,0.7447013046463722,0.649729152361334
1682104761592635,-0.08526741435873975,0.7389639124132144,0.672190432593271
1682104761608623,-0.07660028992141621,0.7492179751277943,0.6660868238345925
1682104761624611,-0.07513542381933336,0.7667963683527885,0.6544899671931033
1682104761640598,-0.07794308384832549,0.7703364614328221,0.6419165331502255
1682104761656586,-0.0858777752346076,0.7616693369954985,0.6443579766536969
1682104761672574,-0.08245975432974761,0.7580071717402914,0.6526588845654997
1682104761688568,-0.07891966124971406,0.7682612344548714,0.6643778133821625
1682104761704556,-0.08856336308842616,0.783154039826047,0.679880979629206
1682104761720543,-0.09246967269398043,0.8008545052262148,0.6819562066071567
1682104761736531,-0.09600976577401399,0.8126955062180512,0.6692607003891053
1682104761752519,-0.09442282749675757,0.8023193713282977,0.654856183718624
1682104761768507,-0.1039444571602961,0.7893797207598992,0.6391088731212333
1682104761784495,-0.11102464332036321,0.76411078049897,0.6295872434576948
1682104761800483,-0.11114671549553679,0.7560540169375143,0.626413366903182
1682104761816471,-0.11053635461966893,0.7663080796520942,0.6321507591363398
1682104761832459,-0.10736247806515609,0.7765621423666742,0.6373998626688033
1682104761848446,-0.10785076676585037,0.7808346684977492,0.6485084306095983
1682104761864434,-0.11017013809414822,0.7783932249942778,0.6491187914854661
1682104761880422,-0.11175707637140464,0.7715571831845578,0.6427710383764405
1682104761896410,-0.10809491111619751,0.7628900587472343,0.6337376974135962
1682104761912398,-0.1123674372472725,0.7542229343099107,0.6225070572976268
1682104761928386,-0.1165178912031739,0.7631342030975814,0.6094453345540547
1682104761944374,-0.12005798428320746,0.784863050278477,0.6111543450064847
1682104761960362,-0.1350728618295567,0.7885252155336842,0.5949187457083998
1682104761976349,-0.14862287327382306,0.7929198138399327,0.6004119935912104
1682104761992337,-0.1409323262378881,0.7749752040894178,0.6038300144960704
1682104762008300,-0.14435034714274808,0.7759517814908063,0.6260471503776612
1682104762024288,-0.1433737697413595,0.7737544823376821,0.6383764400701919
1682104762040275,-0.13678187228198668,0.7935301747158006,0.6328831921873812
1682104762056263,-0.13299763485160598,0.8054932478828105,0.6295872434576948
1682104762072250,-0.12469672693980316,0.8041504539559012,0.6310521095597776
1682104762088237,-0.11749446860456247,0.795117112993057,0.6355687800411998
1682104762104225,-0.10724040588998252,0.7819333180743113,0.6424048218509197
1682104762120212,-0.09613183794918756,0.7711909666590371,0.6383764400701919
1682104762136200,-0.09417868314641042,0.7661860074769207,0.6295872434576948
1682104762152187,-0.09246967269398043,0.7659418631265735,0.6144502937361711
1682104762168174,-0.09185931181811258,0.7553215838864729,0.5974822613870447
1682104762184162,-0.09564354924849328,0.7553215838864729,0.5855191882200348
1682104762200149,-0.0905165178912033,0.7396963454642558,0.5877164873731591
1682104762216137,-0.09002822919050901,0.7268787670710308,0.5913786526283662
1682104762232124,-0.0888075074387733,0.7267566948958573,0.594552529182879
1682104762248111,-0.08648813611047546,0.7306630045014115,0.5968719005111769
1682104762264099,-0.08429083695735118,0.7320057984283208,0.6024872205691612
1682104762280086,-0.08282597085526833,0.7416495002670329,0.6089570458533604
1682104762296074,-0.08221560997940047,0.7549553673609521,0.5999237048905162
1682104762312061,-0.07721065079728406,0.7647211413748378,0.5885709925993741
1682104762328033,-0.08343633173113618,0.7655756466010528,0.5901579308766305
1682104762344020,-0.094300755321584,0.7656977187762264,0.5950408178835733
1682104762360008,-0.10650797283894109,0.7739986266880292,0.6081025406271454
1682104762375995,-0.11407644769970249,0.7890135042343784,0.6226291294728004
1682104762391983,-0.10968184939345393,0.7986572060730905,0.6413061722743576
1682104762407970,-0.09869535362783255,0.801098649576562,0.6425268940260933
1682104762423957,-0.09686427100022899,0.8115968566414891,0.6338597695887698
1682104762439945,-0.09735255970092327,0.8067139696345462,0.6239719233997096
1682104762455932,-0.0955214770733197,0.779736018921187,0.6210421911955439
1682104762471920,-0.09906157015335326,0.7533684290836957,0.6043183031967647
1682104762487907,-0.0963759822995347,0.7511711299305714,0.5927214465552755
1682104762503894,-0.09295796139467472,0.7562981612878614,0.5878385595483326
1682104762519882,-0.0896620126649883,0.76069275959411,0.5863736934462498
1682104762535869,-0.08282597085526833,0.7636224917982757,0.6071259632257568
1682104762551857,-0.07733272297245763,0.7604486152437628,0.6173800259403368
1682104762567844,-0.08270389868009476,0.7570305943389029,0.6251926451514462
1682104762583831,-0.0879530022125583,0.7619134813458457,0.6306858930342569
1682104762599819,-0.09088273441672401,0.7667963683527885,0.6393530174715805
1682104762615806,-0.091737239642939,0.7691157396810864,0.6453345540550854
1682104762631794,-0.09539940489814613,0.7726558327611199,0.6378881513694976
1682104762647796,-0.10052643625543611,0.7849851224536506,0.6233615625238418
1682104762663784,-0.11285572594796678,0.7760738536659799,0.6059052414740211
1682104762679771,-0.12530708781567101,0.75043869687953,0.6110322728313111
1682104762695758,-0.12982375829709314,0.7482413977264057,0.6041962310215911
1682104762711746,-0.12652780956740672,0.7554436560616464,0.5934538796063169
1682104762727733,-0.12176699473563746,0.7584954604409857,0.5991912718394747
1682104762743721,-0.12018005645838103,0.7613031204699778,0.6019989318684669
1682104762759708,-0.12298771648737317,0.768383306630045,0.6190890363927668
1682104762775695,-0.11834897383077747,0.7772945754177156,0.6203097581445025
1682104762791683,-0.12262149996185245,0.7802243076218813,0.6057831692988476
1682104762807670,-0.12359807736324102,0.7758297093156328,0.6051728084229797
1682104762823658,-0.1290913252460517,0.7716792553597314,0.6087129015030133
1682104762839645,-0.1412985427634088,0.7715571831845578,0.6270237277790498
1682104762855632,-0.1328755626764324,0.7830319676508735,0.6308079652094305
1682104762871620,-0.12298771648737317,0.794262607766842,0.6337376974135962
1682104762887607,-0.12164492256046389,0.8064698252841991,0.6299534599832155
1682104762903595,-0.12042420080872818,0.7991454947737848,0.6350804913405055
1682104762919582,-0.12359807736324102,0.7792477302204928,0.6242160677500568
1682104762935569,-0.131288624399176,0.7586175326161593,0.6220187685969325
1682104762951557,-0.13153276874952313,0.7499504081788357,0.6106660563057904
1682104762967529,-0.12066834515907532,0.7517814908064393,0.6012664988174254
1682104762983516,-0.11505302510109106,0.7593499656672007,0.611642633707179
1682104762999504,-0.11248950942244607,0.7711909666590371,0.6272678721293969
1682104763015491,-0.10040436408026254,0.7653315022507057,0.6286106660563062
1682104763031479,-0.10614175631342038,0.756420233463035,0.6319066147859926
1682104763047466,-0.08624399176012831,0.7310292210269322,0.6298313878080419
1682104763063453,-0.06683451590753053,0.728831921873808,0.5949187457083998
1682104763079441,-0.04449530785076661,0.7400625619897765,0.5740444037537191
1682104763095428,-0.029602502479590953,0.7267566948958573,0.5862516212710762
1682104763111415,-0.032532234683756656,0.6811017013809417,0.6148165102616918
1682104763127403,-0.03595025558861664,0.6688944838635846,0.6182345311665518
1682104763143390,-0.04571602960250232,0.6851300831616696,0.6134737163347825
1682104763159378,-0.07391470206759765,0.7138170443274587,0.6238498512245361
1682104763175365,-0.09076066224155044,0.7238269626916916,0.6389868009460598
1682104763191352,-0.09820706492713827,0.722850385290303,0.659128709849699
1682104763207340,-0.09857328145265898,0.7265125505455101,0.6889143205920503
1682104763223327,-0.09674219882505541,0.7433585107194629,0.7019760433356224
1682104763239315,-0.09210345616845972,0.7741206988632028,0.717723353933013
1682104763255302,-0.08538948653391332,0.8228274967574576,0.7213855191882201
1682104763271289,-0.09039444571602973,0.8574959945067517,0.7345693141069658
1682104763287292,-0.09991607537956826,0.8640878919661246,0.7539787899595636
1682104763303280,-0.12652780956740672,0.8306401159685661,0.7838864728770885
1682104763319267,-0.11749446860456247,0.8334477759975583,0.7689936675059128
1682104763335254,-0.1211566338597696,0.8292973220416568,0.7774166475928892
1682104763351242,-0.1182269016556039,0.8223392080567633,0.7714351110093842
1682104763367229,-0.1257953765163653,0.8216067750057219,0.7473868925001907
1682104763383216,-0.11847104600595104,0.8256351567864497,0.720286869611658
1682104763399204,-0.11700617990386819,0.821850919356069,0.6934309910734724
1682104763415191,-0.12811474784466315,0.7901121538109406,0.6917219806210424
1682104763431179,-0.1228656443121996,0.7591058213168536,0.6466773479819947
1682104763447166,-0.12774853131914243,0.7421377889677272,0.6234836346990154
1682104763463153,-0.12127870603494317,0.7287098496986344,0.5864957656214234
1682104763479141,-0.10504310673685824,0.718577859159228,0.563546196688792
1682104763495128,-0.09088273441672401,0.7008773937590602,0.5496299687190049
1682104763511116,-0.06536964980544768,0.6941634241245138,0.5551232166018156
1682104763527103,-0.04730296787975874,0.6836652170595867,0.5680628671702141
1682104763543090,-0.0214236667429617,0.692698558022431,0.5893034256504155
1682104763559078,0.010803387502861028,0.7058823529411766,0.6160372320134275
1682104763575065,0.03302052338445094,0.7207751583123523,0.6421606775005726
1682104763591053,0.056946669718470844,0.7306630045014115,0.6532692454413676
1682104763607055,0.06610208285648866,0.7282215609979401,0.6504615854123754
1682104763623043,0.0680552376592658,0.7229724574654766,0.6504615854123754
1682104763639030,0.0663462272068358,0.711741817349508,0.6457007705806062
1682104763655017,0.06756694895857152,0.7014877546349281,0.6448462653543912
1682104763671005,0.05804531929503298,0.7030746929121845,0.6585183489738311
1682104763686992,0.055970092317082276,0.708323796444648,0.659128709849699
1682104763702980,0.04901197833218873,0.7097886625467309,0.6675516899366754
1682104763718967,0.054627298390172996,0.7184557869840544,0.6629129472800797
1682104763734954,0.06317235065232296,0.7394522011139086,0.6792706187533382
1682104763750942,0.07135118638895221,0.7583733882658121,0.682444495307851
1682104763766929,0.08197146562905289,0.7628900587472343,0.6802471961547267
1682104763782917,0.09124895094224428,0.7545891508354314,0.6769512474250403
1682104763798904,0.09442282749675712,0.7434805828946365,0.6878156710154881
1682104763814891,0.09149309529259142,0.7348134584573129,0.7019760433356224
1682104763830879,0.08661020828564858,0.7263904783703365,0.710032806897078
1682104763846866,0.07159533073929936,0.7259021896696423,0.7136949721522852
1682104763862854,0.06573586633096795,0.7295643549248494,0.7127183947508966
1682104763878841,0.0659800106813151,0.725413900968948,0.7029526207370109
1682104763894828,0.05658045319295013,0.7201647974364844,0.6836652170595867
1682104763910816,0.04522774090180803,0.7132066834515909,0.6693827725642789
1682104763926818,0.032410162508583085,0.7080796520943009,0.6625467307545589
1682104763942806,0.024963759822995257,0.7102769512474252,0.6618142977035175
1682104763958793,0.024475471122300974,0.7149156939040209,0.6588845654993518
1682104763974781,0.015442130159456724,0.7183337148088809,0.6793926909285117
1682104763990768,0.010559243152513886,0.7259021896696423,0.6989242389562831
1682104764006755,0.0042114900434881974,0.7302967879758908,0.6981918059052417
1682104764022743,3.0518043793392735E-4,0.7359121080338751,0.6822003509575039
1682104764038730,-0.001037613488975353,0.7312733653772794,0.6644998855573361
1682104764054718,-0.006408789196612474,0.7276112001220723,0.653147173266194
1682104764070705,-0.015442130159456724,0.7291981383993287,0.6508278019378961
1682104764086692,-0.023254749370565264,0.7276112001220723,0.6542458228427561
1682104764102680,-0.030945296406500233,0.7329823758297094,0.6604715037766082
1682104764118667,-0.042908369573510186,0.7399404898146029,0.6592507820248725
1682104764134655,-0.05108720531013944,0.7456778820477608,0.6646219577325096
1682104764150642,-0.062195773250934394,0.7514152742809186,0.671335927367056
1682104764166629,-0.06598001068131554,0.7531242847333486,0.6682841229877168
1682104764182617,-0.06927595941100195,0.7559319447623407,0.6640115968566418
1682104764198604,-0.08184939345387976,0.7569085221637293,0.6553444724193183
1682104764214592,-0.08978408484016187,0.7588616769665064,0.6530251010910204
1682104764230579,-0.091737239642939,0.7655756466010528,0.6587624933241782
1682104764246551,-0.09112687876707115,0.7642328526741435,0.6583962767986575
1682104764262539,-0.08575570305943403,0.7549553673609521,0.6465552758068212
1682104764278526,-0.08514534218356618,0.7498283360036622,0.6321507591363398
1682104764294513,-0.08697642481116974,0.744457160296025,0.6210421911955439
1682104764310501,-0.08551155870908689,0.7376211184863051,0.6222629129472796
1682104764326488,-0.08160524910353262,0.7378652628366522,0.6267795834287027
1682104764342476,-0.07769893949797835,0.7445792324711986,0.6375219348439769
1682104764358463,-0.0879530022125583,0.7493400473029679,0.6538796063172354
1682104764374450,-0.09442282749675757,0.7442130159456779,0.6610818646524761
1682104764390438,-0.08221560997940047,0.7298084992751965,0.6498512245365076
1682104764406425,-0.07806515602349906,0.7222400244144351,0.6261692225528348
1682104764422412,-0.07232776379034123,0.716014343480583,0.6010223544670783
1682104764438400,-0.07196154726482051,0.7110093842984666,0.6060273136491947
1682104764454387,-0.07269398031586194,0.7157701991302359,0.6292210269321741
1682104764470375,-0.06927595941100195,0.7307850766765851,0.6588845654993518
1682104764486362,-0.05743495841916513,0.7488517586022736,0.672190432593271
1682104764502349,-0.06561379415579482,0.7422598611429008,0.6984359502555888
1682104764518337,-0.0733043411917298,0.74531166552224,0.7050278477149616
1682104764534324,-0.08111696040283833,0.7434805828946365,0.708323796444648
1682104764550312,-0.08941786831464116,0.74360265506981,0.7031967650873581
1682104764566314,-0.10406652933546967,0.7434805828946365,0.6937972075989931
1682104764582302,-0.11969176775768675,0.7388418402380408,0.6806134126802474
1682104764598289,-0.13568322270542454,0.7312733653772794,0.6610818646524761
1682104764614277,-0.15008773937590592,0.7256580453192951,0.6439917601281762
1682104764630264,-0.15240711070420376,0.7246814679179066,0.6319066147859926
1682104764646251,-0.14349584191653308,0.717723353933013,0.6254367895017934
1682104764662239,-0.13397421225299455,0.7163805600061037,0.6298313878080419
1682104764678226,-0.12249942778667888,0.7249256122682537,0.645456626230259
1682104764694213,-0.11371023117418178,0.7366445410849165,0.6629129472800797
1682104764710201,-0.10821698329137108,0.7475089646753643,0.6763408865491725
1682104764726188,-0.10296787975890753,0.758129243915465,0.6831769283588924
1682104764742176,-0.10357824063477539,0.7605706874189364,0.6924544136720838
1682104764758163,-0.11175707637140464,0.7545891508354314,0.6955062180514231
1682104764774150,-0.11883726253147175,0.7542229343099107,0.7040512703135731
1682104764790138,-0.12335393301289388,0.7553215838864729,0.7072251468680859
1682104764806125,-0.13275349050125884,0.7636224917982757,0.7063706416418709
1682104764822113,-0.14325169756618594,0.7707026779583428,0.6973373006790267
1682104764838100,-0.1526512550545509,0.7621576256961928,0.6865949492637524
1682104764854087,-0.15008773937590592,0.7410391393911651,0.6688944838635846
1682104764870075,-0.14898908979934378,0.7186999313344016,0.6558327611200125
1682104764886078,-0.14691386282139307,0.7094224460212102,0.654001678492409
1682104764902065,-0.14190890363927666,0.7049057755397881,0.6485084306095983
1682104764918052,-0.14581521324483093,0.7218738078889144,0.6644998855573361
1682104764934040,-0.13653772793163954,0.7172350652323187,0.6693827725642789
1682104764950027,-0.13006790264744028,0.7186999313344016,0.6791485465781646
1682104764966014,-0.127016098268101,0.7212634470130466,0.6870832379644467
1682104764982002,-0.11700617990386819,0.7284657053482873,0.689280537117571
1682104764997989,-0.11322194247348749,0.7335927367055772,0.682444495307851
1682104765013977,-0.11248950942244607,0.7326161593041887,0.6803692683299003
1682104765029964,-0.11371023117418178,0.7216296635385673,0.6675516899366754
1682104765045951,-0.12323186083772031,0.7132066834515909,0.673899443045701
1682104765061939,-0.12018005645838103,0.7169909208819716,0.6768291752498667
1682104765077926,-0.12213321126115817,0.7193102922102694,0.6737773708705275
1682104765093914,-0.12591744869153887,0.7233386739909973,0.6751201647974368
1682104765109901,-0.12884718089570457,0.7267566948958573,0.6770733196002139
1682104765125888,-0.1249408712901503,0.7240711070420387,0.6830548561837189
1682104765141876,-0.1257953765163653,0.7218738078889144,0.6851300831616696
1682104765157863,-0.131288624399176,0.7248035400930801,0.681589990081636
1682104765173851,-0.13385214007782098,0.723704890516518,0.6759746700236517
1682104765189838,-0.13519493400473026,0.7230945296406501,0.6719462882429239
1682104765205841,-0.13263141832608527,0.7218738078889144,0.6709697108415353
1682104765221828,-0.1308003356984817,0.7204089417868316,0.6703593499656675
1682104765237815,-0.130434119172961,0.7157701991302359,0.6696269169146261
1682104765253803,-0.12945754177157243,0.717723353933013,0.6668192568856339
1682104765269790,-0.13995574883649953,0.7234607461661708,0.6703593499656675
1682104765285778,-0.15082017242694734,0.7300526436255437,0.6784161135271232
1682104765301765,-0.1476462958724345,0.7366445410849165,0.6823224231326774
1682104765317752,-0.13775844968337525,0.7338368810559244,0.6728007934691389
1682104765333740,-0.1342183566033417,0.7289539940489815,0.6621805142290382
1682104765349727,-0.13617151140611883,0.7190661478599223,0.6603494316014347
1682104765365715,-0.13812466620889596,0.7152819104295416,0.6627908751049061
1682104765381702,-0.13055619134813456,0.7180895704585337,0.6654764629587246
1682104765397689,-0.1388570992599374,0.7232166018158237,0.6597390707255668
1682104765413677,-0.14142061493858238,0.7261463340199894,0.6586404211490047
1682104765429664,-0.13348592355230027,0.720286869611658,0.6558327611200125
1682104765445652,-0.12970168612191957,0.7193102922102694,0.6580300602731368
1682104765461639,-0.1249408712901503,0.7361562523842222,0.6594949263752197
1682104765477626,-0.12018005645838103,0.7584954604409857,0.6519264515144583
1682104765493614,-0.12335393301289388,0.7592278934920271,0.6934309910734724
1682104765509601,-0.11541924162661177,0.718577859159228,0.6863508049134053
1682104765525573,-0.1077286945906768,0.7310292210269322,0.6898908979934388
1682104765541561,-0.10565346761272609,0.7361562523842222,0.6895246814679181
1682104765557548,-0.10968184939345393,0.7221179522392616,0.6861066605630581
1682104765573536,-0.11786068513008319,0.7394522011139086,0.6947737850003817
1682104765589523,-0.07965209430075548,0.7189440756847487,0.6759746700236517
1682104765605510,-0.10406652933546967,0.7680170901045242,0.6406958113984897
1682104765621498,-0.13690394445716025,0.8343022812237733,0.6897688258182653
1682104765637485,-0.13824673838406953,0.8157473105973905,0.8417486839093611
1682104765653473,-0.12262149996185245,0.733104448004883,0.7431143663691158
1682104765669460,-0.15191882200350948,0.7111314564736402,0.6929427023727781
1682104765685447,-0.14373998626688023,0.7291981383993287,0.7133287556267645
1682104765701435,-0.16473640039673443,0.854566262302586,0.7400625619897765
1682104765717422,-0.20172426947432687,0.6668192568856339,0.7591058213168536
1682104765733410,-0.11480888075074391,0.7785152971694513,0.8544441901274125
1682104765749397,-0.05926604104676869,0.7089341573205159,0.7172350652323187
1682104765765384,-0.1569237811856259,0.8183108262760355,0.6614480811779968
1682104765781372,-0.1669336995498587,0.8500495918211639,0.6778057526512553
1682104765797359,-0.09527733272297256,0.8808117799649047,0.6889143205920503
1682104765813346,-0.15826657511253517,0.821850919356069,0.7068589303425652
1682104765829334,-0.12188906691081103,0.8151369497215226,0.6300755321583891
1682104765845337,-0.1316548409246967,0.9081559472037846,0.5266803997863736
1682104765861324,-0.11187914854657821,0.8710460059510181,0.6316624704356455
1682104765877311,-0.09869535362783255,0.8057373922331577,0.6206759746700232
1682104765893299,0.0014038300144960658,0.8637216754406039,0.5307087815671014
1682104765909286,-0.009094377050431035,0.8048828870069427,0.581490806439307
1682104765925274,-0.11981383993286032,0.7542229343099107,0.7338368810559244
1682104765941261,-0.024719615472648115,0.8505378805218582,0.797680628671702
1682104765957248,0.013000686655985305,0.716868848706798,0.8220950637064162
1682104765973236,0.050598916609445155,0.6615701533531704,0.7508049134050507
1682104765989223,0.025696192874036683,0.728831921873808,0.8876478217746246
1682104766005211,0.05877775234607441,0.7036850537880524,0.7500724803540093
1682104766021198,0.08245975432974717,0.794262607766842,0.5069047074082551
1682104766037185,0.2191805905241475,0.7044174868390938,0.5939421683070112
1682104766053173,0.0663462272068358,0.7497062638284886,0.5112993057145037
1682104766069160,0.0038452735179674846,0.7335927367055772,0.5868619821469441
1682104766085147,0.007263294422827471,0.6299534599832155,0.7273670557717251
1682104766101135,0.04510566872663446,0.6768291752498667,0.7753414206149385
1682104766117122,0.1389791714351114,0.6261692225528348,0.7880369268329899
1682104766133110,0.18890669108110192,0.5866178377965969,0.7492179751277943
1682104766149097,0.1860990310521098,0.7273670557717251,0.6655985351338982
1682104766165100,0.30719462882429216,0.4434271763179982,0.7388418402380408
1682104766181087,0.3770199130235756,0.4549019607843139,0.7371328297856108
1682104766197075,0.32233157854581496,0.4363469901579311,0.7201647974364844
1682104766213062,0.2783855954833294,0.4968947890440223,0.6486305027847719
1682104766229049,0.3134203097581443,0.31866941329060783,0.6826886396581981
1682104766245037,0.30084687571526647,0.3192797741664757,0.6665751125352868
1682104766261024,0.30304417486839075,0.37811856260013776,0.6253147173266198
1682104766277011,0.31354238193331785,0.39044785229266843,0.5969939726863505
1682104766292999,0.3081712062256807,0.42694743266956614,0.5842984664682991
1682104766308986,0.28827344167238866,0.44501411459525464,0.5905241474021512
