Timestamp (microseconds),Gyro X (°/s),Gyro Y (°/s),Gyro Z (°/s)
1682104740903991,-9.323262378881509,92.33234149690998,73.28908216983291
1682104740919989,-2.7924010070954637,91.96612497138926,65.01869230182342
1682104740935986,98.28336003662184,112.19958800640893,50.55313954375538
1682104740951984,49.02723735408563,89.79934386205832,64.13366903181509
1682104740967981,22.537575341420506,73.83840695811386,58.24368657969035
1682104740983978,16.617074845502316,58.60990310521106,46.799420157168015
1682104740999976,8.499275196459848,39.96337834744804,44.754711223010645
1682104741015973,-2.761882963302014,23.758297093156216,44.90730144197755
1682104741031971,0.22888532845047393,10.879682612344482,36.20965896086068
1682104741047968,1.5716792553597543,4.623483634699028,27.176317998016202
1682104741063965,-5.1117723353933116,6.759746700236519,18.844892042420042
1682104741079963,-5.2338445105668825,2.853437094682249,17.959868772411596
1682104741095960,-5.600061036087595,-2.9449912260623705,21.225299458304676
1682104741111958,-7.1869993133440175,-8.926527809567347,22.171358815899794
1682104741127955,-8.529793240253298,-11.795223926146264,23.72777904936288
1682104741143952,-7.705806057831637,-17.19691767757695,23.666742961776094
1682104741159950,-1.2970168612191628,-22.4460212100405,18.112458991378617
1682104741175947,1.6327153429465397,-26.99320973525596,13.015945677881973
1682104741191945,4.715037766079149,-35.50774395361259,4.745555809872599
1682104741207942,16.281376363775053,-41.30617227435721,-12.00885023270007
1682104741223938,39.566643778133994,-39.353017471580074,-28.48859388113226
1682104741239935,62.97398336766605,-25.192645151445845,-42.34378576333256
1682104741255932,76.73762111848623,-7.827878233005208,-43.13725490196077
1682104741271930,64.25574120698866,9.628442816815436,-34.25650415808343
1682104741287927,17.868314641031475,14.206149385824347,-20.950637064164198
1682104741303925,6.0578316929884295,11.001754787518053,-7.3090714885175885
1682104741319922,-18.448157473105994,-2.334630350194516,-5.966277561608308
1682104741335919,-17.86831464103159,-17.746242465858018,-30.655374990463088
1682104741351917,-22.476539253833835,-21.560997940032053,-46.7994201571679
1682104741367914,-34.71427481498438,-19.18059052414742,-57.572289616235594
1682104741383912,-49.912260624094074,-7.461661707484495,-51.40764476997026
1682104741399909,-71.79369802395661,10.055695429922935,-44.81574731059732
1682104741415907,-82.29190508888382,20.248722056916108,-51.224536507209905
1682104741431904,-85.9845883878844,30.71641107804976,-59.159227893492016
1682104741447901,-86.93064774547952,37.97970550087757,-78.416113527123
1682104741463899,-84.79438467994203,48.17273212787063,-92.66803997863735
1682104741479896,-77.01228351262682,59.342336156252486,-91.38628213931486
1682104741495894,-71.27489127946899,70.81712062256815,-76.0051880674448
1682104741511891,-86.80857557030595,66.69718471046008,-61.41756313420308
1682104741527888,-78.59922178988336,60.440985732814624,-67.49065384908829
1682104741543853,-52.75043869687954,54.52048523689632,-80.03356984817276
1682104741559851,-18.570229648279565,60.99031052109558,-74.66239414053553
1682104741575848,-13.748378728923399,66.69718471046008,-48.538948653391344
1682104741591846,-11.734187838559478,55.710688944838694,-39.81078812848091
1682104741607843,32.36438544289331,50.49210345616848,-30.77744716563666
1682104741623840,50.49210345616848,106.614785992218,12.893873502708402
1682104741639838,-42.86259250782018,53.45235370412752,123.8269626916915
1682104741655835,-21.10322728313122,23.086900129701576,78.53818570229646
1682104741671833,76.27985046158528,48.844129091325385,55.49706263828489
1682104741687830,88.97535667963666,67.24650949874103,54.58152132448322
1682104741703827,41.00099183642328,61.53963530937676,53.29976348516061
1682104741719825,59.678034637979636,61.905851834897476,42.6489662012666
1682104741735822,32.9442282749676,22.90379186694122,98.22232394903494
1682104741751820,-2.883955138475585,14.053559166857326,133.50118257419695
1682104741767817,-29.28206301976047,-5.416952773327239,100.32806897077899
1682104741783815,-26.260776684214534,-31.998168917372368,17.990386816205046
1682104741799812,9.079118028534367,-23.575188830395973,-6.546120393682713
1682104741815809,12.00885023270007,5.966277561608308,-17.105363546196713
1682104741831807,28.73273823147929,9.109636072327703,14.57236591134506
1682104741847804,41.79446097505161,25.040054932478824,90.9895475700007
1682104741863617,63.27916380560009,43.83916990920898,104.78370336461444
1682104741879613,71.54955367360958,39.26146334019995,78.66025787747003
1682104741895609,56.01586938277251,10.66605630579079,57.877470054169635
1682104741911606,39.810788128481136,7.797360189211872,3.006027313649156
1682104741927602,32.85267414358759,14.908064393072323,-24.063477531090257
1682104741943599,20.675974670023606,16.495002670328745,-24.185549706263828
1682104741959595,-8.22461280231937,27.05424582284263,-35.17204547188521
1682104741975592,-25.89456015869382,22.415503166246936,-51.804379339284424
1682104741991588,-121.23292896925307,91.50835431448832,-45.7312886243991
1682104742007585,-85.52681773098345,92.94270237277783,-45.45662623025862
1682104742023581,-66.39200427252615,97.58144502937375,-50.553139543755265
1682104742039578,-82.59708552681775,151.23216601815807,-74.84550240329588
1682104742055574,-77.83627069504837,190.08163576714742,-87.47997253376059
1682104742071570,-51.56023498893728,148.21087968261236,-82.84122987716489
1682104742087567,-14.328221560997918,79.17906462195765,-72.31250476844434
1682104742103563,16.952773327229693,36.08758678568711,-69.01655603875793
1682104742119560,28.641184100099053,34.378576333257115,-90.22659647516593
1682104742135556,44.02227817196922,12.588693064774475,-134.35568780041194
1682104742151553,69.38277256427864,-15.579461356526963,-153.3684290836958
1682104742167549,37.36934462500972,51.16350041962323,-140.2456702525368
1682104742183410,44.235904478523025,55.74120698863203,-113.57289997711155
1682104742199406,45.21248187991159,51.25505455100324,-92.60700389105057
1682104742215402,42.832074464026846,47.34874494544897,-90.74540321965367
1682104742231398,38.95628290226614,45.24299992370493,-86.47287708857868
1682104742247394,27.542534523536915,35.41618982223258,-71.06126497291518
1682104742263390,16.70862897688255,14.358739604791253,-54.4289311055162
1682104742279386,6.515602349889377,7.278553444724139,-48.142214084077295
1682104742295382,13.473716334782921,18.112458991378617,-49.210345616845984
1682104742311378,21.866178377965866,-5.1117723353933116,-45.54818036163874
1682104742327374,25.46730754558621,-9.872587167162578,-25.3757534142062
1682104742343370,31.052109559777136,3.7079423208972457,-3.372243839169869
1682104742359366,22.171358815899794,30.228122377355476,31.78454261081879
1682104742375362,0.045777065690117524,40.5737392233159,75.73052567330433
1682104742391358,-25.528343633173108,34.19546807049687,95.963988708324
1682104742407354,-34.83634699015795,12.069886320286855,97.09315632867947
1682104742423350,-28.793774319066188,-45.120927748531244,98.9852750438697
1682104742439346,50.705729762722285,-146.34927901121546,82.26138704509026
1682104742455342,88.2124055848019,-91.69146257724879,81.86465247577621
1682104742471338,-33.9513237201495,4.623483634699028,100.41962310215922
1682104742487334,-36.48432135500116,-2.9144731822690346,57.54177157244226
1682104742503173,48.75257495994515,-55.37499046311132,12.375066758220783
1682104742519169,58.73197528038463,-48.661020828564915,8.438239108873063
1682104742535164,18.295567254138973,-11.795223926146264,15.793087663080769
1682104742551160,-21.07270923933777,49.97329671168086,20.06561379415575
1682104742567155,-52.32318608377204,79.24010070954455,20.157167925535873
1682104742583151,-33.127336537727956,71.88525215533673,10.910200656137931
1682104742599146,-21.86617837796598,64.95765621423675,5.905241474021523
1682104742615142,-22.018768596933,65.87319752803842,8.529793240253298
1682104742631137,-23.605706874189423,71.24437323567554,12.954909590295188
1682104742647133,-28.45807583733881,67.06340123598079,13.168535896848994
1682104742663128,-34.65323872739759,56.68726634622726,-2.731364919508678
1682104742679124,-25.711451895933465,46.76890211337468,-24.55176623178454
1682104742695119,-12.64972915236126,41.27565423056399,-27.298390173189887
1682104742711115,-9.781033035782343,33.981841763943066,-13.931486991683755
1682104742727110,-13.687342641336613,38.406958113984956,-0.07629510948345342
1682104742743106,-13.839932860303634,43.472953383688264,2.9144731822690346
1682104742759101,-5.386434729533789,42.374303807126125,1.144426642252256
1682104742775097,-3.0365453574426056,38.681620508125434,-2.3651483939879654
1682104742791092,-2.9449912260623705,30.991073472190237,-4.135194934004744
1682104742807088,-6.851300831616641,22.415503166246936,-2.9144731822690346
1682104742822937,1.266498817425827,12.741283283741495,-3.4027618829633184
1682104742838932,7.248035400930803,16.525520714122194,0.015259021896667946
1682104742854927,8.651865415426869,23.60570687418931,6.9733730067902115
1682104742870922,11.917296101319835,13.565270466163042,15.640497444113748
1682104742886917,14.54184786755161,-2.212558175020945,26.321812771801206
1682104742902912,3.0365453574426056,-17.471580071717426,25.680933852140015
1682104742918907,-31.0215915159838,-7.614251926451516,26.138704509040963
1682104742934902,-68.80292973220412,32.394903486686644,28.58014801251238
1682104742950897,-66.11734187838556,32.30334935530641,39.44457160296042
1682104742966892,-45.120927748531244,8.041504539559014,55.649652857251795
1682104742982887,6.301976043335571,-26.749065384908818,43.96124208438255
1682104742998882,3.250171663996298,-50.27847714961479,17.563134203097547
1682104743014877,-8.712901503013654,-50.73624780651562,13.748378728923399
1682104743030872,-1.5411612115663047,-73.96047913328755,17.77676050965124
1682104743046867,6.515602349889377,-62.272068360418075,14.358739604791253
1682104743062862,8.438239108873063,-32.57801174944689,9.506370641641865
1682104743078857,37.582970931563295,-41.18410009918364,9.109636072327703
1682104743094852,86.80857557030595,-107.22514686808574,9.903105210955914
1682104743110847,49.66811627374682,-91.0505836575876,4.409857328145222
1682104743126842,-42.61844815747304,59.739070725566535,16.769665064469336
1682104743142669,-12.771801327534831,5.203326466773433,9.872587167162578
1682104743158663,-3.2806897077897474,2.0294499122605885,3.768978408484031
1682104743174657,4.1962310215915295,-1.7242694743266611,0.8087281605248791
1682104743190652,11.886778057526499,1.8768596932936816,-0.2594033722438098
1682104743206646,21.68307011520551,6.0578316929884295,2.9144731822690346
1682104743222640,15.182726787212914,12.741283283741495,11.764705882352928
1682104743238634,8.346684977492941,14.511329823758274,10.543984130617218
1682104743254628,-8.041504539559014,8.1025406271458,6.179903868162
1682104743270622,-20.035095750362416,1.5716792553597543,2.9144731822690346
1682104743286616,-22.629129472800855,1.937895780880467,3.8300144960708167
1682104743302610,-23.8803692683299,2.9144731822690346,9.781033035782343
1682104743318604,-23.697261005569544,4.86762798504617,18.112458991378617
1682104743334598,-29.1599908445869,8.682383459220205,23.117418173495025
1682104743350592,-38.07125963225758,21.194781414511226,23.086900129701576
1682104743366586,-31.662470435645105,21.13374532692444,19.577325093461468
1682104743382580,-17.99038681620516,15.671015487907198,16.00671396963446
1682104743398574,-2.2735942626077303,9.9641412985427,10.879682612344482
1682104743414569,5.50850690470736,8.804455634393776,8.377203021286277
1682104743430563,11.673151750972693,4.715037766079149,8.255130846112706
1682104743446557,17.1053635461966,2.5177386129548722,10.208285648889841
1682104743462432,14.114595254444112,3.1586175326161765,10.605020218204004
1682104743478426,13.473716334782921,3.3112077515830833,10.66605630579079
1682104743494420,9.689478904402222,4.531929503318793,11.245899137865194
1682104743510413,4.379339284351886,6.424048218509142,11.825741969939713
1682104743526407,0.2594033722438098,8.560311284046634,12.039368276493406
1682104743542400,3.219653620202962,9.658960860608772,10.879682612344482
1682104743558394,12.00885023270007,9.750514991989007,8.89600976577401
1682104743574388,15.457389181353392,10.63553826199734,6.88181887541009
1682104743590381,10.330357824063412,12.039368276493406,5.630579079880931
1682104743606375,11.062790875104838,11.42900740062555,7.492179751277945
1682104743622368,14.633401998931845,9.872587167162578,7.3090714885175885
1682104743638362,13.290608072022565,11.764705882352928,8.316166933699492
1682104743654356,2.3651483939879654,16.43396658274196,12.161440451666977
1682104743670349,-4.1962310215915295,20.279240100709444,12.283512626840547
1682104743686343,-9.56740672922865,24.2465857938505,8.804455634393776
1682104743702336,-23.025864042114904,35.29411764705901,15.030136568245894
1682104743718330,-21.133745326924554,33.737697413595924,11.85626001373305
1682104743734324,-7.492179751277945,26.81010147249549,8.133058670939135
1682104743750317,-1.6021972991530902,20.767528801403728,6.179903868162
1682104743766311,-7.583733882658066,19.729915312428375,5.661097123674381
1682104743782257,-14.755474174105416,20.126649881742537,6.546120393682713
1682104743798250,-13.412680247196135,18.936446173800164,4.654001678492364
1682104743814244,-10.452429999236983,18.02090485999838,2.4872205691615363
1682104743830237,-3.799496452277367,16.15930418860148,1.2970168612191628
1682104743846231,-1.2054627298390415,14.816510261692201,0.015259021896667946
1682104743862225,0.7476920729380936,12.68024719615471,-0.9002822919051141
1682104743878218,8.560311284046634,8.529793240253298,-0.045777065690117524
1682104743894212,7.431143663691159,6.2714579995422355,0.5645838101777372
1682104743910205,0.5340657663844013,7.034409094376997,0.2594033722438098
1682104743926199,-6.546120393682713,7.40062561989771,2.090485999847374
1682104743942193,-16.556038757915644,5.813687342641288,4.1046768902112944
1682104743958186,-13.90096894789042,2.639810788128443,4.592965590905578
1682104743974180,-1.4496070801861833,-2.1515220874341594,3.555352101930225
1682104743990173,5.416952773327239,-4.440375371938671,3.219653620202962
1682104744006167,1.3885709925993979,-4.531929503318793,1.4496070801861833
1682104744022161,6.2714579995422355,-5.386434729533789,-0.4730296787976158
1682104744038154,14.114595254444112,-6.912336919203426,-0.9918364232852355
1682104744054148,5.447470817120575,-5.447470817120575,-4.074158846417959
1682104744070141,-1.3275349050126124,-3.9826047150377235,-7.522697795071281
1682104744086135,6.1493858243686645,-7.125963225757232,-7.125963225757232
1682104744101959,11.367971313038765,-8.77393759060044,-3.891050583657602
1682104744117951,6.9733730067902115,-8.1025406271458,-3.891050583657602
1682104744133944,3.6163881895170107,-9.018081940947582,-9.811551079575793
1682104744149937,6.454566262302592,-7.644769970244852,-11.734187838559478
1682104744165929,9.99465934233615,-8.74341954680699,-12.68024719615471
1682104744181922,13.260090028229115,-8.07202258335235,-9.231708247501274
1682104744197915,16.372930495155174,-9.29274433508806,-8.62134737163342
1682104744213907,19.455252918287897,-9.353780422674845,-6.851300831616641
1682104744229900,15.060654612039343,-7.644769970244852,-6.0578316929884295
1682104744245893,6.72922865644307,-5.050736247806526,-6.668192568856284
1682104744261885,4.501411459525457,-3.9826047150377235,-8.163576714732585
1682104744277878,4.684519722285813,-3.6163881895170107,-9.048599984740918
1682104744293871,2.7924010070954637,-1.4190890363927338,-10.08621347371627
1682104744309863,1.266498817425827,0.3509575036240449,-10.696574349584125
1682104744325856,0.16784924086368846,1.5716792553597543,-10.147249561303056
1682104744341848,-2.0294499122605885,2.548256656748322,-9.384298466468294
1682104744357841,-1.8768596932936816,2.334630350194516,-8.590829327840083
1682104744373834,1.6021972991530902,1.2054627298390415,-8.010986495765565
1682104744389826,3.891050583657602,-0.3509575036240449,-7.1869993133440175
1682104744405819,2.1210040436408235,0.19836728465702436,-6.118867780575215
1682104744421722,0.38147554741738077,-0.106813153276903,-5.752651255054502
1682104744437715,3.097581445029391,-1.0833905546654705,-4.989700160219741
1682104744453707,8.22461280231937,-2.334630350194516,-5.264362554360218
1682104744469700,8.651865415426869,-2.6092927443351073,-6.2714579995422355
1682104744485693,9.048599984740918,-2.853437094682249,-6.576638437476163
1682104744501685,11.520561532005786,-3.9826047150377235,-5.600061036087595
1682104744517678,10.513466086823769,-3.5248340581368893,-4.806591897459384
1682104744533671,7.339589532310924,-2.6703288319218927,-4.287785152971651
1682104744549663,7.217517357137353,-3.250171663996298,-4.806591897459384
1682104744565656,3.0365453574426056,-3.1891355764095124,-5.905241474021523
1682104744581648,2.5787747005416577,-2.8229190508887996,-6.668192568856284
1682104744597641,5.844205386434737,-3.7079423208972457,-6.759746700236519
1682104744613634,2.7008468757152286,-2.883955138475585,-7.858396276798658
1682104744629626,0.3509575036240449,-2.2735942626077303,-8.1025406271458
1682104744645619,4.1046768902112944,-3.2806897077897474,-6.912336919203426
1682104744661612,4.959182116426291,-3.8605325398641526,-5.53902494850081
1682104744677604,0.7171740291447577,-2.9449912260623705,-4.623483634699028
1682104744693597,-3.219653620202962,-2.3956664377813013,-4.043640802624509
1682104744709590,-4.470893415732007,-2.0294499122605885,-4.287785152971651
1682104744725582,-4.287785152971651,-1.4496070801861833,-4.226749065384865
1682104744741485,-3.219653620202962,-1.3885709925993979,-3.7384603646905816
1682104744757477,-3.585870145723675,-0.9002822919051141,-3.5248340581368893
1682104744773470,-4.592965590905578,-0.2594033722438098,-2.97550926985582
1682104744789462,-2.883955138475585,-0.9002822919051141,-2.212558175020945
1682104744805454,-0.6866559853513081,-1.7242694743266611,-1.144426642252256
1682104744821446,2.2735942626077303,-2.3651483939879654,-0.22888532845047393
1682104744837438,5.325398641947004,-2.5787747005416577,1.144426642252256
1682104744853430,4.440375371938671,-2.090485999847374,2.1210040436408235
1682104744869423,-1.2054627298390415,-0.5340657663844013,3.6163881895170107
1682104744885415,-7.1869993133440175,1.1139085984588064,3.3112077515830833
1682104744901407,-12.954909590295188,2.3651483939879654,1.052872510872021
1682104744917399,-12.344548714427333,1.937895780880467,0.5340657663844013
1682104744933391,-7.156481269550568,0.2594033722438098,0.41199359121083035
1682104744949383,-4.379339284351886,-0.3509575036240449,0.5035477225909517
1682104744965376,-4.623483634699028,-0.44251163500416624,0.8392462043183286
1682104744981368,-4.806591897459384,-0.41199359121083035,0.6256198977645226
1682104744997360,-5.081254291599862,-0.19836728465702436,0.106813153276903
1682104745013352,-6.21042191195545,0.5645838101777372,-0.38147554741738077
1682104745029344,-5.203326466773433,0.6256198977645226,-0.5340657663844013
1682104745045336,-3.6163881895170107,0.19836728465702436,0.22888532845047393
1682104745061279,-4.440375371938671,0.9002822919051141,0.7476920729380936
1682104745077271,-2.6092927443351073,0.6866559853513081,0.93080033569845
1682104745093262,-0.6561379415579722,0.93080033569845,-0.16784924086368846
1682104745109254,1.266498817425827,1.5411612115663047,-1.266498817425827
1682104745125246,3.921568627450938,1.3275349050126124,-2.182040131227609
1682104745141237,5.905241474021523,1.022354467078685,-2.426184481574751
1682104745157229,7.0954451819637825,1.266498817425827,-2.1515220874341594
1682104745173221,5.661097123674381,1.7853055619134466,-2.639810788128443
1682104745189212,8.865491721980561,1.4190890363927338,-3.768978408484031
1682104745205204,13.809414816510184,0.8087281605248791,-4.592965590905578
1682104745221196,17.1053635461966,1.8768596932936816,-4.928664072632955
1682104745237187,21.80514229037908,1.1749446860455919,-7.003891050583661
1682104745253179,25.619897764553116,-0.9002822919051141,-9.048599984740918
1682104745269171,25.040054932478824,-0.41199359121083035,-8.468757152666512
1682104745285163,25.223163195239067,-0.6561379415579722,-6.637674525062948
1682104745301154,25.375753414205974,-0.22888532845047393,-3.891050583657602
1682104745317146,24.460212100404306,1.9989318684672526,-1.3580529488059483
1682104745333138,23.14793621728836,3.799496452277367,0.8392462043183286
1682104745349129,18.905928130006828,4.3183031967651,1.7547875181201107
1682104745365121,15.060654612039343,2.1515220874341594,1.9989318684672526
1682104745381012,14.938582436865772,-1.4190890363927338,0.015259021896667946
1682104745397003,22.201876859693243,-4.898146028839506,0.07629510948345342
1682104745412995,34.8668650339514,-5.661097123674381,-4.013122758831173
1682104745428987,39.07835507743971,-3.677424277103796,-4.715037766079149
1682104745444978,29.098954757,-7.766842145418423,-3.4943160143434397
1682104745460970,22.23239490348658,-23.20897230487526,-1.7853055619134466
1682104745476962,21.530479896238603,-15.732051575494097,-8.77393759060044
1682104745492953,22.110322728313008,-11.581597619592571,-11.184863050278409
1682104745508945,17.92935072861826,-12.558175020981139,-14.236667429617683
1682104745524937,11.97833218890662,-20.706492713817056,-24.765392538338347
1682104745540928,8.77393759060044,-21.591515983825502,-30.869001297016894
1682104745556920,11.33745326924543,-21.530479896238717,-26.169222552834412
1682104745572912,10.849164568551146,-23.605706874189423,-20.157167925535987
1682104745588904,10.66605630579079,-21.622034027618838,-17.1663996337835
1682104745604895,11.33745326924543,-18.20401312275885,-13.260090028229115
1682104745620887,10.360875867856862,-13.076981765468759,-8.194094758525921
1682104745636879,9.842069123369129,-8.74341954680699,-7.125963225757232
1682104745652870,8.133058670939135,-5.569542992294146,-1.6937514305333252
1682104745668862,8.804455634393776,-1.6632333867398756,4.654001678492364
1682104745684854,16.617074845502316,1.052872510872021,11.825741969939713
1682104745700775,24.36865796902407,-1.1749446860455919,14.69443808651863
1682104745716766,22.171358815899794,-2.3651483939879654,20.157167925535873
1682104745732757,11.30693522545198,-12.222476539253762,24.032959487296694
1682104745748748,4.135194934004744,-14.114595254444112,19.91302357518873
1682104745764740,2.090485999847374,-18.692301823453136,15.640497444113748
1682104745780731,2.30411230640118,-16.586556801709094,14.328221560997918
1682104745796722,1.1139085984588064,-16.556038757915644,14.69443808651863
1682104745812713,-2.9144731822690346,-21.98825055313955,11.123826962691624
1682104745828704,-8.529793240253298,-22.873273823147997,3.8605325398641526
1682104745844696,-12.100404364080191,-22.507057297627284,-0.6256198977645226
1682104745860687,-11.367971313038765,-15.915159838254453,1.0833905546654705
1682104745876678,-8.590829327840083,-12.039368276493406,-1.8768596932936816
1682104745892669,-11.33745326924543,-3.341725795376533,-8.529793240253298
1682104745908661,-15.36583504997327,-5.0202182040130765,-11.154345006485073
1682104745924652,-16.037232013428024,-0.7171740291447577,-7.949950408178779
1682104745940643,-15.304798962386485,1.1749446860455919,-6.424048218509142
1682104745956634,-14.877546349278987,2.4567025253680868,-3.9826047150377235
1682104745972625,-17.593652246890997,5.264362554360218,0.9002822919051141
1682104745988617,-17.53261615930421,5.355916685740453,1.144426642252256
1682104746004608,-16.952773327229806,6.668192568856284,4.3183031967651
1682104746020538,-14.69443808651863,5.0202182040130765,8.74341954680699
1682104746036529,-10.391393911650198,5.722133211261166,12.100404364080191
1682104746052520,-5.386434729533789,5.53902494850081,14.66392004272518
1682104746068512,-2.639810788128443,6.790264744029855,19.485770962081233
1682104746084503,-7.919432364385443,5.355916685740453,22.690165560387527
1682104746100494,-21.286335545891575,-2.090485999847374,18.936446173800164
1682104746116485,-28.61066605630583,-7.949950408178779,13.534752422369706
1682104746132476,-24.765392538338347,-9.628442816815436,12.497138933394353
1682104746148468,-18.722819867246585,-9.353780422674845,14.267185473411132
1682104746164459,-9.536888685435201,-9.872587167162578,14.969100480659108
1682104746180450,-1.7853055619134466,-8.163576714732585,13.534752422369706
1682104746196441,0.6561379415579722,-10.513466086823769,12.68024719615471
1682104746212432,1.7242694743266611,-11.734187838559478,12.405584802014118
1682104746228424,4.684519722285813,-12.100404364080191,10.605020218204004
1682104746244415,6.607156481269499,-12.252994583047212,9.262226291294724
1682104746260406,6.301976043335571,-12.039368276493406,6.820782787823305
1682104746276397,5.874723430228073,-10.78812848096436,3.555352101930225
1682104746292389,9.384298466468294,-7.766842145418423,1.0833905546654705
1682104746308380,9.933623254749364,-5.1117723353933116,1.4496070801861833
1682104746324371,9.018081940947582,-5.752651255054502,2.9449912260623705
1682104746340301,5.416952773327239,-5.569542992294146,5.325398641947004
1682104746356292,-1.937895780880467,-5.386434729533789,8.133058670939135
1682104746372283,-7.766842145418423,-9.842069123369129,7.248035400930803
1682104746388273,-9.597924773021987,-10.025177386129485,3.0670634012359415
1682104746404264,-12.13092240787364,-11.734187838559478,0.9918364232852355
1682104746420255,-13.412680247196135,-12.314030670633997,-0.5951018539711868
1682104746436246,-7.675288014038301,-8.89600976577401,-3.097581445029391
1682104746452236,-4.592965590905578,-1.052872510872021,-2.182040131227609
1682104746468227,-8.010986495765565,1.846341649500232,-0.9002822919051141
1682104746484218,-11.520561532005786,7.248035400930803,-1.5106431677729688
1682104746500208,-13.35164415960935,10.78812848096436,-3.372243839169869
1682104746516199,-14.602883955138395,14.66392004272518,-3.7079423208972457
1682104746532190,-14.450293736171488,14.938582436865772,-1.7242694743266611
1682104746548181,-15.396353093766606,13.839932860303634,1.4190890363927338
1682104746564171,-16.09826810101481,12.68024719615471,4.562447547112242
1682104746580162,-18.2345311665523,9.9641412985427,7.156481269550568
1682104746596153,-20.492866407263364,4.86762798504617,9.9641412985427
1682104746612144,-20.309758144503007,1.052872510872021,13.412680247196135
1682104746628134,-16.86121919584957,0.7782101167315432,16.15930418860148
1682104746644125,-14.938582436865772,1.5716792553597543,17.38002594033719
1682104746660034,-17.44106202792409,1.6632333867398756,19.638361181048253
1682104746676025,-25.314717326619416,1.2359807736323773,22.47653925383372
1682104746692015,-31.509880216678084,3.3112077515830833,22.110322728313008
1682104746708006,-30.746929121843323,6.820782787823305,17.593652246890883
1682104746723997,-24.765392538338347,11.795223926146264,11.33745326924543
1682104746739987,-14.358739604791253,17.22743572137017,9.781033035782343
1682104746755978,-8.041504539559014,19.11955443656052,10.299839780270077
1682104746771969,-10.299839780270077,20.523384451056586,9.903105210955914
1682104746787960,-22.56809338521407,16.03723201342791,10.269321736476627
1682104746803950,-31.113145647364036,13.626306553749828,10.11673151750972
1682104746819941,-29.312581063553807,11.886778057526499,9.170672159914488
1682104746835932,-23.666742961776208,11.33745326924543,9.018081940947582
1682104746851923,-19.42473487449456,10.177767605096506,9.231708247501274
1682104746867913,-18.020904859998495,9.506370641641865,8.865491721980561
1682104746883904,-15.94567788204779,11.276417181658644,5.813687342641288
1682104746899895,-15.762569619287433,10.238803692683291,0.7171740291447577
1682104746915886,-15.609979400320412,5.416952773327239,-3.677424277103796
1682104746931876,-13.656824597543277,0.41199359121083035,-6.820782787823305
1682104746947867,-11.947814145113284,-3.2806897077897474,-11.093308918898288
1682104746963858,-9.536888685435201,-4.470893415732007,-14.419775692378039
1682104746979828,-4.928664072632955,-4.776073853665935,-15.091172655832679
1682104746995818,0.5645838101777372,-3.3112077515830833,-14.358739604791253
1682104747011808,3.0670634012359415,-2.426184481574751,-14.724956130311966
1682104747027798,0.8697642481116645,-7.0954451819637825,-17.257953765163734
1682104747043789,-2.1210040436408235,-7.705806057831637,-18.020904859998495
1682104747059779,-2.4872205691615363,-7.55321583886473,-17.257953765163734
1682104747075769,-1.5716792553597543,-7.125963225757232,-17.227435721370284
1682104747091759,0.106813153276903,-7.736324101625087,-14.328221560997918
1682104747107750,1.2970168612191628,-6.027313649195094,-9.842069123369129
1682104747123740,2.0294499122605885,-4.745555809872599,-9.29274433508806
1682104747139730,0.3509575036240449,-4.989700160219741,-10.727092393377575
1682104747155720,-1.0833905546654705,-6.21042191195545,-10.605020218204004
1682104747171711,1.1139085984588064,-3.921568627450938,-9.079118028534367
1682104747187701,3.463797970550104,-0.93080033569845,-7.705806057831637
1682104747203691,3.3112077515830833,0.5035477225909517,-7.217517357137353
1682104747219681,-1.052872510872021,-1.1139085984588064,-5.0202182040130765
1682104747235672,-7.888914320591994,-4.1046768902112944,-1.5716792553597543
1682104747251662,-11.154345006485073,-2.7924010070954637,-0.16784924086368846
1682104747267652,-8.499275196459848,1.1749446860455919,0.3204394598305953
1682104747283642,-3.3112077515830833,2.639810788128443,1.7547875181201107
1682104747299591,-0.44251163500416624,2.1515220874341594,2.7008468757152286
1682104747315581,-1.9989318684672526,-0.6256198977645226,0.07629510948345342
1682104747331571,-8.133058670939135,-2.548256656748322,-2.6703288319218927
1682104747347561,-11.673151750972693,-10.63553826199734,-5.661097123674381
1682104747363552,-6.546120393682713,-27.756160830090835,-9.872587167162578
1682104747379542,-0.5951018539711868,-30.441748683909395,-12.64972915236126
1682104747395532,-2.4872205691615363,-28.122377355611548,-13.778896772716848
1682104747411522,-6.0578316929884295,-23.300526436255495,-12.68024719615471
1682104747427513,-9.109636072327703,-15.2437628747997,-9.384298466468294
1682104747443503,-13.931486991683755,-10.11673151750972,-8.010986495765565
1682104747459493,-24.00244144350347,-7.583733882658066,-8.834973678187225
1682104747475484,-30.167086289768804,-4.3183031967651,-8.041504539559014
1682104747491474,-29.5872434576944,0.106813153276903,-4.531929503318793
1682104747507464,-27.969787136644527,3.9826047150377235,-0.9002822919051141
1682104747523454,-28.88532845044631,3.250171663996298,2.548256656748322
1682104747539445,-36.209658960860565,-1.266498817425827,6.1493858243686645
1682104747555435,-34.01235980773629,-5.661097123674381,9.231708247501274
1682104747571425,-26.932173647669174,-6.1493858243686645,14.053559166857326
1682104747587415,-22.69016556038764,-5.783169298847952,17.77676050965124
1682104747603406,-21.591515983825502,-9.170672159914488,17.074845502403264
1682104747619354,-18.570229648279565,1.7853055619134466,18.47867551689933
1682104747635344,-9.750514991989007,2.8229190508887996,19.424734874494447
1682104747651333,-2.3956664377813013,-0.045777065690117524,19.058518348973735
1682104747667323,-2.090485999847374,1.4801251239795192,17.68520637827112
1682104747683313,1.266498817425827,0.5645838101777372,15.76256961928732
1682104747699303,4.226749065384865,0.5340657663844013,14.816510261692201
1682104747715293,1.9989318684672526,2.4872205691615363,13.260090028229115
1682104747731282,5.325398641947004,1.3885709925993979,11.42900740062555
1682104747747272,8.346684977492941,1.266498817425827,9.201190203707938
1682104747763262,5.844205386434737,4.1046768902112944,6.424048218509142
1682104747779252,1.1139085984588064,7.3090714885175885,5.142290379186647
1682104747795241,0.9918364232852355,7.339589532310924,5.691615167467717
1682104747811231,5.600061036087595,5.294880598153668,6.515602349889377
1682104747827221,9.475852597848416,4.531929503318793,6.851300831616641
1682104747843211,9.536888685435201,6.118867780575215,6.424048218509142
1682104747859201,2.731364919508678,10.727092393377575,6.1493858243686645
1682104747875190,-3.4943160143434397,14.084077210650776,6.851300831616641
1682104747891180,0.19836728465702436,12.588693064774475,7.522697795071281
1682104747907170,4.287785152971651,11.093308918898288,9.353780422674845
1682104747923160,5.050736247806526,12.436102845807568,11.184863050278409
1682104747939087,5.600061036087595,14.480811779964824,14.57236591134506
1682104747955076,4.654001678492364,16.403448538948624,17.166399633783385
1682104747971066,-0.1373311970702389,19.79095140001516,19.27214465552754
1682104747987056,-5.081254291599862,22.171358815899794,19.638361181048253
1682104748003046,-8.377203021286277,23.45311665522229,19.27214465552754
1682104748019035,-8.804455634393776,22.78171969176765,18.783855954833257
1682104748035025,-7.064927138170447,21.652552071412174,17.196917677576835
1682104748051015,-5.53902494850081,21.103227283131105,16.15930418860148
1682104748067005,-5.2338445105668825,21.59151598382539,14.724956130311966
1682104748082995,-4.1046768902112944,21.83566033417253,13.473716334782921
1682104748098984,-4.348821240558436,23.17845426108181,11.276417181658644
1682104748114974,-4.562447547112242,23.880369268329787,8.285648889906156
1682104748130964,-3.2806897077897474,23.392080567635503,5.569542992294146
1682104748146954,-0.19836728465702436,20.401312275883015,3.3112077515830833
1682104748162943,-2.2735942626077303,22.293430991073365,1.6327153429465397
1682104748178933,-2.30411230640118,20.34027618829623,0.5035477225909517
1682104748194923,-3.8300144960708167,21.25581750209801,-1.022354467078685
1682104748210913,-3.677424277103796,19.91302357518873,-2.0294499122605885
1682104748226903,-7.034409094376997,19.089036392767184,-2.5177386129548722
1682104748242892,-7.40062561989771,17.92935072861826,-2.97550926985582
1682104748258850,-3.097581445029391,14.450293736171488,-4.623483634699028
1682104748274840,3.768978408484031,8.499275196459848,-3.677424277103796
1682104748290829,9.018081940947582,4.1962310215915295,-2.853437094682249
1682104748306819,6.790264744029855,3.372243839169869,-3.0670634012359415
1682104748322809,3.677424277103796,3.2806897077897474,-3.7384603646905816
1682104748338799,4.257267109178315,2.059967956054038,-4.776073853665935
1682104748354788,8.22461280231937,-0.38147554741738077,-6.027313649195094
1682104748370778,12.405584802014118,-2.639810788128443,-7.705806057831637
1682104748386768,15.030136568245894,-3.585870145723675,-10.177767605096506
1682104748402758,18.05142290379183,-4.043640802624509,-13.412680247196135
1682104748418748,20.49286640726325,-3.4027618829633184,-15.884641794461004
1682104748434737,18.814373998626593,-0.3509575036240449,-17.105363546196713
1682104748450727,10.238803692683291,5.569542992294146,-17.593652246890997
1682104748466717,0.015259021896667946,9.9641412985427,-16.86121919584957
1682104748482707,-10.482948043030433,12.64972915236126,-15.823605706874218
1682104748498696,-11.703669794766142,10.910200656137931,-14.175631342030897
1682104748514686,-5.355916685740453,6.454566262302592,-11.97833218890662
1682104748530676,-4.806591897459384,5.630579079880931,-10.055695429922935
1682104748546666,-10.574502174410554,8.133058670939135,-9.201190203707938
1682104748562656,-9.140154116121153,7.583733882658066,-8.529793240253298
1682104748578613,-4.013122758831173,6.240939955748786,-8.22461280231937
1682104748594602,-3.677424277103796,8.133058670939135,-8.010986495765565
1682104748610592,-5.416952773327239,11.795223926146264,-8.346684977492941
1682104748626581,-6.9733730067902115,15.21324483100625,-7.583733882658066
1682104748642570,-10.147249561303056,18.6007476920729,-6.088349736781879
1682104748658559,-16.952773327229806,21.469443808651818,-3.219653620202962
1682104748674549,-23.23949034866871,24.49073014419764,-2.2735942626077303
1682104748690538,-12.619211108567924,19.577325093461468,-1.7547875181201107
1682104748706527,-7.3090714885175885,17.34950789654374,-2.334630350194516
1682104748722517,-9.44533455405508,17.074845502403264,-2.3956664377813013
1682104748738506,-12.069886320286855,16.43396658274196,-2.761882963302014
1682104748754495,1.5411612115663047,9.44533455405508,-4.501411459525457
1682104748770485,7.003891050583661,7.156481269550568,-5.661097123674381
1682104748786474,4.86762798504617,8.89600976577401,-7.736324101625087
1682104748802463,2.97550926985582,11.367971313038765,-8.987563897154132
1682104748818452,-10.574502174410554,18.142977035171953,-7.125963225757232
1682104748834442,-8.987563897154132,16.769665064469336,-5.996795605401644
1682104748850431,-1.968413824673803,12.710765239948046,-4.1046768902112944
1682104748866420,5.996795605401644,8.438239108873063,-2.1210040436408235
1682104748882410,10.574502174410554,6.088349736781879,-0.3204394598305953
1682104748898376,7.156481269550568,7.125963225757232,1.1749446860455919
1682104748914365,-0.9918364232852355,9.140154116121153,3.0670634012359415
1682104748930355,-7.705806057831637,9.781033035782343,6.424048218509142
1682104748946344,-1.846341649500232,6.759746700236519,6.698710612649734
1682104748962333,0.44251163500416624,6.912336919203426,7.40062561989771
1682104748978323,1.9073777370870175,8.529793240253298,7.3090714885175885
1682104748994312,4.83710994125272,8.07202258335235,7.217517357137353
1682104749010301,0.9613183794918996,8.407721065079727,6.546120393682713
1682104749026291,-0.6866559853513081,7.583733882658066,7.248035400930803
1682104749042280,-6.118867780575215,6.912336919203426,9.262226291294724
1682104749058269,-4.16571297779808,4.16571297779808,10.971236743724717
1682104749074258,-5.813687342641288,2.6092927443351073,12.466620889600904
1682104749090248,-19.21110856794087,6.485084306095928,13.90096894789042
1682104749106237,0.8392462043183286,-1.3275349050126124,11.490043488212336
1682104749122226,6.607156481269499,-2.4567025253680868,8.834973678187225
1682104749138216,9.384298466468294,-2.2430762188143945,6.424048218509142
1682104749154205,5.50850690470736,1.2359807736323773,4.806591897459384
1682104749170194,0.7782101167315432,5.081254291599862,4.470893415732007
1682104749186184,0.3204394598305953,6.027313649195094,4.928664072632955
1682104749202173,-1.7853055619134466,7.1869993133440175,5.081254291599862
1682104749218109,-4.074158846417959,8.407721065079727,4.776073853665935
1682104749234098,-5.172808422980097,9.323262378881509,3.9520866712443876
1682104749250087,-2.212558175020945,8.255130846112706,2.761882963302014
1682104749266077,2.7008468757152286,6.485084306095928,1.0833905546654705
1682104749282066,4.531929503318793,6.1493858243686645,-0.6256198977645226
1682104749298055,3.921568627450938,6.088349736781879,-0.8392462043183286
1682104749314045,0.045777065690117524,7.064927138170447,-0.7171740291447577
1682104749330034,-2.731364919508678,7.125963225757232,0.045777065690117524
1682104749346023,-1.3580529488059483,5.264362554360218,1.3275349050126124
1682104749362012,1.3885709925993979,3.250171663996298,2.2735942626077303
1682104749378002,3.921568627450938,1.8158236057068962,2.2430762188143945
1682104749393991,5.996795605401644,0.7476920729380936,1.6327153429465397
1682104749409980,5.325398641947004,0.8392462043183286,0.3509575036240449
1682104749425970,2.7008468757152286,1.5106431677729688,-0.8392462043183286
1682104749441959,3.6469062333104603,0.22888532845047393,-1.846341649500232
1682104749457948,8.682383459220205,-2.853437094682249,-2.426184481574751
1682104749473938,15.2437628747997,-6.393530174715806,-3.677424277103796
1682104749489927,23.60570687418931,-10.513466086823769,-6.485084306095928
1682104749505916,30.869001297016666,-14.297703517204468,-11.398489356832215
1682104749521906,33.70717936980259,-19.607843137254918,-13.717860685130063
1682104749537872,30.07553215838857,-20.0961318379492,-11.490043488212336
1682104749553861,26.596475165941683,-15.548943312733627,-10.177767605096506
1682104749569850,20.706492713816942,-12.893873502708402,-7.461661707484495
1682104749585838,21.59151598382539,-11.642633707179357,-6.9733730067902115
1682104749601827,16.372930495155174,-5.203326466773433,-2.8229190508887996
1682104749617816,11.42900740062555,-0.015259021896667946,1.2970168612191628
1682104749633805,4.898146028839506,6.820782787823305,6.851300831616641
1682104749649794,0.015259021896667946,12.405584802014118,12.283512626840547
1682104749665783,-3.6163881895170107,17.837796597238025,17.25795376516362
1682104749681771,-1.6021972991530902,20.61493858243682,20.828564888990513
1682104749697760,0.6866559853513081,23.208972304875147,24.338139925230735
1682104749713749,-1.2359807736323773,27.969787136644527,27.57305256733025
1682104749729738,-5.691615167467717,34.34805828946378,31.082627603570472
1682104749745727,-4.531929503318793,36.48432135500116,32.30334935530641
1682104749761716,-0.38147554741738077,35.904478522926865,30.685893034256424
1682104749777704,1.0833905546654705,36.545357442588056,26.99320973525596
1682104749793693,-1.6632333867398756,39.04783703364615,22.537575341420506
1682104749809682,-5.172808422980097,42.28274967574589,18.234531166552188
1682104749825671,-5.661097123674381,42.67948424505994,14.999618524452558
1682104749841660,-4.654001678492364,41.06202792401018,13.412680247196135
1682104749857635,-1.846341649500232,37.7965972381171,12.039368276493406
1682104749873624,2.9449912260623705,32.455939574273316,9.933623254749364
1682104749889613,8.499275196459848,26.382848859388105,7.40062561989771
1682104749905602,10.75761043717091,22.995345998321454,4.409857328145222
1682104749921590,11.245899137865194,20.798046845197177,1.7242694743266611
1682104749937579,11.093308918898288,18.234531166552188,-1.144426642252256
1682104749953568,10.910200656137931,14.54184786755161,-4.379339284351886
1682104749969557,12.985427634088637,9.9641412985427,-6.820782787823305
1682104749985546,14.480811779964824,5.9357595178148586,-8.010986495765565
1682104750001535,14.297703517204468,2.5177386129548722,-8.499275196459848
1682104750017523,17.38002594033719,-2.97550926985582,-8.957045853360796
1682104750033512,20.706492713816942,-6.332494087129021,-10.177767605096506
1682104750049501,22.751201647974312,-7.736324101625087,-10.147249561303056
1682104750065490,24.521248187990977,-9.872587167162578,-9.99465934233615
1682104750081479,23.666742961776094,-11.33745326924543,-8.377203021286277
1682104750097468,21.377889677271583,-11.85626001373305,-6.454566262302592
1682104750113456,22.079804684519672,-13.565270466163042,-5.752651255054502
1682104750129445,24.3076218814374,-15.426871137560056,-5.53902494850081
1682104750145434,26.840619516288825,-16.18982223239493,-5.813687342641288
1682104750161423,27.786678873884057,-16.556038757915644,-6.027313649195094
1682104750177429,28.27496757457834,-17.044327458609928,-6.72922865644307
1682104750193418,29.129472800793337,-17.074845502403377,-7.827878233005208
1682104750209406,35.14152742809188,-18.63126573586635,-9.048599984740918
1682104750225395,48.32532234683754,-19.88250553139551,-7.125963225757232
1682104750241384,81.40688181887526,-2.30411230640118,-14.328221560997918
1682104750257373,92.2102693217364,-1.3580529488059483,-20.035095750362416
1682104750273362,75.12016479743647,-4.654001678492364,-23.91088731212335
1682104750289351,47.65392538338301,-1.1139085984588064,-30.35019455252916
1682104750305339,20.096131837949088,-2.731364919508678,-25.284199282825966
1682104750321328,11.612115663385907,-1.7547875181201107,-19.821469443808724
1682104750337317,13.076981765468759,-1.144426642252256,-17.898832684824924
1682104750353306,10.391393911650198,-4.654001678492364,-15.793087663080883
1682104750369295,2.2430762188143945,-5.661097123674381,-12.588693064774475
1682104750385284,-5.416952773327239,-7.797360189211872,-10.025177386129485
1682104750401272,-8.804455634393776,-7.919432364385443,-7.156481269550568
1682104750417261,-8.529793240253298,-6.820782787823305,-5.325398641947004
1682104750433250,-8.89600976577401,-7.064927138170447,-5.081254291599862
1682104750449239,-6.424048218509142,-6.393530174715806,-4.470893415732007
1682104750465228,-1.052872510872021,-5.447470817120575,-4.86762798504617
1682104750481217,2.0294499122605885,-5.142290379186647,-6.485084306095928
1682104750497161,2.6703288319218927,-6.332494087129021,-9.262226291294724
1682104750513150,0.41199359121083035,-7.248035400930803,-12.161440451666977
1682104750529139,-0.07629510948345342,-7.492179751277945,-14.999618524452558
1682104750545128,3.341725795376533,-6.088349736781879,-17.044327458609928
1682104750561117,8.499275196459848,-7.248035400930803,-17.776760509651353
1682104750577106,15.640497444113748,-8.1025406271458,-19.699397268635153
1682104750593094,21.072709239337655,-7.980468451972229,-22.232394903486693
1682104750609083,20.828564888990513,-8.316166933699492,-21.31685358968491
1682104750625072,15.609979400320412,-6.637674525062948,-19.913023575188845
1682104750641061,5.264362554360218,-6.607156481269499,-17.654688334477783
1682104750657050,-3.4332799267566543,-7.888914320591994,-15.671015487907312
1682104750673039,-5.783169298847952,-7.827878233005208,-15.487907225146841
1682104750689027,-3.8300144960708167,-6.576638437476163,-13.412680247196135
1682104750705016,-0.015259021896667946,-5.691615167467717,-12.191958495460426
1682104750721005,1.7853055619134466,-6.424048218509142,-13.138017853055544
1682104750736994,1.6632333867398756,-7.736324101625087,-12.863355458915066
1682104750752983,-0.22888532845047393,-6.2714579995422355,-11.886778057526499
1682104750768972,-1.8158236057068962,-8.651865415426869,-10.360875867856862
1682104750784960,-1.8158236057068962,-9.018081940947582,-10.08621347371627
1682104750800949,-3.6163881895170107,-8.865491721980561,-10.78812848096436
1682104750816925,-5.9357595178148586,-9.872587167162578,-12.436102845807568
1682104750832914,-3.6469062333104603,-10.574502174410554,-12.832837415121617
1682104750848902,2.1210040436408235,-11.001754787518053,-11.520561532005786
1682104750864891,8.041504539559014,-10.696574349584125,-10.66605630579079
1682104750880880,14.480811779964824,-9.475852597848416,-10.940718699931267
1682104750896869,17.166399633783385,-9.872587167162578,-11.459525444419
1682104750912858,16.6781109330891,-11.093308918898288,-11.490043488212336
1682104750928846,14.633401998931845,-12.619211108567924,-10.696574349584125
1682104750944835,12.619211108567924,-14.389257648584703,-9.811551079575793
1682104750960824,10.482948043030433,-13.412680247196135,-10.605020218204004
1682104750976813,7.888914320591994,-13.3211261158159,-10.818646524757696
1682104750992802,7.888914320591994,-11.97833218890662,-10.055695429922935
1682104751008791,9.56740672922865,-10.269321736476627,-9.048599984740918
1682104751024779,9.29274433508806,-10.574502174410554,-9.29274433508806
1682104751040768,6.301976043335571,-11.001754787518053,-9.262226291294724
1682104751056757,5.172808422980097,-11.001754787518053,-7.614251926451516
1682104751072746,7.675288014038301,-9.9641412985427,-4.287785152971651
1682104751088735,0.9002822919051141,-10.299839780270077,-3.006027313649156
1682104751104724,-4.928664072632955,-11.123826962691624,-2.426184481574751
1682104751120712,-5.874723430228073,-7.3090714885175885,-0.3509575036240449
1682104751136657,-3.7384603646905816,-6.759746700236519,-0.2594033722438098
1682104751152646,1.2359807736323773,-5.0202182040130765,-0.41199359121083035
1682104751168634,3.768978408484031,-3.372243839169869,-0.8392462043183286
1682104751184622,5.172808422980097,-1.144426642252256,-0.7782101167315432
1682104751200611,4.1962310215915295,0.5645838101777372,-0.015259021896667946
1682104751216599,0.44251163500416624,0.5951018539711868,1.052872510872021
1682104751232587,-4.16571297779808,0.9613183794918996,2.4567025253680868
1682104751248576,-5.630579079880931,2.426184481574751,2.639810788128443
1682104751264564,-4.135194934004744,5.53902494850081,2.7924010070954637
1682104751280552,-2.1210040436408235,8.010986495765565,3.219653620202962
1682104751296541,-1.8158236057068962,8.682383459220205,3.0670634012359415
1682104751312529,-4.501411459525457,8.590829327840083,3.128099488822727
1682104751328518,-8.77393759060044,10.66605630579079,3.799496452277367
1682104751344506,-12.924391546501852,13.931486991683755,4.715037766079149
1682104751360494,-13.839932860303634,14.419775692378039,5.996795605401644
1682104751376483,-7.766842145418423,13.931486991683755,7.0954451819637825
1682104751392471,0.6866559853513081,12.00885023270007,7.675288014038301
1682104751408459,-1.6937514305333252,11.947814145113284,7.522697795071281
1682104751424448,-11.673151750972693,14.145113298237561,7.644769970244852
1682104751440436,-20.64545662623027,16.098268101014696,7.370107576104374
1682104751456421,-24.093995574883706,16.189822232394818,7.248035400930803
1682104751472409,-16.678110933089215,13.290608072022565,7.461661707484495
1682104751488397,-6.912336919203426,9.842069123369129,7.339589532310924
1682104751504386,-1.4801251239795192,8.133058670939135,6.668192568856284
1682104751520374,2.548256656748322,6.363012130922357,4.989700160219741
1682104751536362,2.3956664377813013,5.905241474021523,3.4943160143434397
1682104751552351,-2.731364919508678,6.637674525062948,2.7924010070954637
1682104751568339,-6.0578316929884295,6.546120393682713,2.853437094682249
1682104751584327,-4.348821240558436,5.0202182040130765,2.853437094682249
1682104751600316,2.1515220874341594,2.761882963302014,2.2735942626077303
1682104751616304,0.38147554741738077,2.97550926985582,1.6632333867398756
1682104751632292,-4.379339284351886,3.8300144960708167,1.022354467078685
1682104751648281,0.2899214160372594,2.9144731822690346,0.9002822919051141
1682104751664269,5.2338445105668825,1.4190890363927338,0.8697642481116645
1682104751680257,5.966277561608308,0.93080033569845,1.1749446860455919
1682104751696246,2.1515220874341594,1.3580529488059483,1.5411612115663047
1682104751712234,-5.386434729533789,2.7008468757152286,1.5106431677729688
1682104751728222,-7.156481269550568,3.097581445029391,1.6632333867398756
1682104751744211,-4.074158846417959,2.5177386129548722,1.6021972991530902
1682104751760199,-5.081254291599862,3.0365453574426056,1.0833905546654705
1682104751776153,-5.1117723353933116,3.7384603646905816,0.7171740291447577
1682104751792142,2.059967956054038,1.6327153429465397,0.38147554741738077
1682104751808130,1.846341649500232,1.2054627298390415,-0.015259021896667946
1682104751824118,-6.424048218509142,2.731364919508678,0.44251163500416624
1682104751840107,-3.555352101930225,1.8158236057068962,0.8697642481116645
1682104751856095,2.3651483939879654,0.38147554741738077,0.9002822919051141
1682104751872083,-3.891050583657602,2.182040131227609,0.5035477225909517
1682104751888072,-6.515602349889377,3.3112077515830833,0.1373311970702389
1682104751904060,0.6866559853513081,1.144426642252256,-0.106813153276903
1682104751920048,5.081254291599862,-0.41199359121083035,-0.8697642481116645
1682104751936037,-6.637674525062948,2.0294499122605885,-1.1139085984588064
1682104751952025,-11.398489356832215,2.9144731822690346,-0.6866559853513081
1682104751968013,-2.1515220874341594,0.6256198977645226,-0.2899214160372594
1682104751984002,5.294880598153668,-0.8697642481116645,-0.5951018539711868
1682104751999990,0.7782101167315432,0.5035477225909517,-1.1749446860455919
1682104752015978,-0.9002822919051141,1.5716792553597543,-1.6021972991530902
1682104752031967,1.022354467078685,1.5106431677729688,-2.0294499122605885
1682104752047955,-0.7476920729380936,1.968413824673803,-1.3885709925993979
1682104752063943,-0.8697642481116645,1.846341649500232,-0.7476920729380936
1682104752079932,-0.1373311970702389,1.4496070801861833,-1.052872510872021
1682104752095916,-0.3204394598305953,1.052872510872021,-0.9918364232852355
1682104752111905,1.6021972991530902,0.16784924086368846,-0.7171740291447577
1682104752127893,4.592965590905578,-0.7476920729380936,-0.6256198977645226
1682104752143881,6.454566262302592,-1.3275349050126124,-0.9613183794918996
1682104752159870,4.1046768902112944,-1.052872510872021,-1.8158236057068962
1682104752175858,0.7476920729380936,-0.8392462043183286,-2.7924010070954637
1682104752191846,0.5035477225909517,-1.5411612115663047,-4.1046768902112944
1682104752207835,5.966277561608308,-3.6163881895170107,-5.996795605401644
1682104752223823,9.475852597848416,-5.050736247806526,-8.62134737163342
1682104752239812,5.996795605401644,-5.050736247806526,-8.468757152666512
1682104752255800,3.097581445029391,-5.172808422980097,-8.438239108873063
1682104752271788,4.470893415732007,-6.0578316929884295,-7.858396276798658
1682104752287777,8.865491721980561,-7.461661707484495,-7.736324101625087
1682104752303765,8.926527809567347,-8.041504539559014,-7.339589532310924
1682104752319753,9.323262378881509,-8.499275196459848,-7.614251926451516
1682104752335742,4.989700160219741,-8.07202258335235,-7.644769970244852
1682104752351730,1.6327153429465397,-7.522697795071281,-7.614251926451516
1682104752367718,1.5716792553597543,-7.675288014038301,-7.583733882658066
1682104752383707,2.0294499122605885,-7.827878233005208,-7.003891050583661
1682104752399695,5.9357595178148586,-8.560311284046634,-6.393530174715806
1682104752415680,9.140154116121153,-9.079118028534367,-5.996795605401644
1682104752431668,5.874723430228073,-8.194094758525921,-5.53902494850081
1682104752447656,0.045777065690117524,-6.759746700236519,-5.2338445105668825
1682104752463645,-4.135194934004744,-5.630579079880931,-4.989700160219741
1682104752479633,-3.0670634012359415,-5.53902494850081,-4.989700160219741
1682104752495621,0.5035477225909517,-5.783169298847952,-5.447470817120575
1682104752511610,3.7384603646905816,-6.027313649195094,-6.1493858243686645
1682104752527598,3.463797970550104,-5.1117723353933116,-6.607156481269499
1682104752543586,0.6561379415579722,-3.2806897077897474,-6.301976043335571
1682104752559575,-0.5645838101777372,-2.1210040436408235,-7.034409094376997
1682104752575563,-0.3204394598305953,-0.5951018539711868,-8.438239108873063
1682104752591551,0.16784924086368846,-0.015259021896667946,-8.834973678187225
1682104752607540,0.22888532845047393,-1.266498817425827,-5.386434729533789
1682104752623528,-0.22888532845047393,-1.6021972991530902,-2.3956664377813013
1682104752639516,1.7242694743266611,-1.846341649500232,-2.182040131227609
1682104752655505,2.9449912260623705,-1.6327153429465397,-1.937895780880467
1682104752671493,1.2359807736323773,-1.4190890363927338,-1.3580529488059483
1682104752687482,-1.4190890363927338,-1.0833905546654705,-1.1139085984588064
1682104752703470,-3.250171663996298,-0.7782101167315432,-1.0833905546654705
1682104752719458,-2.883955138475585,-1.0833905546654705,-0.38147554741738077
1682104752735443,-2.1210040436408235,-1.5106431677729688,0.44251163500416624
1682104752751431,-1.144426642252256,-1.4496070801861833,0.16784924086368846
1682104752767419,-2.883955138475585,-0.5951018539711868,-0.9002822919051141
1682104752783408,-0.6866559853513081,-0.8697642481116645,-1.7242694743266611
1682104752799396,3.9520866712443876,-2.090485999847374,-2.059967956054038
1682104752815384,5.905241474021523,-2.97550926985582,-1.7242694743266611
1682104752831373,4.470893415732007,-2.883955138475585,-0.9613183794918996
1682104752847361,0.19836728465702436,-1.9989318684672526,-0.106813153276903
1682104752863350,-1.9989318684672526,-1.2359807736323773,-0.07629510948345342
1682104752879338,-1.2970168612191628,-1.0833905546654705,0.015259021896667946
1682104752895326,2.5177386129548722,-1.4496070801861833,0.1373311970702389
1682104752911315,2.548256656748322,-0.9613183794918996,0.3509575036240449
1682104752927303,1.0833905546654705,0.3204394598305953,0.93080033569845
1682104752943291,-1.3885709925993979,1.3580529488059483,1.5106431677729688
1682104752959280,-2.1210040436408235,1.6632333867398756,1.7853055619134466
1682104752975268,-4.592965590905578,2.5787747005416577,1.7547875181201107
1682104752991256,-6.576638437476163,3.8300144960708167,1.2359807736323773
1682104753007245,-4.898146028839506,4.440375371938671,0.16784924086368846
1682104753023233,-4.043640802624509,4.989700160219741,-0.3204394598305953
1682104753039221,-4.013122758831173,5.203326466773433,-0.015259021896667946
1682104753055175,-3.9826047150377235,4.989700160219741,1.052872510872021
1682104753071164,0.2899214160372594,3.585870145723675,1.7242694743266611
1682104753087152,3.9826047150377235,2.639810788128443,1.5411612115663047
1682104753103140,2.883955138475585,3.0365453574426056,1.052872510872021
1682104753119129,1.6327153429465397,3.768978408484031,0.44251163500416624
1682104753135117,-2.212558175020945,5.050736247806526,-0.045777065690117524
1682104753151106,-7.980468451972229,6.637674525062948,0.045777065690117524
1682104753167094,-11.886778057526499,7.797360189211872,0.7171740291447577
1682104753183082,-13.931486991683755,8.255130846112706,1.3885709925993979
1682104753199071,-13.168535896848994,8.041504539559014,2.334630350194516
1682104753215059,-11.398489356832215,7.888914320591994,3.5248340581368893
1682104753231047,-11.97833218890662,8.316166933699492,4.470893415732007
1682104753247036,-11.612115663385907,9.079118028534367,4.989700160219741
1682104753263024,-7.675288014038301,8.438239108873063,5.813687342641288
1682104753279012,-4.745555809872599,8.010986495765565,6.118867780575215
1682104753295001,-7.431143663691159,8.987563897154132,6.179903868162
1682104753310989,-11.001754787518053,10.055695429922935,6.576638437476163
1682104753326977,-6.9733730067902115,9.201190203707938,6.637674525062948
1682104753342966,-2.090485999847374,8.163576714732585,6.637674525062948
1682104753358954,-3.677424277103796,8.712901503013654,6.576638437476163
1682104753374939,-5.203326466773433,8.957045853360796,7.034409094376997
1682104753390926,-1.7547875181201107,7.980468451972229,7.705806057831637
1682104753406914,-1.3580529488059483,7.827878233005208,7.3090714885175885
1682104753422902,-6.0578316929884295,8.712901503013654,6.393530174715806
1682104753438890,-5.172808422980097,8.407721065079727,5.722133211261166
1682104753454878,-1.4190890363927338,7.0954451819637825,5.447470817120575
1682104753470866,-1.6021972991530902,6.515602349889377,5.630579079880931
1682104753486854,-7.675288014038301,7.248035400930803,5.844205386434737
1682104753502842,-12.64972915236126,7.461661707484495,6.301976043335571
1682104753518829,-10.360875867856862,6.515602349889377,6.485084306095928
1682104753534817,-6.820782787823305,5.569542992294146,6.1493858243686645
1682104753550805,-3.921568627450938,4.806591897459384,4.684519722285813
1682104753566793,-1.6937514305333252,4.226749065384865,3.1586175326161765
1682104753582781,-0.3204394598305953,3.891050583657602,2.883955138475585
1682104753598769,-2.5177386129548722,3.921568627450938,2.97550926985582
1682104753614757,-4.348821240558436,4.16571297779808,3.4332799267566543
1682104753630745,-3.891050583657602,3.1891355764095124,3.9826047150377235
1682104753646732,-4.379339284351886,2.639810788128443,4.348821240558436
1682104753662720,-9.231708247501274,3.1586175326161765,4.745555809872599
1682104753678708,-13.229571984435779,3.677424277103796,5.53902494850081
1682104753694702,-10.63553826199734,3.0670634012359415,6.301976043335571
1682104753710690,-4.3183031967651,1.846341649500232,5.874723430228073
1682104753726678,-1.3885709925993979,1.5411612115663047,4.806591897459384
1682104753742665,-2.1210040436408235,1.9073777370870175,3.8300144960708167
1682104753758653,-1.144426642252256,1.6021972991530902,3.3112077515830833
1682104753774641,-2.9144731822690346,1.9989318684672526,2.761882963302014
1682104753790629,-7.431143663691159,3.0365453574426056,2.426184481574751
1682104753806617,-8.77393759060044,3.463797970550104,2.2430762188143945
1682104753822605,-4.898146028839506,2.7924010070954637,1.266498817425827
1682104753838593,-3.0670634012359415,3.006027313649156,0.07629510948345342
1682104753854581,-2.548256656748322,3.006027313649156,-0.9918364232852355
1682104753870568,-1.3580529488059483,2.548256656748322,-2.1210040436408235
1682104753886556,0.16784924086368846,1.5411612115663047,-2.731364919508678
1682104753902544,-0.5340657663844013,1.0833905546654705,-3.1891355764095124
1682104753918532,0.22888532845047393,0.7171740291447577,-4.287785152971651
1682104753934520,3.1891355764095124,0.045777065690117524,-6.668192568856284
1682104753950508,4.928664072632955,1.5411612115663047,-11.673151750972693
1682104753966496,3.9826047150377235,4.562447547112242,-17.746242465858018
1682104753982483,1.2970168612191628,5.874723430228073,-21.042191195544433
1682104753998471,2.8229190508887996,3.128099488822727,-20.187685969329436
1682104754014465,0.9918364232852355,1.2359807736323773,-16.433966582742073
1682104754030453,-4.684519722285813,0.2594033722438098,-12.00885023270007
1682104754046441,-10.208285648889841,0.3204394598305953,-9.41481651026163
1682104754062429,-10.025177386129485,-0.07629510948345342,-7.858396276798658
1682104754078416,-7.705806057831637,-1.968413824673803,-5.9357595178148586
1682104754094404,-1.022354467078685,-5.0202182040130765,-5.0202182040130765
1682104754110392,8.377203021286277,-7.827878233005208,-5.172808422980097
1682104754126380,8.957045853360796,-6.790264744029855,-3.8300144960708167
1682104754142368,-5.294880598153668,-2.30411230640118,-2.853437094682249
1682104754158356,-9.597924773021987,-0.38147554741738077,-2.3956664377813013
1682104754174344,-4.470893415732007,-1.1749446860455919,-2.2430762188143945
1682104754190332,3.463797970550104,-2.0294499122605885,-3.128099488822727
1682104754206319,8.804455634393776,-2.3956664377813013,-3.7384603646905816
1682104754222307,11.642633707179357,-2.639810788128443,-3.677424277103796
1682104754238295,5.9357595178148586,-0.6866559853513081,-3.0365453574426056
1682104754254283,-2.0294499122605885,1.0833905546654705,-1.7853055619134466
1682104754270271,-0.6256198977645226,0.41199359121083035,-0.44251163500416624
1682104754286259,4.135194934004744,-0.5340657663844013,0.2899214160372594
1682104754302247,4.043640802624509,0.3509575036240449,-0.106813153276903
1682104754318235,-1.937895780880467,1.968413824673803,-1.8158236057068962
1682104754334198,-11.459525444419,4.83710994125272,-2.883955138475585
1682104754350185,-19.089036392767298,6.9733730067902115,-2.1515220874341594
1682104754366173,-20.00457770656908,6.21042191195545,-0.5340657663844013
1682104754382161,-17.807278553444803,4.3183031967651,1.5106431677729688
1682104754398149,-15.671015487907312,2.883955138475585,2.6092927443351073
1682104754414137,-13.412680247196135,1.5411612115663047,2.761882963302014
1682104754430125,-6.942854962996876,-0.106813153276903,2.2430762188143945
1682104754446113,-0.7782101167315432,-0.3509575036240449,1.4496070801861833
1682104754462101,0.38147554741738077,0.16784924086368846,0.38147554741738077
1682104754478088,2.883955138475585,0.16784924086368846,-0.2899214160372594
1682104754494076,3.677424277103796,1.8768596932936816,0.045777065690117524
1682104754510064,1.7853055619134466,0.5951018539711868,0.6561379415579722
1682104754526052,3.0670634012359415,0.2594033722438098,1.1139085984588064
1682104754542040,3.9520866712443876,0.4730296787976158,1.144426642252256
1682104754558028,6.424048218509142,0.6256198977645226,1.266498817425827
1682104754574016,5.2338445105668825,1.3275349050126124,0.6866559853513081
1682104754590004,-0.106813153276903,2.4567025253680868,0.19836728465702436
1682104754605991,-3.0670634012359415,3.128099488822727,0.106813153276903
1682104754621979,-3.1586175326161765,3.0670634012359415,0.4730296787976158
1682104754637967,-3.4943160143434397,2.6703288319218927,0.93080033569845
1682104754653961,-3.677424277103796,2.090485999847374,1.4190890363927338
1682104754669949,-0.38147554741738077,1.1139085984588064,1.937895780880467
1682104754685937,0.106813153276903,1.4496070801861833,1.846341649500232
1682104754701924,2.212558175020945,1.6021972991530902,1.2970168612191628
1682104754717912,4.074158846417959,1.5106431677729688,0.5340657663844013
1682104754733900,3.372243839169869,1.2359807736323773,0.07629510948345342
1682104754749888,1.6937514305333252,0.8392462043183286,0.2594033722438098
1682104754765876,-4.16571297779808,1.5106431677729688,0.8392462043183286
1682104754781864,-6.942854962996876,2.0294499122605885,1.022354467078685
1682104754797852,-5.294880598153668,1.8158236057068962,0.8392462043183286
1682104754813840,-3.677424277103796,1.5106431677729688,0.4730296787976158
1682104754829827,0.19836728465702436,0.5340657663844013,0.4730296787976158
1682104754845815,3.585870145723675,-0.41199359121083035,0.9002822919051141
1682104754861803,4.501411459525457,-0.44251163500416624,1.052872510872021
1682104754877791,4.226749065384865,-0.2899214160372594,0.8087281605248791
1682104754893779,-1.3885709925993979,1.4190890363927338,0.4730296787976158
1682104754909767,-4.562447547112242,2.0294499122605885,0.6256198977645226
1682104754925755,-1.5106431677729688,1.1749446860455919,0.6866559853513081
1682104754941743,-2.0294499122605885,1.3885709925993979,0.41199359121083035
1682104754957730,-5.844205386434737,2.426184481574751,0.44251163500416624
1682104754973724,-2.548256656748322,1.5716792553597543,0.8087281605248791
1682104754989712,3.677424277103796,0.045777065690117524,1.022354467078685
1682104755005700,4.135194934004744,-0.1373311970702389,1.0833905546654705
1682104755021688,3.6469062333104603,-0.045777065690117524,0.6256198977645226
1682104755037675,0.22888532845047393,0.7782101167315432,0.16784924086368846
1682104755053663,-3.9520866712443876,1.6021972991530902,-0.1373311970702389
1682104755069651,-1.9073777370870175,0.6561379415579722,-0.07629510948345342
1682104755085639,-0.5951018539711868,-0.015259021896667946,-0.015259021896667946
1682104755101627,-4.898146028839506,1.0833905546654705,-0.22888532845047393
1682104755117615,-5.264362554360218,1.0833905546654705,-0.38147554741738077
1682104755133603,-2.334630350194516,0.3204394598305953,-0.22888532845047393
1682104755149591,0.1373311970702389,-0.41199359121083035,0.106813153276903
1682104755165578,0.9002822919051141,-0.44251163500416624,0.22888532845047393
1682104755181566,1.022354467078685,-0.44251163500416624,0.2594033722438098
1682104755197554,2.1210040436408235,-0.8392462043183286,0.1373311970702389
1682104755213542,1.937895780880467,-0.8697642481116645,0.3509575036240449
1682104755229530,3.6163881895170107,-1.144426642252256,0.8697642481116645
1682104755245518,5.325398641947004,-1.6632333867398756,0.5951018539711868
1682104755261506,3.463797970550104,-1.052872510872021,-0.41199359121083035
1682104755277494,-0.38147554741738077,0.44251163500416624,-1.2970168612191628
1682104755293487,-3.0670634012359415,1.7853055619134466,-1.9989318684672526
1682104755309475,-5.50850690470736,2.3651483939879654,-2.6092927443351073
1682104755325463,-2.334630350194516,1.022354467078685,-3.891050583657602
1682104755341451,2.7008468757152286,0.3204394598305953,-1.4190890363927338
1682104755357439,4.715037766079149,0.16784924086368846,-0.38147554741738077
1682104755373427,4.928664072632955,0.19836728465702436,0.8697642481116645
1682104755389414,5.53902494850081,0.3204394598305953,1.6937514305333252
1682104755405402,1.6937514305333252,1.266498817425827,2.1515220874341594
1682104755421390,-1.8768596932936816,2.059967956054038,2.3651483939879654
1682104755437378,-1.6632333867398756,1.6327153429465397,2.731364919508678
1682104755453366,-1.2970168612191628,1.6632333867398756,2.8229190508887996
1682104755469354,-3.250171663996298,2.212558175020945,2.8229190508887996
1682104755485342,-2.6703288319218927,2.2735942626077303,2.761882963302014
1682104755501330,0.22888532845047393,2.090485999847374,2.059967956054038
1682104755517317,0.9002822919051141,2.334630350194516,1.3885709925993979
1682104755533305,0.22888532845047393,2.639810788128443,0.9613183794918996
1682104755549293,-2.182040131227609,3.1586175326161765,0.6866559853513081
1682104755565281,-2.9449912260623705,3.0670634012359415,1.0833905546654705
1682104755581269,-1.5106431677729688,2.4567025253680868,1.6327153429465397
1682104755597257,-1.3275349050126124,2.2735942626077303,2.0294499122605885
1682104755613220,-3.0365453574426056,2.639810788128443,2.090485999847374
1682104755629208,-1.3580529488059483,2.2735942626077303,2.5177386129548722
1682104755645196,-0.38147554741738077,2.059967956054038,2.9144731822690346
1682104755661183,-0.3509575036240449,1.8768596932936816,2.9449912260623705
1682104755677171,-0.6256198977645226,2.4567025253680868,3.6163881895170107
1682104755693159,0.44251163500416624,2.3651483939879654,3.463797970550104
1682104755709147,3.1891355764095124,2.1210040436408235,2.090485999847374
1682104755725135,-0.44251163500416624,3.097581445029391,0.5951018539711868
1682104755741123,-0.93080033569845,3.2806897077897474,-0.16784924086368846
1682104755757111,1.7547875181201107,3.463797970550104,-0.4730296787976158
1682104755773099,4.16571297779808,2.883955138475585,-0.38147554741738077
1682104755789086,2.5177386129548722,2.334630350194516,-0.2899214160372594
1682104755805074,-3.219653620202962,3.372243839169869,-0.41199359121083035
1682104755821062,-4.928664072632955,3.0365453574426056,-0.3204394598305953
1682104755837050,-1.3580529488059483,1.6937514305333252,-0.22888532845047393
1682104755853038,2.182040131227609,0.1373311970702389,0.3204394598305953
1682104755869026,3.097581445029391,-0.16784924086368846,0.5340657663844013
1682104755885014,-0.7171740291447577,0.8697642481116645,0.44251163500416624
1682104755901002,-1.937895780880467,1.1749446860455919,0.106813153276903
1682104755916989,-1.9989318684672526,0.93080033569845,-0.1373311970702389
1682104755932983,0.5035477225909517,-0.106813153276903,-0.3204394598305953
1682104755948971,1.7853055619134466,-0.22888532845047393,-0.8697642481116645
1682104755964959,-0.9613183794918996,-0.22888532845047393,-0.93080033569845
1682104755980947,-3.7384603646905816,-0.4730296787976158,-0.6561379415579722
1682104755996935,-7.003891050583661,-0.16784924086368846,-0.2594033722438098
1682104756012922,-7.3090714885175885,-0.3509575036240449,-0.2594033722438098
1682104756028910,-5.0202182040130765,-0.8697642481116645,0.22888532845047393
1682104756044898,-2.9449912260623705,-1.9073777370870175,-0.2594033722438098
1682104756060886,-3.555352101930225,-1.6937514305333252,-0.9918364232852355
1682104756076874,-1.4801251239795192,-2.1515220874341594,-1.9989318684672526
1682104756092862,1.9989318684672526,-3.0670634012359415,-2.5177386129548722
1682104756108850,1.7547875181201107,-3.250171663996298,-2.8229190508887996
1682104756124838,-1.144426642252256,-2.97550926985582,-2.3956664377813013
1682104756140825,-4.074158846417959,-2.761882963302014,-1.8158236057068962
1682104756156813,-3.7079423208972457,-3.4332799267566543,-1.4801251239795192
1682104756172801,-4.83710994125272,-3.250171663996298,-1.8768596932936816
1682104756188789,-6.301976043335571,-2.97550926985582,-2.1210040436408235
1682104756204777,-1.846341649500232,-4.16571297779808,-2.059967956054038
1682104756220765,3.128099488822727,-5.477988860914024,-2.090485999847374
1682104756236753,4.684519722285813,-5.722133211261166,-2.2430762188143945
1682104756252746,-0.19836728465702436,-4.409857328145222,-2.5177386129548722
1682104756268734,-2.8229190508887996,-3.921568627450938,-2.731364919508678
1682104756284722,-2.3956664377813013,-4.226749065384865,-2.6703288319218927
1682104756300710,-1.6327153429465397,-4.3183031967651,-2.761882963302014
1682104756316698,-4.3183031967651,-3.7384603646905816,-3.2806897077897474
1682104756332686,-5.783169298847952,-3.463797970550104,-3.555352101930225
1682104756348673,-3.8300144960708167,-4.287785152971651,-2.853437094682249
1682104756364661,-1.3885709925993979,-5.142290379186647,-1.7547875181201107
1682104756380649,-1.8158236057068962,-4.806591897459384,-1.1749446860455919
1682104756396637,-4.1046768902112944,-3.9520866712443876,-1.5716792553597543
1682104756412625,-4.043640802624509,-3.677424277103796,-2.334630350194516
1682104756428613,-1.968413824673803,-3.8300144960708167,-2.6092927443351073
1682104756444601,0.41199359121083035,-4.379339284351886,-2.3956664377813013
1682104756460589,0.1373311970702389,-4.379339284351886,-1.846341649500232
1682104756476576,-4.348821240558436,-3.372243839169869,-1.5716792553597543
1682104756492564,-7.675288014038301,-2.426184481574751,-1.6937514305333252
1682104756508552,-6.393530174715806,-2.9144731822690346,-1.6937514305333252
1682104756524540,-1.6021972991530902,-4.074158846417959,-1.6327153429465397
1682104756540528,1.4496070801861833,-5.081254291599862,-1.3885709925993979
1682104756556516,1.6632333867398756,-5.50850690470736,-1.1139085984588064
1682104756572509,0.3204394598305953,-5.355916685740453,-0.7476920729380936
1682104756588497,-2.30411230640118,-4.83710994125272,-0.4730296787976158
1682104756604485,-4.623483634699028,-3.7384603646905816,-0.6561379415579722
1682104756620473,-6.698710612649734,-3.1586175326161765,-1.2359807736323773
1682104756636461,-4.257267109178315,-3.8605325398641526,-1.1139085984588064
1682104756652449,-1.6327153429465397,-4.470893415732007,-0.8392462043183286
1682104756668437,-2.5177386129548722,-4.440375371938671,-0.6561379415579722
1682104756684425,-1.7853055619134466,-5.203326466773433,-0.6561379415579722
1682104756700412,-3.4943160143434397,-4.715037766079149,-0.3509575036240449
1682104756716400,-5.966277561608308,-3.6163881895170107,-0.045777065690117524
1682104756732388,-5.1117723353933116,-3.0670634012359415,-0.19836728465702436
1682104756748376,-1.5411612115663047,-3.250171663996298,-0.3509575036240449
1682104756764364,2.4567025253680868,-3.8300144960708167,-0.4730296787976158
1682104756780352,3.7384603646905816,-3.4332799267566543,0.015259021896667946
1682104756796340,-2.6703288319218927,-1.2054627298390415,0.38147554741738077
1682104756812327,-7.736324101625087,0.8697642481116645,0.8392462043183286
1682104756828315,-7.003891050583661,1.2970168612191628,1.4801251239795192
1682104756844303,-4.287785152971651,1.6937514305333252,1.7242694743266611
1682104756860291,-4.86762798504617,2.548256656748322,1.4801251239795192
1682104756876279,-5.172808422980097,3.4027618829633184,0.4730296787976158
1682104756892212,-6.698710612649734,3.5248340581368893,-0.015259021896667946
1682104756908199,-11.123826962691624,4.043640802624509,0.106813153276903
1682104756924187,-13.138017853055544,4.226749065384865,0.9613183794918996
1682104756940175,-7.888914320591994,2.5177386129548722,1.9989318684672526
1682104756956163,-2.4567025253680868,1.6937514305333252,2.7008468757152286
1682104756972151,-4.745555809872599,3.891050583657602,1.846341649500232
1682104756988139,-6.942854962996876,5.966277561608308,0.015259021896667946
1682104757004127,-4.074158846417959,6.485084306095928,-1.5716792553597543
1682104757020115,-3.0365453574426056,7.949950408178779,-2.5177386129548722
1682104757036102,-4.1962310215915295,9.079118028534367,-3.0365453574426056
1682104757052090,-4.684519722285813,9.842069123369129,-1.937895780880467
1682104757068078,-5.386434729533789,10.238803692683291,-0.2594033722438098
1682104757084066,-4.135194934004744,9.872587167162578,-0.3204394598305953
1682104757100054,-4.654001678492364,10.08621347371627,-0.5951018539711868
1682104757116042,-6.2714579995422355,10.543984130617218,0.44251163500416624
1682104757132030,-14.999618524452558,12.344548714427333,4.074158846417959
1682104757148018,-26.169222552834412,14.267185473411132,5.691615167467717
1682104757164005,-34.92790112153807,15.060654612039343,6.454566262302592
1682104757179993,-38.101777676050915,14.755474174105416,7.675288014038301
1682104757195981,-44.63263904783696,16.31189440756839,7.644769970244852
1682104757211975,-53.5744258793012,18.661783779659686,7.55321583886473
1682104757227963,-68.8639658197909,24.612802319371212,8.926527809567347
1682104757243950,-75.12016479743647,26.749065384908818,13.687342641336613
1682104757259938,-71.0002288853284,22.995345998321454,17.288471808956956
1682104757275926,-69.1386282139315,19.180590524147306,18.936446173800164
1682104757291914,-70.7866025787747,20.248722056916108,19.455252918287897
1682104757307902,-62.05844205386438,6.851300831616641,22.26291294728003
1682104757323890,-43.778133821621964,-1.2054627298390415,21.92721446555265
1682104757339878,-21.652552071412288,-12.466620889600904,20.401312275883015
1682104757355866,-5.966277561608308,-17.502098115510876,16.98329137102303
1682104757371853,-3.1891355764095124,-16.464484626535523,10.849164568551146
1682104757387841,-0.5035477225909517,-14.54184786755161,5.264362554360218
1682104757403829,10.727092393377575,-14.755474174105416,2.3956664377813013
1682104757419817,20.61493858243682,-12.344548714427333,0.16784924086368846
1682104757435805,26.077668421454064,-10.330357824063412,-2.3651483939879654
1682104757451793,30.25864042114881,-9.048599984740918,-4.043640802624509
1682104757467781,35.843442435339966,-14.877546349278987,2.7008468757152286
1682104757483769,42.95414663920042,-25.10109102006561,10.208285648889841
1682104757499756,39.505607690547095,-33.82925154497593,19.39421683070111
1682104757515744,32.70008392462046,-43.8696879530022,23.086900129701576
1682104757531738,28.39703974975191,-34.13443198290986,15.060654612039343
1682104757547726,18.05142290379183,-18.570229648279565,3.2806897077897474
1682104757563714,5.722133211261166,-8.163576714732585,-1.022354467078685
1682104757579702,0.7476920729380936,-4.013122758831173,-3.585870145723675
1682104757595689,1.846341649500232,-2.4872205691615363,-5.600061036087595
1682104757611677,5.9357595178148586,-5.203326466773433,-5.9357595178148586
1682104757627665,14.999618524452558,-8.316166933699492,-8.133058670939135
1682104757643653,24.185549706263828,-9.018081940947582,-13.3211261158159
1682104757659641,21.377889677271583,-6.1493858243686645,-16.372930495155288
1682104757675629,11.42900740062555,-1.266498817425827,-17.86831464103159
1682104757691617,2.9144731822690346,3.9826047150377235,-17.776760509651353
1682104757707605,2.8229190508887996,4.287785152971651,-16.159304188601595
1682104757723592,3.921568627450938,2.4872205691615363,-14.053559166857326
1682104757739580,3.677424277103796,1.7853055619134466,-10.818646524757696
1682104757755568,0.41199359121083035,3.555352101930225,-8.346684977492941
1682104757771556,-0.4730296787976158,4.287785152971651,-3.799496452277367
1682104757787544,7.766842145418423,-0.3204394598305953,0.6866559853513081
1682104757803532,23.361562523842167,-7.827878233005208,6.1493858243686645
1682104757819520,23.57518883039586,-14.450293736171488,14.724956130311966
1682104757835507,8.1025406271458,-14.358739604791253,20.004577706568966
1682104757851501,-8.346684977492941,-16.433966582742073,24.582284275577877
1682104757867489,-8.010986495765565,-24.216067750057277,36.39276722362115
1682104757883477,-2.883955138475585,-27.603570611123814,44.113832303349454
1682104757899465,-0.16784924086368846,-18.570229648279565,44.815747310597544
1682104757915453,5.752651255054502,-18.90592813000694,41.367208361943995
1682104757931440,15.76256961928732,-20.218204013122772,38.01022354467091
1682104757947428,23.02586404211479,-20.218204013122772,35.32463569085235
1682104757963416,24.917982757305253,-16.89173723964302,35.599298084992824
1682104757979404,25.345235370412638,-13.809414816510184,34.378576333257115
1682104757995392,24.032959487296694,-11.459525444419,28.244449530785005
1682104758011380,18.44815747310588,-11.642633707179357,19.24162661173409
1682104758027368,12.069886320286855,-9.658960860608772,12.80231937132828
1682104758043356,7.522697795071281,-7.888914320591994,9.079118028534367
1682104758059343,9.29274433508806,-7.156481269550568,6.2714579995422355
1682104758075331,8.89600976577401,-8.377203021286277,3.3112077515830833
1682104758091319,5.264362554360218,-13.595788509956492,-1.6632333867398756
1682104758107307,-0.7782101167315432,-16.250858319981717,-8.041504539559014
1682104758123295,-4.348821240558436,-15.182726787212914,-11.459525444419
1682104758139283,-0.9613183794918996,-11.795223926146264,-12.314030670633997
1682104758155271,4.1962310215915295,-7.278553444724139,-13.412680247196135
1682104758171234,3.8605325398641526,-7.370107576104374,-14.847028305485537
1682104758187222,-0.44251163500416624,-10.574502174410554,-15.21324483100625
1682104758203210,-2.2430762188143945,-12.68024719615471,-13.534752422369706
1682104758219197,1.144426642252256,-11.398489356832215,-11.33745326924543
1682104758235185,1.1139085984588064,-9.628442816815436,-9.475852597848416
1682104758251173,-5.569542992294146,-8.285648889906156,-8.529793240253298
1682104758267161,-16.22034027618838,-9.384298466468294,-9.597924773021987
1682104758283149,-27.2373540856031,-9.170672159914488,-11.398489356832215
1682104758299137,-30.045014114595233,-7.125963225757232,-13.412680247196135
1682104758315125,-25.619897764553343,-3.0670634012359415,-16.250858319981717
1682104758331112,-12.985427634088637,0.7171740291447577,-19.272144655527654
1682104758347100,-6.424048218509142,5.477988860914024,-17.349507896543855
1682104758363088,-4.257267109178315,8.285648889906156,-17.471580071717426
1682104758379076,-5.53902494850081,11.490043488212336,-17.044327458609928
1682104758395064,-4.898146028839506,15.88464179446089,-13.626306553749828
1682104758411052,2.548256656748322,21.59151598382539,-7.003891050583661
1682104758427040,7.522697795071281,26.657511253528583,1.5411612115663047
1682104758443028,3.585870145723675,27.267872129396437,9.872587167162578
1682104758459015,-2.4872205691615363,25.619897764553116,15.121690699626129
1682104758475003,-5.203326466773433,24.49073014419764,17.624170290684333
1682104758490997,-2.7924010070954637,23.117418173495025,16.525520714122194
1682104758506985,-0.9002822919051141,20.859082932783963,12.68024719615471
1682104758522973,-3.8300144960708167,18.265049210345524,8.682383459220205
1682104758538961,-6.424048218509142,15.945677882047676,5.630579079880931
1682104758554948,-6.72922865644307,13.412680247196135,2.6703288319218927
1682104758570936,-11.184863050278409,12.283512626840547,1.022354467078685
1682104758586924,-15.762569619287433,10.818646524757696,-0.3204394598305953
1682104758602912,-15.671015487907312,13.3211261158159,0.5035477225909517
1682104758618900,-13.168535896848994,15.701533531700534,1.266498817425827
1682104758634888,-10.818646524757696,16.00671396963446,1.6937514305333252
1682104758650876,-8.865491721980561,14.755474174105416,1.4190890363927338
1682104758666864,-6.454566262302592,14.206149385824347,0.7171740291447577
1682104758682851,-5.53902494850081,13.595788509956492,-0.015259021896667946
1682104758698839,-4.531929503318793,13.168535896848994,-0.7782101167315432
1682104758714827,-3.4027618829633184,12.64972915236126,-1.3885709925993979
1682104758730815,-6.607156481269499,9.719996948195558,-1.144426642252256
1682104758746803,-16.64759288929588,6.576638437476163,0.41199359121083035
1682104758762791,-28.427557793545475,3.768978408484031,4.16571297779808
1682104758778779,-34.744792858777714,2.0294499122605885,8.377203021286277
1682104758794767,-35.26359960326545,3.6469062333104603,17.13588158999005
1682104758810760,-34.8058289463645,7.248035400930803,24.216067750057164
1682104758826748,-38.19333180743115,8.285648889906156,31.570916304264983
1682104758842736,-45.822842755779334,4.074158846417959,36.14862287327401
1682104758858724,-48.17273212787063,0.6866559853513081,37.705043106736866
1682104758874712,-39.50560769054698,-4.501411459525457,35.17204547188544
1682104758890699,-20.67597467002372,-3.921568627450938,31.32677195391784
1682104758906687,-3.5248340581368893,-4.257267109178315,25.00953688868526
1682104758922675,1.8768596932936816,-7.888914320591994,16.46448462653541
1682104758938663,1.052872510872021,-9.506370641641865,11.032272831311502
1682104758954651,-2.853437094682249,-11.642633707179357,9.170672159914488
1682104758970639,-4.074158846417959,-9.262226291294724,3.341725795376533
1682104758986627,-1.7547875181201107,-4.348821240558436,-0.41199359121083035
1682104759002615,1.5106431677729688,-0.015259021896667946,0.106813153276903
1682104759018602,1.6021972991530902,4.226749065384865,-1.1749446860455919
1682104759034590,2.2735942626077303,6.027313649195094,-3.585870145723675
1682104759050578,4.715037766079149,7.339589532310924,-4.440375371938671
1682104759066566,5.081254291599862,8.1025406271458,-5.600061036087595
1682104759082554,2.97550926985582,7.522697795071281,-7.3090714885175885
1682104759098542,-0.7476920729380936,8.163576714732585,-5.477988860914024
1682104759114530,-4.898146028839506,9.29274433508806,-2.9449912260623705
1682104759130523,-6.393530174715806,9.842069123369129,-0.8392462043183286
1682104759146511,-5.53902494850081,10.360875867856862,0.5035477225909517
1682104759162499,-2.9144731822690346,13.19905394064233,0.6256198977645226
1682104759178487,-3.8300144960708167,13.931486991683755,0.4730296787976158
1682104759194475,-11.154345006485073,17.166399633783385,1.6937514305333252
1682104759210463,-17.715724422064568,22.78171969176765,2.9449912260623705
1682104759226451,-15.94567788204779,22.110322728313008,3.8300144960708167
1682104759242438,-11.245899137865194,18.753337911039807,3.7079423208972457
1682104759258426,-8.712901503013654,16.861219195849458,3.4332799267566543
1682104759274414,-6.546120393682713,14.755474174105416,4.16571297779808
1682104759290402,-4.043640802624509,12.161440451666977,5.1117723353933116
1682104759306390,-4.348821240558436,10.605020218204004,5.081254291599862
1682104759322378,-6.851300831616641,10.360875867856862,4.592965590905578
1682104759338366,-6.2714579995422355,8.89600976577401,3.8300144960708167
1682104759354354,-1.7853055619134466,5.783169298847952,1.6327153429465397
1682104759370341,1.846341649500232,3.128099488822727,-0.1373311970702389
1682104759386329,2.9144731822690346,1.9989318684672526,-1.7242694743266611
1682104759402317,3.3112077515830833,0.7782101167315432,-3.4943160143434397
1682104759418305,4.684519722285813,-1.4190890363927338,-3.768978408484031
1682104759434293,4.013122758831173,-2.30411230640118,-4.16571297779808
1682104759450256,1.5106431677729688,-1.7547875181201107,-4.684519722285813
1682104759466244,2.182040131227609,-2.7924010070954637,-5.142290379186647
1682104759482232,4.86762798504617,-4.287785152971651,-6.698710612649734
1682104759498220,6.759746700236519,-4.409857328145222,-8.590829327840083
1682104759514207,7.003891050583661,-4.348821240558436,-8.163576714732585
1682104759530195,3.372243839169869,-3.219653620202962,-6.72922865644307
1682104759546183,0.8392462043183286,-3.219653620202962,-5.386434729533789
1682104759562171,-0.7782101167315432,-3.219653620202962,-4.83710994125272
1682104759578159,-2.2430762188143945,-2.090485999847374,-4.898146028839506
1682104759594147,0.7782101167315432,-2.6703288319218927,-5.630579079880931
1682104759610135,3.6163881895170107,-2.9144731822690346,-7.248035400930803
1682104759626123,-0.41199359121083035,-0.2594033722438098,-6.637674525062948
1682104759642110,-1.4190890363927338,-0.5645838101777372,-5.203326466773433
1682104759658098,2.761882963302014,-3.799496452277367,-4.043640802624509
1682104759674086,5.996795605401644,-6.027313649195094,-3.8300144960708167
1682104759690074,3.6163881895170107,-4.348821240558436,-4.409857328145222
1682104759706062,2.4567025253680868,-3.3112077515830833,-5.2338445105668825
1682104759722050,6.179903868162,-5.325398641947004,-5.905241474021523
1682104759738038,5.966277561608308,-5.264362554360218,-6.301976043335571
1682104759754026,-0.44251163500416624,-1.937895780880467,-6.820782787823305
1682104759770019,-4.257267109178315,-0.22888532845047393,-6.72922865644307
1682104759786007,-0.19836728465702436,-2.7924010070954637,-6.240939955748786
1682104759801995,4.83710994125272,-5.050736247806526,-6.424048218509142
1682104759817983,5.661097123674381,-5.081254291599862,-6.485084306095928
1682104759833971,4.83710994125272,-4.287785152971651,-5.996795605401644
1682104759849959,5.477988860914024,-4.592965590905578,-5.661097123674381
1682104759865946,3.128099488822727,-3.921568627450938,-4.83710994125272
1682104759881934,-2.334630350194516,-1.9073777370870175,-3.768978408484031
1682104759897922,-3.8300144960708167,-1.9989318684672526,-2.8229190508887996
1682104759913910,0.6561379415579722,-4.776073853665935,-2.4872205691615363
1682104759929898,3.4943160143434397,-5.691615167467717,-2.4872205691615363
1682104759945886,1.4496070801861833,-3.799496452277367,-2.8229190508887996
1682104759961874,-1.8768596932936816,-1.4190890363927338,-3.0365453574426056
1682104759977862,-2.090485999847374,-1.4801251239795192,-2.853437094682249
1682104759993849,-1.7242694743266611,-2.5177386129548722,-2.30411230640118
1682104760009837,-2.2735942626077303,-3.128099488822727,-1.8768596932936816
1682104760025825,-2.212558175020945,-3.677424277103796,-2.1210040436408235
1682104760041813,-3.219653620202962,-3.3112077515830833,-2.30411230640118
1682104760057801,-4.592965590905578,-2.6703288319218927,-2.30411230640118
1682104760073789,-1.9989318684672526,-4.043640802624509,-1.6937514305333252
1682104760089782,2.2735942626077303,-6.759746700236519,-1.3275349050126124
1682104760105770,2.090485999847374,-6.820782787823305,-0.8697642481116645
1682104760121758,-1.5411612115663047,-5.142290379186647,-0.6256198977645226
1682104760137746,-5.569542992294146,-3.463797970550104,-1.052872510872021
1682104760153734,-6.637674525062948,-3.6163881895170107,-1.0833905546654705
1682104760169722,-4.623483634699028,-5.2338445105668825,-0.2899214160372594
1682104760185710,-2.883955138475585,-6.363012130922357,0.8392462043183286
1682104760201697,-2.4567025253680868,-6.332494087129021,2.3956664377813013
1682104760217685,-11.093308918898288,-1.6632333867398756,1.968413824673803
1682104760233673,-36.39276722362092,10.849164568551146,5.050736247806526
1682104760249661,-71.6411078049897,26.657511253528583,11.85626001373305
1682104760265649,-91.630426489662,28.58014801251238,5.325398641947004
1682104760281637,-86.04562447547119,18.844892042420042,5.477988860914024
1682104760297625,-55.77172503242548,-4.959182116426291,6.363012130922357
1682104760313613,-16.586556801709094,-33.646143282215576,15.21324483100625
1682104760329600,-8.682383459220205,-48.691538872358365,27.389944304570008
1682104760345588,-22.4460212100405,-54.76462958724346,39.78027008468757
1682104760361576,-34.43961242084379,-61.66170748455022,47.68444342717635
1682104760377564,-35.17204547188521,-72.6482032501716,53.45235370412752
1682104760393552,-27.603570611123814,-85.58785381857024,55.61913481345846
1682104760409546,-14.450293736171488,-95.71984435797663,54.306858930342514
1682104760425533,-7.675288014038301,-95.50621805142293,49.97329671168086
1682104760441521,-0.4730296787976158,-94.5601586938277,35.56878004119949
1682104760457509,0.1373311970702389,-84.30609597924774,21.80514229037908
1682104760473497,-2.731364919508678,-72.55664911879148,9.933623254749364
1682104760489485,-5.844205386434737,-61.722743572137006,0.6256198977645226
1682104760505473,-4.623483634699028,-53.788052185854895,-7.003891050583661
1682104760521461,-2.1210040436408235,-46.28061341268017,-13.19905394064233
1682104760537449,-1.022354467078685,-38.5900663767452,-16.983291371023142
1682104760553436,-4.226749065384865,-31.937132829785583,-17.19691767757695
1682104760569424,-12.252994583047212,-26.138704509040963,-13.046463721675423
1682104760585412,-18.875410086213492,-22.781719691767762,-5.966277561608308
1682104760601400,-12.710765239948046,-26.901655603875838,1.5716792553597543
1682104760617388,-9.079118028534367,-30.289158464942375,7.797360189211872
1682104760633376,-18.6617837796598,-21.19478141451134,15.640497444113748
1682104760649364,-23.11741817349514,-19.72991531242849,16.43396658274196
1682104760665351,-14.54184786755161,-20.065613794155865,16.55603875791553
1682104760681339,-6.942854962996876,-13.473716334782921,11.032272831311502
1682104760697327,5.447470817120575,-15.854123750667668,-0.16784924086368846
1682104760713315,15.457389181353392,-13.382162203402686,-5.9357595178148586
1682104760729278,17.196917677576835,-6.088349736781879,-9.079118028534367
1682104760745266,21.92721446555265,-1.2359807736323773,-9.750514991989007
1682104760761254,24.032959487296694,2.7924010070954637,-7.858396276798658
1682104760777242,20.37079423208968,9.689478904402222,-13.107499809262208
1682104760793230,11.123826962691624,16.43396658274196,-17.380025940337305
1682104760809218,8.865491721980561,16.70862897688255,-14.297703517204468
1682104760825205,20.431830319676465,8.468757152666512,-4.531929503318793
1682104760841193,26.321812771801206,4.1962310215915295,0.5951018539711868
1682104760857181,22.049286640726223,8.590829327840083,-0.22888532845047393
1682104760873169,19.363698786907662,15.121690699626129,-2.6092927443351073
1682104760889157,13.35164415960935,22.201876859693243,-4.074158846417959
1682104760905145,5.2338445105668825,26.87113756008239,-2.3956664377813013
1682104760921133,0.106813153276903,28.54962996871882,1.8768596932936816
1682104760937121,2.30411230640118,27.786678873884057,5.691615167467717
1682104760953108,5.53902494850081,28.763256275272624,2.4567025253680868
1682104760969096,9.689478904402222,30.685893034256424,1.144426642252256
1682104760985084,23.17845426108181,32.42542153047998,-4.898146028839506
1682104761001072,34.34805828946378,33.82925154497616,-7.888914320591994
1682104761017060,36.48432135500116,35.26359960326545,-8.89600976577401
1682104761033048,35.99603265430687,36.75898374914186,-9.506370641641865
1682104761049041,35.14152742809188,38.681620508125434,-13.382162203402686
1682104761065029,37.36934462500972,36.33173113603425,-21.408407721065146
1682104761081017,36.97261005569544,30.472266727702618,-28.305485618371904
1682104761097005,26.962691691462396,16.250858319981603,-18.142977035172066
1682104761112993,24.460212100404306,8.285648889906156,0.3204394598305953
1682104761128981,34.10391393911664,10.482948043030433,9.109636072327703
1682104761144969,40.60425726710923,0.93080033569845,7.858396276798658
1682104761160956,35.080491340505205,-6.637674525062948,-1.6327153429465397
1682104761176944,37.003128099489004,-13.382162203402686,-15.396353093766606
1682104761192932,49.69863431754038,-25.497825589379772,-31.784542610818676
1682104761208920,46.677347981994444,-11.459525444419,-32.39490348668653
1682104761224908,38.89524681467924,11.520561532005786,-21.10322728313122
1682104761240896,26.35233081559454,31.38780804150474,-15.457389181353392
1682104761256884,13.687342641336613,39.658197909514,-15.793087663080883
1682104761272872,-1.4496070801861833,41.12306401159685,-14.57236591134506
1682104761288859,0.7171740291447577,38.19333180743115,-12.985427634088637
1682104761304847,6.027313649195094,35.56878004119949,-9.750514991989007
1682104761320835,4.287785152971651,33.981841763943066,-7.248035400930803
1682104761336823,-0.9002822919051141,34.34805828946378,-5.661097123674381
1682104761352811,-1.3885709925993979,34.19546807049687,-4.83710994125272
1682104761368805,0.9918364232852355,30.502784771495953,-4.226749065384865
1682104761384792,0.44251163500416624,22.415503166246936,-2.8229190508887996
1682104761400780,2.1515220874341594,16.55603875791553,-3.0365453574426056
1682104761416768,2.6092927443351073,15.548943312733627,-1.7853055619134466
1682104761432756,6.240939955748786,16.189822232394818,-0.045777065690117524
1682104761448744,11.581597619592571,16.769665064469336,-0.9918364232852355
1682104761464732,10.238803692683291,18.631265735866236,-1.1139085984588064
1682104761480720,6.88181887541009,20.523384451056586,-0.07629510948345342
1682104761496708,4.684519722285813,21.83566033417253,0.8087281605248791
1682104761512695,3.8300144960708167,21.774624246585745,1.022354467078685
1682104761528683,2.6092927443351073,20.706492713816942,0.6866559853513081
1682104761544671,2.1515220874341594,20.34027618829623,1.052872510872021
1682104761560659,6.332494087129021,19.11955443656052,0.44251163500416624
1682104761576647,4.684519722285813,18.05142290379183,0.015259021896667946
1682104761592635,1.2970168612191628,16.43396658274196,-0.41199359121083035
1682104761608623,-1.4496070801861833,14.084077210650776,-0.1373311970702389
1682104761624611,-2.6703288319218927,11.490043488212336,0.41199359121083035
1682104761640598,-1.266498817425827,9.750514991989007,0.045777065690117524
1682104761656586,1.968413824673803,8.468757152666512,-1.3580529488059483
1682104761672574,2.853437094682249,8.590829327840083,-3.4332799267566543
1682104761688568,3.3112077515830833,9.018081940947582,-4.806591897459384
1682104761704556,4.287785152971651,8.651865415426869,-5.142290379186647
1682104761720543,3.555352101930225,7.248035400930803,-4.440375371938671
1682104761736531,2.5787747005416577,4.83710994125272,-2.853437094682249
1682104761752519,4.257267109178315,1.6021972991530902,-0.5645838101777372
1682104761768507,6.912336919203426,-0.9002822919051141,1.4801251239795192
1682104761784495,8.957045853360796,-1.8158236057068962,2.334630350194516
1682104761800483,10.238803692683291,-1.6632333867398756,1.8158236057068962
1682104761816471,9.323262378881509,-0.8697642481116645,0.9918364232852355
1682104761832459,7.278553444724139,-0.4730296787976158,0.3509575036240449
1682104761848446,7.064927138170447,-1.2054627298390415,0.015259021896667946
1682104761864434,6.9733730067902115,-2.4567025253680868,0.38147554741738077
1682104761880422,7.736324101625087,-3.9520866712443876,0.8087281605248791
1682104761896410,9.018081940947582,-5.172808422980097,0.6256198977645226
1682104761912398,10.391393911650198,-5.691615167467717,0.1373311970702389
1682104761928386,10.055695429922935,-5.264362554360218,-0.6256198977645226
1682104761944374,9.109636072327703,-5.50850690470736,-1.6632333867398756
1682104761960362,10.238803692683291,-5.386434729533789,-3.0670634012359415
1682104761976349,8.22461280231937,-4.1962310215915295,-4.654001678492364
1682104761992337,5.9357595178148586,-3.5248340581368893,-4.959182116426291
1682104762008300,5.081254291599862,-1.9989318684672526,-4.898146028839506
1682104762024288,3.768978408484031,0.44251163500416624,-3.3112077515830833
1682104762040275,3.4027618829633184,0.015259021896667946,-1.3885709925993979
1682104762056263,4.013122758831173,-0.19836728465702436,0.44251163500416624
1682104762072250,4.83710994125272,-0.22888532845047393,1.3885709925993979
1682104762088237,6.485084306095928,-0.2899214160372594,1.6327153429465397
1682104762104225,6.424048218509142,-0.1373311970702389,1.9073777370870175
1682104762120212,5.203326466773433,-0.16784924086368846,2.5177386129548722
1682104762136200,5.661097123674381,-0.9613183794918996,3.250171663996298
1682104762152187,5.691615167467717,-1.846341649500232,3.677424277103796
1682104762168174,4.86762798504617,-2.334630350194516,3.250171663996298
1682104762184162,4.074158846417959,-2.5787747005416577,1.7853055619134466
1682104762200149,4.409857328145222,-2.883955138475585,0.2594033722438098
1682104762216137,4.959182116426291,-2.853437094682249,-1.3885709925993979
1682104762232124,3.7384603646905816,-2.853437094682249,-2.4567025253680868
1682104762248111,1.3275349050126124,-3.0365453574426056,-3.0365453574426056
1682104762264099,-0.19836728465702436,-3.585870145723675,-3.7384603646905816
1682104762280086,-1.052872510872021,-4.348821240558436,-4.715037766079149
1682104762296074,-2.059967956054038,-4.928664072632955,-5.9357595178148586
1682104762312061,-1.3580529488059483,-5.50850690470736,-7.339589532310924
1682104762328033,1.6937514305333252,-6.118867780575215,-8.651865415426869
1682104762344020,4.654001678492364,-6.424048218509142,-9.750514991989007
1682104762360008,4.531929503318793,-6.088349736781879,-10.330357824063412
1682104762375995,2.6092927443351073,-5.264362554360218,-9.9641412985427
1682104762391983,-0.6561379415579722,-4.135194934004744,-8.316166933699492
1682104762407970,-3.8605325398641526,-3.4943160143434397,-5.752651255054502
1682104762423957,-4.776073853665935,-4.074158846417959,-3.372243839169869
1682104762439945,-4.470893415732007,-5.691615167467717,-1.8158236057068962
1682104762455932,-3.1891355764095124,-7.156481269550568,-1.3580529488059483
1682104762471920,-1.9073777370870175,-7.644769970244852,-1.5716792553597543
1682104762487907,-2.5177386129548722,-7.003891050583661,-2.334630350194516
1682104762503894,-2.334630350194516,-6.0578316929884295,-2.9144731822690346
1682104762519882,-2.3651483939879654,-4.86762798504617,-2.9144731822690346
1682104762535869,-3.3112077515830833,-4.074158846417959,-2.5787747005416577
1682104762551857,-2.2430762188143945,-5.600061036087595,-2.4567025253680868
1682104762567844,-1.3275349050126124,-6.576638437476163,-2.548256656748322
1682104762583831,-1.4496070801861833,-6.912336919203426,-3.1891355764095124
1682104762599819,-0.9613183794918996,-7.40062561989771,-3.799496452277367
1682104762615806,-0.9613183794918996,-7.827878233005208,-4.16571297779808
1682104762631794,-2.059967956054038,-8.010986495765565,-3.9826047150377235
1682104762647796,-3.6469062333104603,-8.316166933699492,-3.891050583657602
1682104762663784,-4.470893415732007,-8.194094758525921,-4.013122758831173
1682104762679771,0.015259021896667946,-9.872587167162578,-4.531929503318793
1682104762695758,0.8087281605248791,-9.56740672922865,-4.989700160219741
1682104762711746,-1.1139085984588064,-7.980468451972229,-4.898146028839506
1682104762727733,-1.3275349050126124,-6.790264744029855,-4.379339284351886
1682104762743721,-2.334630350194516,-5.264362554360218,-3.250171663996298
1682104762759708,-1.7547875181201107,-4.684519722285813,-1.4801251239795192
1682104762775695,-3.006027313649156,-5.2338445105668825,0.7476920729380936
1682104762791683,-2.1210040436408235,-5.325398641947004,2.731364919508678
1682104762807670,-0.19836728465702436,-5.264362554360218,3.7079423208972457
1682104762823658,1.846341649500232,-4.287785152971651,4.013122758831173
1682104762839645,1.5106431677729688,-2.059967956054038,4.226749065384865
1682104762855632,-3.6469062333104603,1.2359807736323773,4.989700160219741
1682104762871620,-6.240939955748786,2.548256656748322,6.668192568856284
1682104762887607,-6.118867780575215,3.7079423208972457,8.346684977492941
1682104762903595,-5.600061036087595,4.562447547112242,9.903105210955914
1682104762919582,-5.1117723353933116,6.363012130922357,11.673151750972693
1682104762935569,-4.379339284351886,8.438239108873063,13.626306553749828
1682104762951557,-5.661097123674381,9.384298466468294,14.511329823758274
1682104762967529,-7.064927138170447,11.398489356832215,14.785992217898752
1682104762983516,-7.248035400930803,13.962005035477205,14.877546349278987
1682104762999504,-8.499275196459848,16.525520714122194,14.755474174105416
1682104763015491,-8.590829327840083,16.952773327229693,15.426871137560056
1682104763031479,-6.179903868162,16.220340276188267,15.609979400320412
1682104763047466,-7.370107576104374,16.43396658274196,15.88464179446089
1682104763063453,-8.133058670939135,17.1053635461966,14.389257648584703
1682104763079441,-10.208285648889841,18.44815747310588,12.558175020981139
1682104763095428,-11.062790875104838,19.851987487601946,11.459525444419
1682104763111415,-11.30693522545198,20.737010757610392,11.123826962691624
1682104763127403,-12.100404364080191,20.8896009765773,9.475852597848416
1682104763143390,-11.520561532005786,19.91302357518873,7.736324101625087
1682104763159378,-9.018081940947582,18.509193560692665,6.0578316929884295
1682104763175365,-6.72922865644307,17.196917677576835,5.813687342641288
1682104763191352,-4.135194934004744,16.00671396963446,5.874723430228073
1682104763207340,-4.806591897459384,16.861219195849458,7.125963225757232
1682104763223327,-8.834973678187225,18.814373998626593,9.262226291294724
1682104763239315,-12.863355458915066,21.469443808651818,12.039368276493406
1682104763255302,-16.708628976882665,23.086900129701576,15.182726787212914
1682104763271289,-15.091172655832679,22.995345998321454,17.77676050965124
1682104763287292,-7.980468451972229,20.004577706568966,19.974059662775517
1682104763303280,-4.1962310215915295,16.220340276188267,22.201876859693243
1682104763319267,-7.522697795071281,13.138017853055544,24.55176623178454
1682104763335254,1.7547875181201107,9.9641412985427,26.87113756008239
1682104763351242,3.4027618829633184,7.492179751277945,29.80086976424809
1682104763367229,3.677424277103796,5.53902494850081,33.06630045014117
1682104763383216,3.128099488822727,3.891050583657602,36.05706874189377
1682104763399204,4.959182116426291,2.5177386129548722,38.19333180743115
1682104763415191,5.874723430228073,2.4567025253680868,39.810788128481136
1682104763431179,1.144426642252256,4.501411459525457,41.245136186770424
1682104763447166,6.607156481269499,5.996795605401644,41.76394293125827
1682104763463153,5.50850690470736,9.109636072327703,41.6418707560847
1682104763479141,5.783169298847952,12.52765697718769,40.87891966124971
1682104763495128,7.431143663691159,16.03723201342791,39.627679865720665
1682104763511116,0.9918364232852355,20.645456626230157,39.04783703364615
1682104763527103,1.5411612115663047,22.995345998321454,38.6511024643321
1682104763543090,-0.16784924086368846,24.88746471351169,37.27779049362948
1682104763559078,-1.5106431677729688,25.619897764553116,35.47722590981925
1682104763575065,-3.219653620202962,25.925078202487157,33.218890669108305
1682104763591053,-4.074158846417959,24.88746471351169,30.746929121843095
1682104763607055,-2.6703288319218927,22.78171969176765,28.79377431906596
1682104763623043,-1.2054627298390415,21.225299458304676,27.298390173189773
1682104763639030,-0.9002822919051141,19.24162661173409,25.680933852140015
1682104763655017,-1.3885709925993979,18.509193560692665,23.788815136949665
1682104763671005,-0.16784924086368846,17.196917677576835,21.622034027618724
1682104763686992,-5.783169298847952,17.89883268482481,19.424734874494447
1682104763702980,-7.522697795071281,17.77676050965124,17.593652246890883
1682104763718967,-5.600061036087595,16.46448462653541,15.030136568245894
1682104763734954,-5.569542992294146,15.793087663080769,12.985427634088637
1682104763750942,-6.9733730067902115,15.2437628747997,11.367971313038765
1682104763766929,-9.41481651026163,14.69443808651863,10.269321736476627
1682104763782917,-9.872587167162578,13.748378728923399,9.018081940947582
1682104763798904,-7.217517357137353,12.314030670633997,7.3090714885175885
1682104763814891,-5.386434729533789,11.093308918898288,5.0202182040130765
1682104763830879,-4.501411459525457,9.384298466468294,2.2430762188143945
1682104763846866,-3.4332799267566543,7.064927138170447,-0.3509575036240449
1682104763862854,-3.1891355764095124,4.623483634699028,-2.9144731822690346
1682104763878841,-3.585870145723675,2.4872205691615363,-4.623483634699028
1682104763894828,-2.548256656748322,0.5340657663844013,-5.874723430228073
1682104763910816,-0.106813153276903,-1.2359807736323773,-7.858396276798658
1682104763926818,3.3112077515830833,-2.4872205691615363,-10.879682612344482
1682104763942806,4.562447547112242,-2.7924010070954637,-13.99252307927054
1682104763958793,5.569542992294146,-3.219653620202962,-16.61707484550243
1682104763974781,8.316166933699492,-4.470893415732007,-18.814373998626706
1682104763990768,7.644769970244852,-5.325398641947004,-20.12664988174265
1682104764006755,5.142290379186647,-6.332494087129021,-20.55390249485015
1682104764022743,3.128099488822727,-7.40062561989771,-20.706492713817056
1682104764038730,2.5787747005416577,-8.468757152666512,-20.920119020370862
1682104764054718,4.287785152971651,-9.29274433508806,-21.622034027618838
1682104764070705,6.179903868162,-9.933623254749364,-22.354467078660264
1682104764086692,4.501411459525457,-9.719996948195558,-23.025864042114904
1682104764102680,1.5411612115663047,-8.865491721980561,-23.392080567635617
1682104764118667,0.44251163500416624,-8.682383459220205,-23.544670786602637
1682104764134655,1.7853055619134466,-9.140154116121153,-23.33104448004883
1682104764150642,3.0365453574426056,-9.109636072327703,-22.53757534142062
1682104764166629,3.341725795376533,-9.048599984740918,-21.377889677271696
1682104764182617,3.372243839169869,-8.712901503013654,-20.065613794155865
1682104764198604,3.463797970550104,-8.712901503013654,-19.05851834897385
1682104764214592,2.5787747005416577,-8.194094758525921,-18.051422903791945
1682104764230579,-0.19836728465702436,-7.064927138170447,-16.89173723964302
1682104764246551,-1.937895780880467,-6.393530174715806,-15.854123750667668
1682104764262539,-3.7384603646905816,-5.905241474021523,-14.785992217898752
1682104764278526,-2.9144731822690346,-6.027313649195094,-14.145113298237561
1682104764294513,-2.6703288319218927,-5.142290379186647,-14.175631342030897
1682104764310501,-3.0365453574426056,-3.341725795376533,-14.602883955138395
1682104764326488,-3.219653620202962,-1.5106431677729688,-14.633401998931845
1682104764342476,-0.93080033569845,-1.3275349050126124,-14.053559166857326
1682104764358463,2.0294499122605885,-2.3956664377813013,-12.64972915236126
1682104764374450,0.5951018539711868,-2.9144731822690346,-11.42900740062555
1682104764390438,-4.16571297779808,-2.5787747005416577,-10.513466086823769
1682104764406425,-6.607156481269499,-2.426184481574751,-9.9641412985427
1682104764422412,-6.088349736781879,-2.182040131227609,-10.11673151750972
1682104764438400,-3.250171663996298,-1.937895780880467,-11.062790875104838
1682104764454387,-1.0833905546654705,-1.4801251239795192,-12.52765697718769
1682104764470375,-3.372243839169869,0.015259021896667946,-14.419775692378039
1682104764486362,-10.482948043030433,1.968413824673803,-15.732051575494097
1682104764502349,-8.89600976577401,-0.22888532845047393,-15.426871137560056
1682104764518337,-3.4943160143434397,-4.440375371938671,-14.908064393072323
1682104764534324,-1.9989318684672526,-6.637674525062948,-14.389257648584703
1682104764550312,-2.4872205691615363,-7.492179751277945,-14.02304112306399
1682104764566314,-4.013122758831173,-7.980468451972229,-13.382162203402686
1682104764582302,-4.776073853665935,-8.834973678187225,-12.741283283741495
1682104764598289,-5.264362554360218,-9.079118028534367,-12.00885023270007
1682104764614277,-4.654001678492364,-8.682383459220205,-11.642633707179357
1682104764630264,-5.172808422980097,-7.370107576104374,-11.85626001373305
1682104764646251,-5.874723430228073,-5.447470817120575,-12.619211108567924
1682104764662239,-4.1046768902112944,-3.6469062333104603,-14.053559166857326
1682104764678226,-3.1891355764095124,-1.6327153429465397,-15.518425268940177
1682104764694213,-3.799496452277367,-0.045777065690117524,-16.403448538948737
1682104764710201,-4.654001678492364,0.5951018539711868,-16.250858319981717
1682104764726188,-3.4332799267566543,-0.1373311970702389,-15.396353093766606
1682104764742176,-0.07629510948345342,-2.1210040436408235,-14.053559166857326
1682104764758163,2.059967956054038,-3.891050583657602,-12.52765697718769
1682104764774150,1.846341649500232,-4.806591897459384,-11.123826962691624
1682104764790138,0.22888532845047393,-4.898146028839506,-9.536888685435201
1682104764806125,0.3509575036240449,-5.264362554360218,-8.010986495765565
1682104764822113,-0.44251163500416624,-5.813687342641288,-6.515602349889377
1682104764838100,-1.9073777370870175,-5.966277561608308,-5.081254291599862
1682104764854087,-3.2806897077897474,-5.752651255054502,-3.921568627450938
1682104764870075,-3.4027618829633184,-5.1117723353933116,-3.372243839169869
1682104764886078,-3.4943160143434397,-3.799496452277367,-3.219653620202962
1682104764902065,-4.348821240558436,-2.2430762188143945,-3.5248340581368893
1682104764918052,-3.4943160143434397,-1.4496070801861833,-3.0670634012359415
1682104764934040,-3.372243839169869,-0.8697642481116645,-2.761882963302014
1682104764950027,-2.8229190508887996,-0.9002822919051141,-2.2430762188143945
1682104764966014,-2.548256656748322,-1.0833905546654705,-2.059967956054038
1682104764982002,-3.6163881895170107,-1.2054627298390415,-1.937895780880467
1682104764997989,-3.1891355764095124,-2.1515220874341594,-1.5716792553597543
1682104765013977,-1.968413824673803,-3.463797970550104,-1.4190890363927338
1682104765029964,-1.5411612115663047,-4.928664072632955,-1.9073777370870175
1682104765045951,-1.4190890363927338,-5.325398641947004,-1.2359807736323773
1682104765061939,-3.3112077515830833,-4.745555809872599,-1.937895780880467
1682104765077926,-2.97550926985582,-4.776073853665935,-2.548256656748322
1682104765093914,-0.9613183794918996,-5.1117723353933116,-3.0365453574426056
1682104765109901,-0.44251163500416624,-5.0202182040130765,-3.8300144960708167
1682104765125888,-0.045777065690117524,-5.050736247806526,-4.592965590905578
1682104765141876,0.6866559853513081,-5.294880598153668,-5.1117723353933116
1682104765157863,1.9073777370870175,-5.691615167467717,-5.447470817120575
1682104765173851,2.5787747005416577,-5.874723430228073,-5.53902494850081
1682104765189838,2.426184481574751,-5.752651255054502,-5.905241474021523
1682104765205841,1.5411612115663047,-5.081254291599862,-5.966277561608308
1682104765221828,0.8392462043183286,-4.562447547112242,-5.600061036087595
1682104765237815,1.4801251239795192,-4.654001678492364,-5.264362554360218
1682104765253803,2.6703288319218927,-4.86762798504617,-5.1117723353933116
1682104765269790,4.470893415732007,-5.050736247806526,-4.776073853665935
1682104765285778,3.921568627450938,-4.86762798504617,-4.592965590905578
1682104765301765,1.1139085984588064,-3.9826047150377235,-4.348821240558436
1682104765317752,-2.2735942626077303,-2.9144731822690346,-3.768978408484031
1682104765333740,-1.5716792553597543,-2.7924010070954637,-2.6703288319218927
1682104765349727,1.6632333867398756,-3.006027313649156,-1.4801251239795192
1682104765365715,2.090485999847374,-2.5177386129548722,-1.3275349050126124
1682104765381702,0.1373311970702389,-1.4190890363927338,-1.2359807736323773
1682104765397689,-0.19836728465702436,-1.2359807736323773,-0.6561379415579722
1682104765413677,-0.8392462043183286,-1.2970168612191628,-0.3204394598305953
1682104765429664,-0.5035477225909517,-1.052872510872021,0.16784924086368846
1682104765445652,1.052872510872021,-0.19836728465702436,0.5645838101777372
1682104765461639,2.1515220874341594,1.0833905546654705,0.6256198977645226
1682104765477626,1.2054627298390415,3.219653620202962,0.7782101167315432
1682104765493614,-5.783169298847952,9.56740672922865,2.3956664377813013
1682104765509601,-11.30693522545198,8.07202258335235,4.531929503318793
1682104765525573,-7.370107576104374,5.081254291599862,5.50850690470736
1682104765541561,-12.039368276493406,-0.015259021896667946,3.463797970550104
1682104765557548,-8.438239108873063,-0.1373311970702389,5.2338445105668825
1682104765573536,-6.9733730067902115,0.8392462043183286,5.691615167467717
1682104765589523,-18.051422903791945,8.1025406271458,7.125963225757232
1682104765605510,-32.15075913633939,14.114595254444112,14.66392004272518
1682104765621498,-29.5872434576944,11.490043488212336,19.058518348973735
1682104765637485,-38.773174639505555,13.687342641336613,28.061341268024535
1682104765653473,-45.395590142671836,18.72281986724647,25.98611429007383
1682104765669460,-29.343099107347257,11.917296101319835,20.096131837949088
1682104765685447,-17.807278553444803,0.5340657663844013,14.938582436865772
1682104765701435,-14.816510261692201,6.820782787823305,17.92935072861826
1682104765717422,-27.11528191042953,11.245899137865194,23.84985122453645
1682104765733410,-57.75539787899595,21.59151598382539,29.190508888380236
1682104765749397,-15.518425268940177,1.2054627298390415,30.289158464942375
1682104765765384,15.487907225146841,-4.989700160219741,24.063477531090257
1682104765781372,20.8896009765773,-10.940718699931267,33.859769588769495
1682104765797359,34.378576333257115,-15.487907225146841,32.120241092546166
1682104765813346,33.0052643625545,-35.8739604791333,27.725642786297385
1682104765829334,41.5808346684978,-32.39490348668653,38.864728770885904
1682104765845337,25.436789501792873,-24.368657969024184,48.93568322270539
1682104765861324,-2.0294499122605885,-20.43183031967658,62.21103227283129
1682104765877311,-12.954909590295188,-8.865491721980561,74.20462348363458
1682104765893299,-14.877546349278987,-4.135194934004744,80.6439307240405
1682104765909286,0.5340657663844013,-8.957045853360796,92.57648584725712
1682104765925274,6.485084306095928,-17.593652246890997,103.92919813839944
1682104765941261,-0.9002822919051141,-13.168535896848994,123.18608377203032
1682104765957248,-3.6163881895170107,-6.790264744029855,133.1044480048829
1682104765973236,-9.781033035782343,-4.592965590905578,131.45647364003958
1682104765989223,-14.419775692378039,-14.969100480659108,124.95613031204698
1682104766005211,-18.387121385519208,-7.949950408178779,129.38124666208887
1682104766021198,-38.49851224536508,11.642633707179357,124.77302204928674
1682104766037185,-45.54818036163874,16.46448462653541,132.49408712901504
1682104766053173,-21.98825055313955,55.61913481345846,128.4046692607003
1682104766069160,-21.43892576485848,72.61768520637816,142.22934309910738
1682104766085147,-13.595788509956492,60.28839551384749,155.41313801785304
1682104766101135,-9.079118028534367,36.14862287327401,153.6736095216295
1682104766117122,-19.119554436560634,23.17845426108181,154.92484931715876
1682104766133110,-19.546807049668132,18.32608529793231,150.6218051422902
1682104766149097,-18.997482261387063,16.861219195849458,143.60265506981
1682104766165100,-18.722819867246585,15.487907225146841,147.93621728847165
1682104766181087,-14.145113298237561,12.039368276493406,142.5345235370412
1682104766197075,-0.19836728465702436,9.170672159914488,144.27405203326452
1682104766213062,1.968413824673803,15.671015487907198,150.34714274814974
1682104766229049,4.043640802624509,28.73273823147929,157.42732890821708
1682104766245037,14.54184786755161,46.18905928130016,147.3868925001907
1682104766261024,16.03723201342791,56.41260395208678,133.77584496833742
1682104766277011,19.333180743114326,62.943465323872715,127.91638056000602
1682104766292999,24.979018844891925,68.80292973220412,124.22369726100555
1682104766308986,28.0308232242312,75.73052567330433,123.85748073548484
1682104766324974,29.49568932631405,83.51262684061953,125.16975661860079
1682104766340961,33.218890669108305,91.90508888380236,127.36705577172506
1682104766356948,39.04783703364615,104.41748683909373,130.08316166933696
1682104766372936,37.857633325704,108.41535057602823,134.84397650110623
1682104766388923,32.76112001220736,109.02571145189609,140.9781033035781
1682104766404911,26.382848859388105,107.92706187533395,147.14274814984356
1682104766420898,23.910887312123236,111.77233539330132,152.91065842679473
1682104766436885,25.65041580834668,119.18822003509581,151.5373464560921
1682104766452873,31.448844129091412,133.7453269245441,153.2463569085221
1682104766468860,24.155031662470265,141.3138017853055,154.1008621347371
1682104766484863,23.208972304875147,150.22507057297616,161.9439993896392
1682104766500850,24.979018844891925,152.51392385748068,172.86945906767392
1682104766516838,29.282063019760244,155.2605477988859,177.9964904249639
1682104766532825,30.13656824597524,145.8304722667276,191.4244296940567
1682104766548812,21.530479896238603,132.79926756694886,196.88715953307383
1682104766564800,18.387121385519094,123.64385442893104,190.05111772335385
1682104766580787,15.304798962386485,110.52109559777227,166.9489585717556
1682104766596775,12.252994583047212,94.40756847486091,143.02281223773548
1682104766612762,13.839932860303634,67.39909971770817,122.66727702754247
1682104766628749,18.417639429312544,41.428244449530894,118.1811245899139
1682104766644737,27.969787136644527,26.29129472800787,112.62684061951632
1682104766660724,32.120241092546166,15.91515983825434,108.323796444648
1682104766676712,36.75898374914186,12.069886320286855,108.56794079499514
1682104766692699,41.550316624704465,14.297703517204468,99.62615396353112
1682104766708686,44.937819485771115,13.412680247196135,75.02861066605624
1682104766724674,44.754711223010645,13.504234378576257,49.72915236133372
1682104766740661,44.754711223010645,19.851987487601946,36.88105592431543
1682104766756649,44.41901274128327,30.77744716563666,35.17204547188544
1682104766772636,36.66742961776163,29.67879758907452,32.42542153047998
1682104766788623,29.526207370107386,20.706492713816942,35.47722590981925
1682104766804596,23.30052643625538,22.995345998321454,26.016632333867392
