Timestamp (microseconds),Accel X (g),Accel Y (g),Accel Z (g)
1677618661175323,-0.07281605249103551,6.713969634546402E-4,1.0175326161593041
1677618661191319,-0.07476920729381265,-5.493247882810692E-4,1.0175326161593041
1677618661207314,-0.07220569161516766,5.493247882810692E-4,1.016433966582742
1677618661223310,-0.07281605249103551,3.0518043793392735E-4,1.0159456778820477
1677618661239305,-0.07342641336690336,1.831082627603564E-4,1.0163118944075684
1677618661255301,-0.07489127946898622,-4.272526131074983E-4,1.0150911726558327
1677618661271296,-0.07403677424277122,-5.493247882810692E-4,1.0185091935606927
1677618661287292,-0.07354848554207694,5.493247882810692E-4,1.0158236057068741
1677618661303287,-0.07306019684138265,9.15541313801782E-4,1.015579461356527
1677618661319283,-0.07220569161516766,9.15541313801782E-4,1.017288471808957
1677618661335278,-0.07293812466620908,7.934691386282111E-4,1.0170443274586098
1677618661351274,-0.07354848554207694,0.001159685664148924,1.0146028839551384
1677618661367269,-0.07391470206759765,7.934691386282111E-4,1.0149691004806591
1677618661383265,-0.07354848554207694,0.001037613488975353,1.0192416266117341
1677618661399260,-0.07440299076829193,0.001037613488975353,1.0163118944075684
1677618661415256,-0.07403677424277122,0.0014038300144960658,1.0174105439841306
1677618661431251,-0.07391470206759765,0.0014038300144960658,1.0186312657358663
1677618661447247,-0.0733043411917298,-5.493247882810692E-4,1.016433966582742
1677618661463242,-0.07220569161516766,0.0017700465400167786,1.0158236057068741
1677618661479238,-0.07318226901655622,0.0014038300144960658,1.0161898222323948
1677618661495239,-0.07318226901655622,9.15541313801782E-4,1.018142977035172
1677618661511234,-0.07379262989242408,4.272526131074983E-4,1.018142977035172
1677618661527230,-0.0753795681696805,7.934691386282111E-4,1.0176546883344777
1677618661543225,-0.0736705577172505,-6.103608758678547E-5,1.0148470283054856
1677618661559221,-0.0733043411917298,-6.103608758678547E-5,1.0153353170061798
1677618661575216,-0.07415884641794479,0.0012817578393224949,1.0169222552834363
1677618661591212,-0.07354848554207694,4.272526131074983E-4,1.015579461356527
1677618661607207,-0.07306019684138265,4.272526131074983E-4,1.0187533379110398
1677618661623203,-0.07306019684138265,0.0020141908903639205,1.0159456778820477
1677618661639198,-0.07476920729381265,0.0018921187151903496,1.0159456778820477
1677618661655194,-0.07415884641794479,0.001037613488975353,1.0161898222323948
1677618661671189,-0.07379262989242408,1.831082627603564E-4,1.0180209048599984
1677618661687185,-0.07257190814068837,-3.0518043793392735E-4,1.0158236057068741
1677618661703180,-0.07257190814068837,0.0018921187151903496,1.0171663996337834
1677618661719176,-0.07379262989242408,0.0020141908903639205,1.0175326161593041
1677618661735171,-0.07281605249103551,0.0016479743648432077,1.0175326161593041
1677618661751167,-0.07403677424277122,-6.103608758678547E-5,1.0188754100862134
1677618661767162,-0.07269398031586194,5.493247882810692E-4,1.0161898222323948
1677618661783158,-0.07464713511863907,7.934691386282111E-4,1.0202182040131227
1677618661799153,-0.0733043411917298,1.831082627603564E-4,1.0182650492103456
1677618661815094,-0.07257190814068837,-9.15541313801782E-4,1.0203402761882963
1677618661831089,-0.07403677424277122,-5.493247882810692E-4,1.0175326161593041
1677618661847085,-0.07501335164415979,4.272526131074983E-4,1.0197299153124284
1677618661863080,-0.0745250629434655,7.934691386282111E-4,1.0175326161593041
1677618661879076,-0.07379262989242408,5.493247882810692E-4,1.0180209048599984
1677618661895071,-0.07183947508964694,-4.272526131074983E-4,1.018997482261387
1677618661911067,-0.07269398031586194,0.0012817578393224949,1.0176546883344777
1677618661927062,-0.07428091859311836,7.934691386282111E-4,1.017288471808957
1677618661943058,-0.07428091859311836,7.934691386282111E-4,1.0178988326848248
1677618661959053,-0.07318226901655622,7.934691386282111E-4,1.018997482261387
1677618661975049,-0.07196154726482051,-5.493247882810692E-4,1.0193636987869077
1677618661991044,-0.07318226901655622,6.713969634546402E-4,1.0178988326848248
1677618662007040,-0.0736705577172505,-1.831082627603564E-4,1.0153353170061798
1677618662023035,-0.07293812466620908,0.0016479743648432077,1.0169222552834363
1677618662039031,-0.07306019684138265,6.103608758678547E-5,1.0180209048599984
1677618662055026,-0.07440299076829193,0.001037613488975353,1.0177767605096513
1677618662071022,-0.07232776379034123,-6.103608758678547E-5,1.017288471808957
1677618662087017,-0.07391470206759765,1.831082627603564E-4,1.0186312657358663
1677618662103013,-0.07391470206759765,9.15541313801782E-4,1.0188754100862134
1677618662119008,-0.07232776379034123,0.0017700465400167786,1.0165560387579156
1677618662134704,-0.0733043411917298,0.001159685664148924,1.0159456778820477
1677618662150698,-0.07281605249103551,0.001159685664148924,1.013015945677882
1677618662166692,-0.07306019684138265,0.001159685664148924,1.0163118944075684
1677618662182686,-0.07428091859311836,3.0518043793392735E-4,1.017288471808957
1677618662198681,-0.07428091859311836,0.0016479743648432077,1.0176546883344777
1677618662214675,-0.07391470206759765,0.0012817578393224949,1.0174105439841306
1677618662230669,-0.07440299076829193,1.831082627603564E-4,1.0174105439841306
1677618662246663,-0.0724498359655148,5.493247882810692E-4,1.0188754100862134
1677618662262657,-0.07379262989242408,0.0025024795910582043,1.017288471808957
1677618662278651,-0.07403677424277122,0.001037613488975353,1.0177767605096513
1677618662294645,-0.07476920729381265,1.831082627603564E-4,1.0171663996337834
1677618662310639,-0.07440299076829193,0.0017700465400167786,1.0183871213855191
1677618662326633,-0.07464713511863907,0.0014038300144960658,1.0182650492103456
1677618662342627,-0.07501335164415979,0.001037613488975353,1.0158236057068741
1677618662358621,-0.07489127946898622,-4.272526131074983E-4,1.0158236057068741
1677618662374615,-0.07354848554207694,9.15541313801782E-4,1.0191195544365605
1677618662390609,-0.07318226901655622,3.0518043793392735E-4,1.0159456778820477
1677618662406603,-0.07318226901655622,-4.272526131074983E-4,1.0153353170061798
1677618662422598,-0.07440299076829193,-0.001037613488975353,1.0166781109330891
1677618662438592,-0.07464713511863907,1.831082627603564E-4,1.0163118944075684
1677618662454284,-0.0736705577172505,9.15541313801782E-4,1.018142977035172
1677618662470277,-0.07403677424277122,4.272526131074983E-4,1.018997482261387
1677618662486270,-0.07440299076829193,6.103608758678547E-5,1.0185091935606927
1677618662502262,-0.07501335164415979,0.0017700465400167786,1.0204623483634698
1677618662518255,-0.0724498359655148,0.0026245517662317752,1.0152132448310063
1677618662534248,-0.07428091859311836,6.713969634546402E-4,1.018142977035172
1677618662550240,-0.07342641336690336,0.001037613488975353,1.0171663996337834
1677618662566233,-0.07476920729381265,9.15541313801782E-4,1.0193636987869077
1677618662582225,-0.0733043411917298,5.493247882810692E-4,1.0182650492103456
1677618662598218,-0.07354848554207694,-3.0518043793392735E-4,1.0149691004806591
1677618662614211,-0.0736705577172505,6.103608758678547E-5,1.0182650492103456
1677618662630203,-0.07550164034485407,6.713969634546402E-4,1.018142977035172
1677618662646196,-0.07379262989242408,5.493247882810692E-4,1.0178988326848248
1677618662662189,-0.07354848554207694,-7.934691386282111E-4,1.018142977035172
1677618662678181,-0.07403677424277122,3.0518043793392735E-4,1.0168001831082627
1677618662694174,-0.07550164034485407,0.0015259021896696368,1.0175326161593041
1677618662710167,-0.07428091859311836,6.713969634546402E-4,1.0176546883344777
1677618662726159,-0.07379262989242408,4.272526131074983E-4,1.0203402761882963
1677618662742152,-0.0724498359655148,7.934691386282111E-4,1.0176546883344777
1677618662758144,-0.0733043411917298,5.493247882810692E-4,1.0177767605096513
1677618662773895,-0.07415884641794479,5.493247882810692E-4,1.0169222552834363
1677618662789887,-0.07476920729381265,9.15541313801782E-4,1.0174105439841306
1677618662805878,-0.07257190814068837,0.0017700465400167786,1.0170443274586098
1677618662821870,-0.07403677424277122,6.713969634546402E-4,1.0177767605096513
1677618662837862,-0.07354848554207694,1.831082627603564E-4,1.0177767605096513
1677618662853853,-0.0736705577172505,0.0015259021896696368,1.0187533379110398
1677618662869845,-0.0745250629434655,1.831082627603564E-4,1.0194857709620813
1677618662885837,-0.07342641336690336,0.0015259021896696368,1.0192416266117341
1677618662901828,-0.07428091859311836,7.934691386282111E-4,1.0202182040131227
1677618662917820,-0.0733043411917298,0.0018921187151903496,1.0191195544365605
1677618662933812,-0.07379262989242408,0.0014038300144960658,1.014724956130312
1677618662949803,-0.07354848554207694,0.0015259021896696368,1.0191195544365605
1677618662965795,-0.0733043411917298,0.0012817578393224949,1.0188754100862134
1677618662981787,-0.07232776379034123,0.0015259021896696368,1.0199740596627755
1677618662997779,-0.07403677424277122,0.001037613488975353,1.0178988326848248
1677618663013770,-0.0736705577172505,4.272526131074983E-4,1.0197299153124284
1677618663029762,-0.0736705577172505,-6.103608758678547E-5,1.0163118944075684
1677618663045754,-0.07379262989242408,0.0017700465400167786,1.0160677500572213
1677618663061745,-0.0733043411917298,0.001159685664148924,1.0171663996337834
1677618663077737,-0.0753795681696805,4.272526131074983E-4,1.0182650492103456
1677618663093444,-0.07489127946898622,0.001159685664148924,1.0163118944075684
1677618663109435,-0.0733043411917298,9.15541313801782E-4,1.0177767605096513
1677618663125426,-0.0724498359655148,0.0016479743648432077,1.0171663996337834
1677618663141417,-0.07513542381933336,7.934691386282111E-4,1.018142977035172
1677618663157407,-0.07379262989242408,5.493247882810692E-4,1.0187533379110398
1677618663173398,-0.07415884641794479,3.0518043793392735E-4,1.018142977035172
1677618663189389,-0.07415884641794479,0.0017700465400167786,1.0178988326848248
1677618663205380,-0.07391470206759765,5.493247882810692E-4,1.0161898222323948
1677618663221370,-0.0733043411917298,4.272526131074983E-4,1.0182650492103456
1677618663237361,-0.07306019684138265,0.0012817578393224949,1.0191195544365605
1677618663253352,-0.07415884641794479,9.15541313801782E-4,1.015579461356527
1677618663269343,-0.07379262989242408,4.272526131074983E-4,1.0157015335317006
1677618663285333,-0.07354848554207694,7.934691386282111E-4,1.0175326161593041
1677618663301324,-0.07379262989242408,-6.103608758678547E-5,1.0175326161593041
1677618663317315,-0.07415884641794479,9.15541313801782E-4,1.0175326161593041
1677618663333305,-0.0745250629434655,-0.0015259021896696368,1.0175326161593041
1677618663349296,-0.0753795681696805,-6.103608758678547E-5,1.0177767605096513
1677618663365287,-0.07415884641794479,6.103608758678547E-5,1.0171663996337834
1677618663381278,-0.07391470206759765,5.493247882810692E-4,1.015579461356527
1677618663397268,-0.0733043411917298,5.493247882810692E-4,1.0168001831082627
1677618663413025,-0.07379262989242408,0.0016479743648432077,1.0171663996337834
1677618663429014,-0.07342641336690336,0.0015259021896696368,1.0160677500572213
1677618663445004,-0.0733043411917298,-1.831082627603564E-4,1.0143587396047913
1677618663460994,-0.07428091859311836,0.001037613488975353,1.0177767605096513
1677618663476984,-0.07415884641794479,-5.493247882810692E-4,1.0202182040131227
1677618663492973,-0.07428091859311836,-6.103608758678547E-5,1.0185091935606927
1677618663508963,-0.0745250629434655,5.493247882810692E-4,1.0161898222323948
1677618663524953,-0.07428091859311836,9.15541313801782E-4,1.0197299153124284
1677618663540943,-0.0753795681696805,9.15541313801782E-4,1.0169222552834363
1677618663556933,-0.07354848554207694,6.713969634546402E-4,1.0177767605096513
1677618663572922,-0.07464713511863907,3.0518043793392735E-4,1.0171663996337834
1677618663588912,-0.07354848554207694,1.831082627603564E-4,1.0160677500572213
1677618663604902,-0.07257190814068837,-1.831082627603564E-4,1.0204623483634698
1677618663620892,-0.07379262989242408,-6.103608758678547E-5,1.0146028839551384
1677618663636881,-0.07464713511863907,9.15541313801782E-4,1.0136263065537499
1677618663652871,-0.07403677424277122,0.001037613488975353,1.018142977035172
1677618663668861,-0.0745250629434655,0.0015259021896696368,1.0166781109330891
1677618663684851,-0.0753795681696805,0.0016479743648432077,1.0153353170061798
1677618663700841,-0.07391470206759765,0.001037613488975353,1.0178988326848248
1677618663716830,-0.0733043411917298,5.493247882810692E-4,1.0163118944075684
1677618663732605,-0.07415884641794479,-3.0518043793392735E-4,1.0159456778820477
1677618663748593,-0.07220569161516766,7.934691386282111E-4,1.0177767605096513
1677618663764582,-0.07281605249103551,9.15541313801782E-4,1.016433966582742
1677618663780571,-0.07379262989242408,4.272526131074983E-4,1.015579461356527
1677618663796560,-0.07342641336690336,5.493247882810692E-4,1.0152132448310063
1677618663812549,-0.07428091859311836,4.272526131074983E-4,1.018142977035172
1677618663828538,-0.07440299076829193,5.493247882810692E-4,1.0185091935606927
1677618663844526,-0.0736705577172505,0.001159685664148924,1.0183871213855191
1677618663860515,-0.07403677424277122,5.493247882810692E-4,1.0170443274586098
1677618663876504,-0.07391470206759765,9.15541313801782E-4,1.0178988326848248
1677618663892493,-0.07464713511863907,0.001037613488975353,1.0159456778820477
1677618663908482,-0.07391470206759765,5.493247882810692E-4,1.0163118944075684
1677618663924471,-0.07354848554207694,-6.103608758678547E-5,1.0165560387579156
1677618663940459,-0.07293812466620908,0.001037613488975353,1.0187533379110398
1677618663956448,-0.07440299076829193,-1.831082627603564E-4,1.0157015335317006
1677618663972437,-0.0733043411917298,6.103608758678547E-5,1.0186312657358663
1677618663988426,-0.07464713511863907,-1.831082627603564E-4,1.0211947814145113
1677618664004415,-0.07428091859311836,3.0518043793392735E-4,1.0185091935606927
1677618664020403,-0.07318226901655622,7.934691386282111E-4,1.0153353170061798
1677618664036392,-0.07293812466620908,4.272526131074983E-4,1.0166781109330891
1677618664052185,-0.07464713511863907,-1.831082627603564E-4,1.0193636987869077
1677618664068173,-0.07354848554207694,9.15541313801782E-4,1.0170443274586098
1677618664084160,-0.07342641336690336,-6.103608758678547E-5,1.0171663996337834
1677618664100148,-0.0745250629434655,-3.0518043793392735E-4,1.0166781109330891
1677618664116136,-0.07269398031586194,0.0014038300144960658,1.018997482261387
1677618664132124,-0.07440299076829193,1.831082627603564E-4,1.018142977035172
1677618664148112,-0.07342641336690336,7.934691386282111E-4,1.018997482261387
1677618664164100,-0.07513542381933336,-1.831082627603564E-4,1.0160677500572213
1677618664180088,-0.07293812466620908,0.0016479743648432077,1.0177767605096513
1677618664196076,-0.07391470206759765,0.0014038300144960658,1.0194857709620813
1677618664212063,-0.07403677424277122,7.934691386282111E-4,1.0194857709620813
1677618664228051,-0.07391470206759765,-1.831082627603564E-4,1.0194857709620813
1677618664244039,-0.07428091859311836,0.0015259021896696368,1.0163118944075684
1677618664260027,-0.0724498359655148,6.713969634546402E-4,1.0175326161593041
1677618664276015,-0.07293812466620908,-5.493247882810692E-4,1.0168001831082627
1677618664292003,-0.0724498359655148,0.0014038300144960658,1.0165560387579156
1677618664307991,-0.07281605249103551,-6.103608758678547E-5,1.0165560387579156
1677618664323979,-0.07391470206759765,6.713969634546402E-4,1.0178988326848248
1677618664339966,-0.07293812466620908,0.0018921187151903496,1.0171663996337834
1677618664355954,-0.07391470206759765,0.0014038300144960658,1.0168001831082627
1677618664371795,-0.07403677424277122,6.713969634546402E-4,1.0152132448310063
1677618664387783,-0.0736705577172505,0.001037613488975353,1.0154573891813534
1677618664403770,-0.07306019684138265,0.0015259021896696368,1.0174105439841306
1677618664419757,-0.07403677424277122,9.15541313801782E-4,1.0191195544365605
1677618664435745,-0.07415884641794479,6.103608758678547E-5,1.0197299153124284
1677618664451732,-0.07428091859311836,9.15541313801782E-4,1.0188754100862134
1677618664467720,-0.0733043411917298,0.002990768291752488,1.0171663996337834
1677618664483707,-0.07306019684138265,0.0015259021896696368,1.0149691004806591
1677618664499694,-0.07281605249103551,0.0026245517662317752,1.0183871213855191
1677618664515682,-0.07501335164415979,0.001159685664148924,1.0193636987869077
1677618664531669,-0.07525749599450693,-0.001037613488975353,1.0171663996337834
1677618664547657,-0.07391470206759765,7.934691386282111E-4,1.016433966582742
1677618664563644,-0.0736705577172505,1.831082627603564E-4,1.0182650492103456
1677618664579631,-0.07391470206759765,9.15541313801782E-4,1.0159456778820477
1677618664595619,-0.07440299076829193,-4.272526131074983E-4,1.0153353170061798
1677618664611606,-0.07464713511863907,-3.0518043793392735E-4,1.0160677500572213
1677618664627594,-0.07269398031586194,1.831082627603564E-4,1.018142977035172
1677618664643581,-0.07379262989242408,6.713969634546402E-4,1.0150911726558327
1677618664659568,-0.07428091859311836,0.0015259021896696368,1.0159456778820477
1677618664675556,-0.07403677424277122,1.831082627603564E-4,1.0175326161593041
1677618664691375,-0.07501335164415979,7.934691386282111E-4,1.0174105439841306
1677618664707362,-0.07440299076829193,0.0012817578393224949,1.018997482261387
1677618664723349,-0.07513542381933336,0.0020141908903639205,1.0165560387579156
1677618664739336,-0.07403677424277122,9.15541313801782E-4,1.0150911726558327
1677618664755323,-0.07379262989242408,0.001159685664148924,1.018997482261387
1677618664771310,-0.0736705577172505,0.0015259021896696368,1.0202182040131227
1677618664787297,-0.07440299076829193,4.272526131074983E-4,1.018142977035172
1677618664803284,-0.07464713511863907,0.001037613488975353,1.0186312657358663
1677618664819271,-0.07440299076829193,6.713969634546402E-4,1.0170443274586098
1677618664835258,-0.0745250629434655,0.0020141908903639205,1.0160677500572213
1677618664851245,-0.07440299076829193,0.0016479743648432077,1.0171663996337834
1677618664867231,-0.07183947508964694,-5.493247882810692E-4,1.017288471808957
1677618664883218,-0.07489127946898622,5.493247882810692E-4,1.0196078431372548
1677618664899205,-0.07476920729381265,5.493247882810692E-4,1.0178988326848248
1677618664915192,-0.07428091859311836,4.272526131074983E-4,1.0194857709620813
1677618664931179,-0.07440299076829193,5.493247882810692E-4,1.0174105439841306
1677618664947166,-0.07391470206759765,0.0015259021896696368,1.0166781109330891
1677618664963153,-0.07440299076829193,0.001037613488975353,1.0194857709620813
1677618664979140,-0.07415884641794479,6.103608758678547E-5,1.0166781109330891
1677618664995127,-0.0745250629434655,0.0015259021896696368,1.0161898222323948
1677618665010955,-0.0745250629434655,3.0518043793392735E-4,1.0148470283054856
1677618665026941,-0.07379262989242408,0.0016479743648432077,1.018142977035172
1677618665042927,-0.07318226901655622,6.103608758678547E-5,1.0180209048599984
1677618665058913,-0.07476920729381265,1.831082627603564E-4,1.019851987487602
1677618665074899,-0.07428091859311836,0.0016479743648432077,1.0174105439841306
1677618665090885,-0.0736705577172505,0.001037613488975353,1.0186312657358663
1677618665106871,-0.07550164034485407,-5.493247882810692E-4,1.016433966582742
1677618665122857,-0.07428091859311836,9.15541313801782E-4,1.0186312657358663
1677618665138843,-0.07415884641794479,9.15541313801782E-4,1.0170443274586098
1677618665154829,-0.07464713511863907,0.0016479743648432077,1.0178988326848248
1677618665170815,-0.07489127946898622,6.713969634546402E-4,1.0169222552834363
1677618665186801,-0.07440299076829193,4.272526131074983E-4,1.0168001831082627
1677618665202787,-0.07318226901655622,9.15541313801782E-4,1.0142366674296177
1677618665218773,-0.07342641336690336,0.0014038300144960658,1.019851987487602
1677618665234759,-0.07428091859311836,1.831082627603564E-4,1.0161898222323948
1677618665250745,-0.07354848554207694,4.272526131074983E-4,1.0160677500572213
1677618665266731,-0.07342641336690336,4.272526131074983E-4,1.0158236057068741
1677618665282717,-0.07379262989242408,-6.103608758678547E-5,1.0160677500572213
1677618665298703,-0.0745250629434655,5.493247882810692E-4,1.0187533379110398
1677618665314689,-0.07464713511863907,6.713969634546402E-4,1.0168001831082627
1677618665330536,-0.07476920729381265,3.0518043793392735E-4,1.0166781109330891
1677618665346521,-0.07391470206759765,-5.493247882810692E-4,1.0168001831082627
1677618665362506,-0.07354848554207694,0.0020141908903639205,1.0183871213855191
1677618665378492,-0.07293812466620908,0.0015259021896696368,1.0160677500572213
1677618665394477,-0.07415884641794479,0.0014038300144960658,1.0202182040131227
1677618665410463,-0.0736705577172505,1.831082627603564E-4,1.018142977035172
1677618665426448,-0.0733043411917298,0.001037613488975353,1.019851987487602
1677618665442434,-0.07476920729381265,0.0015259021896696368,1.0174105439841306
1677618665458419,-0.07476920729381265,1.831082627603564E-4,1.0158236057068741
1677618665474405,-0.07611200122072193,9.15541313801782E-4,1.0220492866407263
1677618665490390,-0.07293812466620908,3.0518043793392735E-4,1.0170443274586098
1677618665506376,-0.07269398031586194,-4.272526131074983E-4,1.0161898222323948
1677618665522361,-0.07476920729381265,6.713969634546402E-4,1.0168001831082627
1677618665538347,-0.07550164034485407,0.001037613488975353,1.0169222552834363
1677618665554332,-0.07415884641794479,0.0012817578393224949,1.0182650492103456
1677618665570318,-0.07403677424277122,4.272526131074983E-4,1.0187533379110398
1677618665586303,-0.07354848554207694,5.493247882810692E-4,1.017288471808957
1677618665602289,-0.07525749599450693,-6.103608758678547E-5,1.0197299153124284
1677618665618274,-0.07318226901655622,4.272526131074983E-4,1.017288471808957
1677618665634260,-0.07391470206759765,1.831082627603564E-4,1.0171663996337834
1677618665650116,-0.07440299076829193,6.103608758678547E-5,1.0180209048599984
1677618665666101,-0.07501335164415979,-0.0018921187151903496,1.0170443274586098
1677618665682086,-0.07403677424277122,-3.0518043793392735E-4,1.0185091935606927
1677618665698071,-0.0724498359655148,0.001037613488975353,1.0187533379110398
1677618665714056,-0.07501335164415979,7.934691386282111E-4,1.015579461356527
1677618665730041,-0.07489127946898622,9.15541313801782E-4,1.0180209048599984
1677618665746026,-0.07415884641794479,0.001037613488975353,1.0193636987869077
1677618665762011,-0.07513542381933336,0.0015259021896696368,1.0186312657358663
1677618665777996,-0.07415884641794479,-1.831082627603564E-4,1.0204623483634698
1677618665793981,-0.07379262989242408,0.0023804074158846333,1.0186312657358663
1677618665809966,-0.07550164034485407,5.493247882810692E-4,1.0168001831082627
1677618665825951,-0.07489127946898622,7.934691386282111E-4,1.0152132448310063
1677618665841936,-0.0733043411917298,0.001159685664148924,1.0169222552834363
1677618665857921,-0.07476920729381265,0.0012817578393224949,1.0170443274586098
1677618665873906,-0.07440299076829193,0.0012817578393224949,1.0177767605096513
1677618665889891,-0.0736705577172505,9.15541313801782E-4,1.0174105439841306
1677618665905876,-0.07220569161516766,5.493247882810692E-4,1.0202182040131227
1677618665921861,-0.07489127946898622,0.0017700465400167786,1.018997482261387
1677618665937846,-0.07379262989242408,0.0014038300144960658,1.0174105439841306
1677618665953831,-0.07574578469520121,0.0015259021896696368,1.0186312657358663
1677618665969665,-0.07501335164415979,0.0017700465400167786,1.0174105439841306
1677618665985650,-0.07428091859311836,-9.15541313801782E-4,1.0174105439841306
1677618666001634,-0.07354848554207694,-4.272526131074983E-4,1.0178988326848248
1677618666017619,-0.07354848554207694,0.001037613488975353,1.0176546883344777
1677618666033603,-0.0733043411917298,-4.272526131074983E-4,1.0171663996337834
1677618666049588,-0.07550164034485407,-6.103608758678547E-5,1.0178988326848248
1677618666065572,-0.07525749599450693,0.0012817578393224949,1.016433966582742
1677618666081557,-0.07464713511863907,0.0012817578393224949,1.0169222552834363
1677618666097541,-0.07464713511863907,5.493247882810692E-4,1.0146028839551384
1677618666113526,-0.07379262989242408,6.713969634546402E-4,1.0182650492103456
1677618666129511,-0.07489127946898622,-4.272526131074983E-4,1.0186312657358663
1677618666145495,-0.07489127946898622,3.0518043793392735E-4,1.017288471808957
1677618666161480,-0.07318226901655622,-1.831082627603564E-4,1.0171663996337834
1677618666177464,-0.0753795681696805,4.272526131074983E-4,1.0193636987869077
1677618666193449,-0.07379262989242408,0.0015259021896696368,1.019851987487602
1677618666209433,-0.0745250629434655,-1.831082627603564E-4,1.0174105439841306
1677618666225418,-0.07403677424277122,7.934691386282111E-4,1.0160677500572213
1677618666241402,-0.07513542381933336,0.0012817578393224949,1.0193636987869077
1677618666257387,-0.07476920729381265,0.0020141908903639205,1.0177767605096513
1677618666273371,-0.07428091859311836,0.0026245517662317752,1.0183871213855191
1677618666289276,-0.07489127946898622,0.001159685664148924,1.0166781109330891
1677618666305260,-0.07428091859311836,6.713969634546402E-4,1.0188754100862134
1677618666321244,-0.07269398031586194,0.001037613488975353,1.0160677500572213
1677618666337228,-0.07318226901655622,-6.103608758678547E-5,1.0169222552834363
1677618666353212,-0.0745250629434655,-6.103608758678547E-5,1.0157015335317006
1677618666369196,-0.07415884641794479,6.103608758678547E-5,1.0161898222323948
1677618666385180,-0.07379262989242408,0.0012817578393224949,1.0196078431372548
1677618666401164,-0.07196154726482051,5.493247882810692E-4,1.0166781109330891
1677618666417148,-0.07342641336690336,5.493247882810692E-4,1.0188754100862134
1677618666433132,-0.0745250629434655,4.272526131074983E-4,1.0192416266117341
1677618666449116,-0.07403677424277122,9.15541313801782E-4,1.0170443274586098
1677618666465100,-0.07440299076829193,0.001159685664148924,1.0171663996337834
1677618666481084,-0.07464713511863907,0.0014038300144960658,1.0170443274586098
1677618666497069,-0.07501335164415979,7.934691386282111E-4,1.017288471808957
1677618666513053,-0.07428091859311836,0.0012817578393224949,1.0192416266117341
1677618666529037,-0.07440299076829193,0.0016479743648432077,1.0191195544365605
1677618666545021,-0.07257190814068837,-0.0012817578393224949,1.0163118944075684
1677618666561005,-0.07257190814068837,3.0518043793392735E-4,1.0169222552834363
1677618666576989,-0.07513542381933336,0.001159685664148924,1.0191195544365605
1677618666592973,-0.07379262989242408,9.15541313801782E-4,1.0171663996337834
1677618666608825,-0.07440299076829193,5.493247882810692E-4,1.0165560387579156
1677618666624809,-0.07598992904554835,4.272526131074983E-4,1.017288471808957
1677618666640792,-0.07415884641794479,-4.272526131074983E-4,1.0205844205386434
1677618666656776,-0.0745250629434655,7.934691386282111E-4,1.0182650492103456
1677618666672760,-0.07440299076829193,1.831082627603564E-4,1.0174105439841306
1677618666688743,-0.07489127946898622,3.0518043793392735E-4,1.018997482261387
1677618666704727,-0.07440299076829193,-1.831082627603564E-4,1.0191195544365605
1677618666720710,-0.07391470206759765,4.272526131074983E-4,1.0203402761882963
1677618666736694,-0.07428091859311836,-1.831082627603564E-4,1.0165560387579156
1677618666752678,-0.0753795681696805,-6.713969634546402E-4,1.0158236057068741
1677618666768661,-0.07391470206759765,4.272526131074983E-4,1.018142977035172
1677618666784645,-0.0733043411917298,-3.0518043793392735E-4,1.016433966582742
1677618666800628,-0.07403677424277122,0.0018921187151903496,1.0150911726558327
1677618666816612,-0.07391470206759765,1.831082627603564E-4,1.0152132448310063
1677618666832595,-0.07464713511863907,-1.831082627603564E-4,1.0170443274586098
1677618666848579,-0.07379262989242408,0.0012817578393224949,1.0175326161593041
1677618666864563,-0.0733043411917298,-7.934691386282111E-4,1.017288471808957
1677618666880546,-0.07403677424277122,-5.493247882810692E-4,1.0183871213855191
1677618666896530,-0.07342641336690336,0.0014038300144960658,1.0159456778820477
1677618666912513,-0.0745250629434655,0.0015259021896696368,1.0154573891813534
1677618666928375,-0.07354848554207694,0.0012817578393224949,1.0176546883344777
1677618666944358,-0.07257190814068837,0.001159685664148924,1.0191195544365605
1677618666960341,-0.07440299076829193,-9.15541313801782E-4,1.0180209048599984
1677618666976324,-0.07293812466620908,-3.0518043793392735E-4,1.0176546883344777
1677618666992307,-0.07318226901655622,-6.103608758678547E-5,1.0168001831082627
1677618667008290,-0.07415884641794479,0.0014038300144960658,1.0180209048599984
1677618667024273,-0.07501335164415979,-1.831082627603564E-4,1.0166781109330891
1677618667040257,-0.07428091859311836,9.15541313801782E-4,1.018997482261387
1677618667056240,-0.07391470206759765,0.0014038300144960658,1.0174105439841306
1677618667072223,-0.07318226901655622,0.001037613488975353,1.0187533379110398
1677618667088206,-0.0753795681696805,0.0014038300144960658,1.0197299153124284
1677618667104189,-0.07525749599450693,0.001159685664148924,1.016433966582742
1677618667120172,-0.07379262989242408,-6.103608758678547E-5,1.0158236057068741
1677618667136155,-0.07269398031586194,9.15541313801782E-4,1.0159456778820477
1677618667152138,-0.07403677424277122,3.0518043793392735E-4,1.0169222552834363
1677618667168121,-0.07440299076829193,0.001037613488975353,1.0171663996337834
1677618667184105,-0.07354848554207694,-4.272526131074983E-4,1.015579461356527
1677618667200088,-0.07428091859311836,-7.934691386282111E-4,1.0170443274586098
1677618667216071,-0.0736705577172505,0.001037613488975353,1.0176546883344777
1677618667232054,-0.07379262989242408,-4.272526131074983E-4,1.0185091935606927
1677618667247985,-0.0733043411917298,0.0015259021896696368,1.0178988326848248
1677618667263968,-0.07513542381933336,7.934691386282111E-4,1.0183871213855191
1677618667279951,-0.0745250629434655,-1.831082627603564E-4,1.0197299153124284
1677618667295933,-0.07501335164415979,0.001159685664148924,1.0191195544365605
1677618667311916,-0.07513542381933336,7.934691386282111E-4,1.0161898222323948
1677618667327899,-0.07513542381933336,9.15541313801782E-4,1.0171663996337834
1677618667343881,-0.07293812466620908,-4.272526131074983E-4,1.0169222552834363
1677618667359864,-0.07391470206759765,9.15541313801782E-4,1.0182650492103456
1677618667375846,-0.07379262989242408,7.934691386282111E-4,1.0182650492103456
1677618667391829,-0.07306019684138265,0.0012817578393224949,1.0209506370641641
1677618667407812,-0.0733043411917298,3.0518043793392735E-4,1.0204623483634698
1677618667423794,-0.07232776379034123,-9.15541313801782E-4,1.0187533379110398
1677618667439777,-0.07415884641794479,-6.103608758678547E-5,1.0170443274586098
1677618667455760,-0.0753795681696805,0.001037613488975353,1.0175326161593041
1677618667471742,-0.0753795681696805,0.0016479743648432077,1.0187533379110398
1677618667487725,-0.07550164034485407,7.934691386282111E-4,1.0188754100862134
1677618667503708,-0.07476920729381265,6.713969634546402E-4,1.0158236057068741
1677618667519690,-0.07489127946898622,9.15541313801782E-4,1.0159456778820477
1677618667535673,-0.07428091859311836,0.0020141908903639205,1.019851987487602
1677618667551655,-0.07403677424277122,0.001159685664148924,1.0185091935606927
1677618667567535,-0.07428091859311836,0.001037613488975353,1.0197299153124284
1677618667583517,-0.07562371252002764,6.713969634546402E-4,1.017288471808957
1677618667599499,-0.07598992904554835,5.493247882810692E-4,1.0157015335317006
1677618667615481,-0.07574578469520121,4.272526131074983E-4,1.0157015335317006
1677618667631464,-0.07476920729381265,0.0015259021896696368,1.015579461356527
1677618667647446,-0.07476920729381265,6.103608758678547E-5,1.016433966582742
1677618667663428,-0.07489127946898622,-3.0518043793392735E-4,1.0176546883344777
1677618667679410,-0.07440299076829193,5.493247882810692E-4,1.0177767605096513
1677618667695392,-0.0745250629434655,0.0026245517662317752,1.016433966582742
1677618667711374,-0.07391470206759765,6.103608758678547E-5,1.0153353170061798
1677618667727357,-0.07464713511863907,-6.103608758678547E-5,1.0180209048599984
1677618667743339,-0.07257190814068837,0.001037613488975353,1.0204623483634698
1677618667759321,-0.0733043411917298,5.493247882810692E-4,1.0174105439841306
1677618667775303,-0.07428091859311836,-4.272526131074983E-4,1.0163118944075684
1677618667791285,-0.07379262989242408,7.934691386282111E-4,1.0169222552834363
1677618667807267,-0.07379262989242408,1.831082627603564E-4,1.018997482261387
1677618667823249,-0.07379262989242408,0.0018921187151903496,1.0153353170061798
1677618667839232,-0.07391470206759765,0.0015259021896696368,1.0175326161593041
1677618667855214,-0.07379262989242408,0.001037613488975353,1.0169222552834363
1677618667871196,-0.07440299076829193,6.103608758678547E-5,1.0197299153124284
1677618667887115,-0.07354848554207694,-1.831082627603564E-4,1.0178988326848248
1677618667903097,-0.0745250629434655,4.272526131074983E-4,1.0188754100862134
1677618667919079,-0.07476920729381265,-1.831082627603564E-4,1.0187533379110398
1677618667935062,-0.07306019684138265,-5.493247882810692E-4,1.0180209048599984
1677618667951044,-0.07415884641794479,9.15541313801782E-4,1.018997482261387
1677618667967026,-0.07354848554207694,-9.15541313801782E-4,1.0178988326848248
1677618667983008,-0.07379262989242408,1.831082627603564E-4,1.0177767605096513
1677618667998990,-0.07342641336690336,6.103608758678547E-5,1.0188754100862134
1677618668014972,-0.0745250629434655,6.713969634546402E-4,1.0180209048599984
1677618668030954,-0.07464713511863907,-0.0015259021896696368,1.0178988326848248
1677618668046937,-0.07464713511863907,-7.934691386282111E-4,1.0183871213855191
1677618668062919,-0.07306019684138265,9.15541313801782E-4,1.0192416266117341
1677618668078901,-0.07403677424277122,-3.0518043793392735E-4,1.018997482261387
1677618668094883,-0.07464713511863907,-6.103608758678547E-5,1.0178988326848248
1677618668110865,-0.07391470206759765,-4.272526131074983E-4,1.018142977035172
1677618668126847,-0.07379262989242408,4.272526131074983E-4,1.0205844205386434
1677618668142830,-0.07415884641794479,5.493247882810692E-4,1.0174105439841306
1677618668158812,-0.07415884641794479,-1.831082627603564E-4,1.016433966582742
1677618668174794,-0.0745250629434655,-9.15541313801782E-4,1.0180209048599984
1677618668190776,-0.07428091859311836,3.0518043793392735E-4,1.0192416266117341
1677618668206665,-0.07391470206759765,4.272526131074983E-4,1.0180209048599984
1677618668222646,-0.07354848554207694,-1.831082627603564E-4,1.0182650492103456
1677618668238628,-0.07379262989242408,-5.493247882810692E-4,1.016433966582742
1677618668254610,-0.07513542381933336,0.0012817578393224949,1.0183871213855191
1677618668270591,-0.07391470206759765,-6.713969634546402E-4,1.018997482261387
1677618668286573,-0.0745250629434655,5.493247882810692E-4,1.0171663996337834
1677618668302555,-0.07489127946898622,-6.713969634546402E-4,1.0161898222323948
1677618668318536,-0.0745250629434655,0.001037613488975353,1.0175326161593041
1677618668334518,-0.07269398031586194,4.272526131074983E-4,1.0191195544365605
1677618668350500,-0.0745250629434655,-1.831082627603564E-4,1.0157015335317006
1677618668366481,-0.07306019684138265,1.831082627603564E-4,1.018142977035172
1677618668382463,-0.07403677424277122,1.831082627603564E-4,1.0200961318379491
1677618668398445,-0.0745250629434655,0.001037613488975353,1.0191195544365605
1677618668414426,-0.07391470206759765,0.0023804074158846333,1.0170443274586098
1677618668430408,-0.07354848554207694,6.713969634546402E-4,1.0157015335317006
1677618668446390,-0.07403677424277122,9.15541313801782E-4,1.016433966582742
1677618668462371,-0.07513542381933336,0.0015259021896696368,1.0185091935606927
1677618668478353,-0.07598992904554835,0.0023804074158846333,1.0170443274586098
1677618668494335,-0.0745250629434655,3.0518043793392735E-4,1.0174105439841306
1677618668510316,-0.0762340733958955,7.934691386282111E-4,1.0170443274586098
1677618668526245,-0.07354848554207694,0.0018921187151903496,1.0192416266117341
1677618668542226,-0.07428091859311836,0.001037613488975353,1.0176546883344777
1677618668558208,-0.07525749599450693,3.0518043793392735E-4,1.0186312657358663
1677618668574190,-0.07354848554207694,-3.0518043793392735E-4,1.018142977035172
1677618668590171,-0.07476920729381265,-6.103608758678547E-5,1.018142977035172
1677618668606153,-0.07293812466620908,-1.831082627603564E-4,1.0185091935606927
1677618668622135,-0.0753795681696805,-1.831082627603564E-4,1.0185091935606927
1677618668638116,-0.0745250629434655,1.831082627603564E-4,1.018142977035172
1677618668654098,-0.07476920729381265,0.0017700465400167786,1.0177767605096513
1677618668670080,-0.07574578469520121,1.831082627603564E-4,1.0204623483634698
1677618668686061,-0.0753795681696805,0.001159685664148924,1.0180209048599984
1677618668702043,-0.07257190814068837,5.493247882810692E-4,1.016433966582742
1677618668718025,-0.07476920729381265,5.493247882810692E-4,1.0180209048599984
1677618668734007,-0.0753795681696805,0.001037613488975353,1.0153353170061798
1677618668749988,-0.0745250629434655,-4.272526131074983E-4,1.0177767605096513
1677618668765970,-0.07306019684138265,-3.0518043793392735E-4,1.0177767605096513
1677618668781952,-0.07476920729381265,0.0014038300144960658,1.0186312657358663
1677618668797933,-0.07379262989242408,-3.0518043793392735E-4,1.0185091935606927
1677618668813915,-0.07525749599450693,4.272526131074983E-4,1.0188754100862134
1677618668829897,-0.07379262989242408,-3.0518043793392735E-4,1.0187533379110398
1677618668845825,-0.07476920729381265,5.493247882810692E-4,1.0186312657358663
1677618668861806,-0.07354848554207694,9.15541313801782E-4,1.0183871213855191
1677618668877787,-0.07415884641794479,0.0016479743648432077,1.0180209048599984
1677618668893768,-0.07513542381933336,1.831082627603564E-4,1.0176546883344777
1677618668909750,-0.07428091859311836,0.001159685664148924,1.0175326161593041
1677618668925731,-0.07489127946898622,0.0012817578393224949,1.014724956130312
1677618668941712,-0.07513542381933336,0.0012817578393224949,1.017288471808957
1677618668957693,-0.0745250629434655,3.0518043793392735E-4,1.0176546883344777
1677618668973674,-0.0736705577172505,-7.934691386282111E-4,1.0188754100862134
1677618668989656,-0.0724498359655148,5.493247882810692E-4,1.0203402761882963
1677618669005637,-0.07318226901655622,6.103608758678547E-5,1.0192416266117341
1677618669021618,-0.07318226901655622,0.001159685664148924,1.0166781109330891
1677618669037599,-0.07513542381933336,0.001037613488975353,1.0174105439841306
1677618669053580,-0.07428091859311836,6.713969634546402E-4,1.0157015335317006
1677618669069562,-0.07379262989242408,7.934691386282111E-4,1.0152132448310063
1677618669085543,-0.07318226901655622,7.934691386282111E-4,1.017288471808957
1677618669101524,-0.07354848554207694,1.831082627603564E-4,1.0199740596627755
1677618669117505,-0.07550164034485407,5.493247882810692E-4,1.0205844205386434
1677618669133486,-0.07415884641794479,7.934691386282111E-4,1.0193636987869077
1677618669149468,-0.07464713511863907,6.103608758678547E-5,1.0170443274586098
1677618669165435,-0.07354848554207694,-4.272526131074983E-4,1.0169222552834363
1677618669181417,-0.0745250629434655,-1.831082627603564E-4,1.0185091935606927
1677618669197398,-0.0745250629434655,7.934691386282111E-4,1.018997482261387
1677618669213379,-0.07403677424277122,7.934691386282111E-4,1.0188754100862134
1677618669229360,-0.0736705577172505,6.713969634546402E-4,1.0191195544365605
1677618669245341,-0.07464713511863907,0.001037613488975353,1.016433966582742
1677618669261323,-0.07293812466620908,9.15541313801782E-4,1.0148470283054856
1677618669277304,-0.07501335164415979,1.831082627603564E-4,1.0186312657358663
1677618669293285,-0.07354848554207694,-6.103608758678547E-5,1.0213168535896848
1677618669309266,-0.07293812466620908,-6.713969634546402E-4,1.0160677500572213
1677618669325247,-0.07415884641794479,6.713969634546402E-4,1.0174105439841306
1677618669341229,-0.07501335164415979,0.001159685664148924,1.0177767605096513
1677618669357210,-0.07428091859311836,-9.15541313801782E-4,1.0158236057068741
1677618669373191,-0.07440299076829193,0.001159685664148924,1.0183871213855191
1677618669389172,-0.07379262989242408,4.272526131074983E-4,1.0182650492103456
1677618669405153,-0.07574578469520121,-0.001037613488975353,1.0165560387579156
1677618669421135,-0.07525749599450693,0.0015259021896696368,1.0163118944075684
1677618669437116,-0.07403677424277122,6.103608758678547E-5,1.0178988326848248
1677618669453097,-0.07611200122072193,7.934691386282111E-4,1.0170443274586098
1677618669469078,-0.0745250629434655,0.001159685664148924,1.0185091935606927
1677618669484985,-0.07440299076829193,7.934691386282111E-4,1.018997482261387
1677618669500966,-0.07489127946898622,6.713969634546402E-4,1.0170443274586098
1677618669516946,-0.07391470206759765,3.0518043793392735E-4,1.0171663996337834
1677618669532927,-0.07403677424277122,6.713969634546402E-4,1.0168001831082627
1677618669548908,-0.07342641336690336,0.0014038300144960658,1.0166781109330891
1677618669564889,-0.07379262989242408,3.0518043793392735E-4,1.0157015335317006
1677618669580869,-0.0745250629434655,0.0014038300144960658,1.0180209048599984
1677618669596850,-0.07403677424277122,9.15541313801782E-4,1.018142977035172
1677618669612831,-0.07440299076829193,6.103608758678547E-5,1.0204623483634698
1677618669628811,-0.07574578469520121,-0.0015259021896696368,1.0187533379110398
1677618669644792,-0.07489127946898622,3.0518043793392735E-4,1.015579461356527
1677618669660773,-0.07440299076829193,0.0015259021896696368,1.0169222552834363
1677618669676754,-0.07391470206759765,1.831082627603564E-4,1.0165560387579156
1677618669692734,-0.07379262989242408,6.713969634546402E-4,1.0168001831082627
1677618669708715,-0.07403677424277122,-6.713969634546402E-4,1.0187533379110398
1677618669724696,-0.07464713511863907,9.15541313801782E-4,1.0169222552834363
1677618669740677,-0.07415884641794479,0.0015259021896696368,1.0157015335317006
1677618669756657,-0.07501335164415979,0.0018921187151903496,1.0192416266117341
1677618669772638,-0.0736705577172505,0.001159685664148924,1.0191195544365605
1677618669788619,-0.07550164034485407,-7.934691386282111E-4,1.0178988326848248
1677618669804565,-0.07611200122072193,6.103608758678547E-5,1.0200961318379491
1677618669820546,-0.07415884641794479,4.272526131074983E-4,1.0193636987869077
1677618669836526,-0.07464713511863907,1.831082627603564E-4,1.019851987487602
1677618669852507,-0.07354848554207694,6.103608758678547E-5,1.0176546883344777
1677618669868488,-0.07379262989242408,6.713969634546402E-4,1.0183871213855191
1677618669884469,-0.07415884641794479,4.272526131074983E-4,1.0205844205386434
1677618669900449,-0.07464713511863907,1.831082627603564E-4,1.0205844205386434
1677618669916430,-0.07415884641794479,0.001037613488975353,1.0180209048599984
1677618669932411,-0.0724498359655148,5.493247882810692E-4,1.0183871213855191
1677618669948392,-0.07476920729381265,7.934691386282111E-4,1.017288471808957
1677618669964372,-0.07464713511863907,7.934691386282111E-4,1.0163118944075684
1677618669980353,-0.07403677424277122,5.493247882810692E-4,1.0199740596627755
1677618669996334,-0.0745250629434655,6.713969634546402E-4,1.0176546883344777
1677618670012314,-0.0745250629434655,-3.0518043793392735E-4,1.019851987487602
1677618670028295,-0.07525749599450693,-3.0518043793392735E-4,1.0158236057068741
1677618670044276,-0.07489127946898622,0.001159685664148924,1.0158236057068741
1677618670060257,-0.07415884641794479,0.001159685664148924,1.0166781109330891
1677618670076237,-0.07415884641794479,1.831082627603564E-4,1.0183871213855191
1677618670092218,-0.07342641336690336,0.0025024795910582043,1.018997482261387
1677618670108199,-0.0736705577172505,4.272526131074983E-4,1.0178988326848248
1677618670124115,-0.07354848554207694,0.0020141908903639205,1.019851987487602
1677618670140095,-0.07464713511863907,7.934691386282111E-4,1.0216830701152055
1677618670156076,-0.07525749599450693,-6.103608758678547E-5,1.0175326161593041
1677618670172057,-0.07598992904554835,5.493247882810692E-4,1.0174105439841306
1677618670188037,-0.07476920729381265,9.15541313801782E-4,1.0153353170061798
1677618670204018,-0.07464713511863907,-5.493247882810692E-4,1.0178988326848248
1677618670219999,-0.07379262989242408,-4.272526131074983E-4,1.0197299153124284
1677618670235980,-0.0745250629434655,-0.0022583352407110624,1.0157015335317006
1677618670251960,-0.07354848554207694,-0.001159685664148924,1.0171663996337834
1677618670267941,-0.07464713511863907,-3.0518043793392735E-4,1.0163118944075684
1677618670283922,-0.07318226901655622,4.272526131074983E-4,1.0171663996337834
1677618670299903,-0.07342641336690336,1.831082627603564E-4,1.0182650492103456
1677618670315883,-0.07476920729381265,9.15541313801782E-4,1.0196078431372548
1677618670331864,-0.07476920729381265,5.493247882810692E-4,1.0187533379110398
1677618670347845,-0.07501335164415979,0.0018921187151903496,1.0197299153124284
1677618670363825,-0.07513542381933336,0.001159685664148924,1.0171663996337834
1677618670379806,-0.07489127946898622,1.831082627603564E-4,1.0150911726558327
1677618670395787,-0.0745250629434655,9.15541313801782E-4,1.0146028839551384
1677618670411768,-0.07415884641794479,9.15541313801782E-4,1.0182650492103456
1677618670427748,-0.07354848554207694,0.001159685664148924,1.0192416266117341
1677618670443695,-0.07354848554207694,-6.713969634546402E-4,1.016433966582742
1677618670459675,-0.07464713511863907,6.713969634546402E-4,1.018997482261387
1677618670475655,-0.0733043411917298,0.0014038300144960658,1.017288471808957
1677618670491635,-0.07464713511863907,1.831082627603564E-4,1.0183871213855191
1677618670507616,-0.07598992904554835,6.713969634546402E-4,1.0187533379110398
1677618670523596,-0.07635614557106907,0.0014038300144960658,1.0165560387579156
1677618670539576,-0.07476920729381265,7.934691386282111E-4,1.0197299153124284
1677618670555556,-0.07403677424277122,1.831082627603564E-4,1.0183871213855191
1677618670571537,-0.07428091859311836,-3.0518043793392735E-4,1.0168001831082627
1677618670587517,-0.07525749599450693,5.493247882810692E-4,1.0153353170061798
1677618670603497,-0.07354848554207694,9.15541313801782E-4,1.0175326161593041
1677618670619477,-0.07403677424277122,0.001037613488975353,1.0182650492103456
1677618670635458,-0.07403677424277122,0.001037613488975353,1.0192416266117341
1677618670651438,-0.07501335164415979,-4.272526131074983E-4,1.0180209048599984
1677618670667418,-0.07513542381933336,9.15541313801782E-4,1.0158236057068741
1677618670683398,-0.07489127946898622,0.0015259021896696368,1.0157015335317006
1677618670699379,-0.07391470206759765,0.0015259021896696368,1.0168001831082627
1677618670715359,-0.07525749599450693,3.0518043793392735E-4,1.0175326161593041
1677618670731339,-0.07415884641794479,5.493247882810692E-4,1.0158236057068741
1677618670747319,-0.07440299076829193,0.001159685664148924,1.0191195544365605
1677618670763244,-0.07440299076829193,4.272526131074983E-4,1.0183871213855191
1677618670779224,-0.07513542381933336,-4.272526131074983E-4,1.0193636987869077
1677618670795205,-0.07428091859311836,0.0014038300144960658,1.0176546883344777
1677618670811185,-0.07415884641794479,0.001159685664148924,1.018997482261387
1677618670827165,-0.07415884641794479,-3.0518043793392735E-4,1.0183871213855191
1677618670843145,-0.07415884641794479,1.831082627603564E-4,1.0176546883344777
1677618670859126,-0.07501335164415979,5.493247882810692E-4,1.0165560387579156
1677618670875106,-0.07574578469520121,7.934691386282111E-4,1.0166781109330891
1677618670891086,-0.07440299076829193,9.15541313801782E-4,1.015579461356527
1677618670907066,-0.07428091859311836,1.831082627603564E-4,1.0176546883344777
1677618670923047,-0.07293812466620908,0.0014038300144960658,1.0160677500572213
1677618670939027,-0.07440299076829193,0.0018921187151903496,1.0153353170061798
1677618670955007,-0.07501335164415979,4.272526131074983E-4,1.019851987487602
1677618670970987,-0.07562371252002764,-6.103608758678547E-5,1.0208285648889905
1677618670986968,-0.07635614557106907,-6.713969634546402E-4,1.0187533379110398
1677618671002948,-0.07476920729381265,0.0018921187151903496,1.0174105439841306
1677618671018928,-0.07428091859311836,0.001037613488975353,1.0187533379110398
1677618671034908,-0.07391470206759765,1.831082627603564E-4,1.0186312657358663
1677618671050889,-0.07391470206759765,9.15541313801782E-4,1.0174105439841306
1677618671066869,-0.0736705577172505,4.272526131074983E-4,1.0183871213855191
1677618671082824,-0.07379262989242408,4.272526131074983E-4,1.014724956130312
1677618671098805,-0.07440299076829193,6.713969634546402E-4,1.0187533379110398
1677618671114785,-0.07293812466620908,-6.713969634546402E-4,1.0204623483634698
1677618671130765,-0.07415884641794479,-4.272526131074983E-4,1.0157015335317006
1677618671146745,-0.07464713511863907,-9.15541313801782E-4,1.0176546883344777
1677618671162726,-0.07464713511863907,-0.001159685664148924,1.0199740596627755
1677618671178706,-0.07293812466620908,0.0017700465400167786,1.0182650492103456
1677618671194686,-0.07415884641794479,1.831082627603564E-4,1.0161898222323948
1677618671210666,-0.07476920729381265,0.0012817578393224949,1.0180209048599984
1677618671226647,-0.07598992904554835,4.272526131074983E-4,1.0209506370641641
1677618671242627,-0.07415884641794479,3.0518043793392735E-4,1.0180209048599984
1677618671258607,-0.07464713511863907,0.0022583352407110624,1.0200961318379491
1677618671274587,-0.07489127946898622,3.0518043793392735E-4,1.0161898222323948
1677618671290567,-0.07513542381933336,-6.103608758678547E-5,1.0188754100862134
1677618671306548,-0.07440299076829193,7.934691386282111E-4,1.0186312657358663
1677618671322528,-0.07281605249103551,7.934691386282111E-4,1.0160677500572213
1677618671338508,-0.0736705577172505,9.15541313801782E-4,1.0163118944075684
1677618671354488,-0.07403677424277122,1.831082627603564E-4,1.0177767605096513
1677618671370469,-0.07379262989242408,9.15541313801782E-4,1.0204623483634698
1677618671386449,-0.07562371252002764,6.713969634546402E-4,1.0160677500572213
1677618671402374,-0.07391470206759765,0.001037613488975353,1.0169222552834363
1677618671418354,-0.07562371252002764,6.713969634546402E-4,1.0194857709620813
1677618671434333,-0.07647821774624264,-4.272526131074983E-4,1.017288471808957
1677618671450313,-0.07501335164415979,0.0016479743648432077,1.0191195544365605
1677618671466293,-0.07403677424277122,1.831082627603564E-4,1.0176546883344777
1677618671482273,-0.07428091859311836,-5.493247882810692E-4,1.0186312657358663
1677618671498252,-0.07501335164415979,9.15541313801782E-4,1.019851987487602
1677618671514232,-0.07440299076829193,-6.103608758678547E-5,1.0159456778820477
1677618671530212,-0.07513542381933336,4.272526131074983E-4,1.0153353170061798
1677618671546192,-0.07440299076829193,6.103608758678547E-5,1.0182650492103456
1677618671562172,-0.07391470206759765,4.272526131074983E-4,1.018142977035172
1677618671578151,-0.0724498359655148,-3.0518043793392735E-4,1.0175326161593041
1677618671594131,-0.0736705577172505,6.103608758678547E-5,1.018142977035172
1677618671610111,-0.07379262989242408,-6.103608758678547E-5,1.0174105439841306
1677618671626091,-0.0745250629434655,6.103608758678547E-5,1.016433966582742
1677618671642070,-0.0745250629434655,7.934691386282111E-4,1.0180209048599984
1677618671658050,-0.07391470206759765,-3.0518043793392735E-4,1.0168001831082627
1677618671674030,-0.07428091859311836,-9.15541313801782E-4,1.0194857709620813
1677618671690010,-0.07379262989242408,1.831082627603564E-4,1.019851987487602
1677618671705989,-0.07342641336690336,7.934691386282111E-4,1.0185091935606927
1677618671721954,-0.07391470206759765,6.713969634546402E-4,1.0178988326848248
1677618671737934,-0.07428091859311836,0.001037613488975353,1.0170443274586098
1677618671753914,-0.07342641336690336,0.0016479743648432077,1.0187533379110398
1677618671769893,-0.0745250629434655,6.713969634546402E-4,1.0160677500572213
1677618671785873,-0.0745250629434655,0.0015259021896696368,1.0166781109330891
1677618671801853,-0.07501335164415979,-4.272526131074983E-4,1.0171663996337834
1677618671817833,-0.07391470206759765,5.493247882810692E-4,1.0183871213855191
1677618671833812,-0.07464713511863907,-6.103608758678547E-5,1.0153353170061798
1677618671849792,-0.07647821774624264,6.103608758678547E-5,1.0165560387579156
1677618671865772,-0.07440299076829193,6.103608758678547E-5,1.0161898222323948
1677618671881752,-0.07476920729381265,-5.493247882810692E-4,1.0161898222323948
1677618671897731,-0.07354848554207694,-3.0518043793392735E-4,1.0159456778820477
1677618671913711,-0.07476920729381265,0.0012817578393224949,1.0165560387579156
1677618671929691,-0.07391470206759765,1.831082627603564E-4,1.0170443274586098
1677618671945671,-0.07293812466620908,4.272526131074983E-4,1.020706492713817
1677618671961650,-0.07440299076829193,7.934691386282111E-4,1.0191195544365605
1677618671977630,-0.07501335164415979,5.493247882810692E-4,1.0204623483634698
1677618671993610,-0.07440299076829193,3.0518043793392735E-4,1.016433966582742
1677618672009590,-0.07513542381933336,0.0017700465400167786,1.0177767605096513
1677618672025570,-0.0745250629434655,6.713969634546402E-4,1.0176546883344777
1677618672041534,-0.07257190814068837,-6.103608758678547E-5,1.0191195544365605
1677618672057514,-0.07464713511863907,-6.103608758678547E-5,1.0187533379110398
1677618672073494,-0.07489127946898622,0.001159685664148924,1.0168001831082627
1677618672089473,-0.07562371252002764,5.493247882810692E-4,1.0178988326848248
1677618672105453,-0.07476920729381265,-1.831082627603564E-4,1.0193636987869077
1677618672121433,-0.07415884641794479,-7.934691386282111E-4,1.0160677500572213
1677618672137413,-0.07440299076829193,0.001159685664148924,1.0169222552834363
1677618672153392,-0.07403677424277122,0.001037613488975353,1.0178988326848248
1677618672169372,-0.07403677424277122,1.831082627603564E-4,1.0194857709620813
1677618672185352,-0.07501335164415979,5.493247882810692E-4,1.0163118944075684
1677618672201332,-0.0745250629434655,-4.272526131074983E-4,1.0192416266117341
1677618672217311,-0.07415884641794479,6.103608758678547E-5,1.0161898222323948
1677618672233291,-0.07464713511863907,-1.831082627603564E-4,1.0161898222323948
1677618672249271,-0.07415884641794479,-6.713969634546402E-4,1.0177767605096513
1677618672265251,-0.0736705577172505,7.934691386282111E-4,1.016433966582742
1677618672281231,-0.07403677424277122,0.0018921187151903496,1.0194857709620813
1677618672297210,-0.0745250629434655,-3.0518043793392735E-4,1.016433966582742
1677618672313190,-0.0745250629434655,0.0020141908903639205,1.0182650492103456
1677618672329170,-0.07513542381933336,7.934691386282111E-4,1.0169222552834363
1677618672345150,-0.07464713511863907,9.15541313801782E-4,1.0177767605096513
1677618672361084,-0.07391470206759765,0.0023804074158846333,1.0176546883344777
1677618672377063,-0.07428091859311836,3.0518043793392735E-4,1.0170443274586098
1677618672393042,-0.07342641336690336,-0.001037613488975353,1.0188754100862134
1677618672409021,-0.07428091859311836,7.934691386282111E-4,1.0202182040131227
1677618672425001,-0.07342641336690336,0.001037613488975353,1.0187533379110398
1677618672440980,-0.07428091859311836,3.0518043793392735E-4,1.018142977035172
1677618672456959,-0.07354848554207694,3.0518043793392735E-4,1.0196078431372548
1677618672472939,-0.0745250629434655,5.493247882810692E-4,1.017288471808957
1677618672488918,-0.07391470206759765,-3.0518043793392735E-4,1.0163118944075684
1677618672504897,-0.07501335164415979,0.0014038300144960658,1.0153353170061798
1677618672520877,-0.07513542381933336,0.0014038300144960658,1.0192416266117341
1677618672536856,-0.07586785687037478,0.0014038300144960658,1.0186312657358663
1677618672552835,-0.07476920729381265,3.0518043793392735E-4,1.0183871213855191
1677618672568814,-0.07415884641794479,-4.272526131074983E-4,1.0178988326848248
1677618672584794,-0.07501335164415979,1.831082627603564E-4,1.0191195544365605
1677618672600773,-0.0733043411917298,-6.103608758678547E-5,1.0171663996337834
1677618672616752,-0.0736705577172505,3.0518043793392735E-4,1.0185091935606927
1677618672632732,-0.07257190814068837,7.934691386282111E-4,1.0180209048599984
1677618672648711,-0.07415884641794479,0.0020141908903639205,1.0193636987869077
1677618672664690,-0.07476920729381265,5.493247882810692E-4,1.0203402761882963
1677618672680664,-0.0736705577172505,6.713969634546402E-4,1.0175326161593041
1677618672696643,-0.07464713511863907,7.934691386282111E-4,1.0170443274586098
1677618672712622,-0.07550164034485407,4.272526131074983E-4,1.0170443274586098
1677618672728602,-0.0745250629434655,0.0014038300144960658,1.0185091935606927
1677618672744581,-0.07354848554207694,9.15541313801782E-4,1.0188754100862134
1677618672760560,-0.07464713511863907,0.001037613488975353,1.0154573891813534
1677618672776539,-0.07391470206759765,0.001037613488975353,1.0165560387579156
1677618672792519,-0.07440299076829193,5.493247882810692E-4,1.0159456778820477
1677618672808498,-0.07391470206759765,6.713969634546402E-4,1.0171663996337834
1677618672824477,-0.07428091859311836,0.001037613488975353,1.0160677500572213
1677618672840457,-0.07440299076829193,0.0012817578393224949,1.0191195544365605
1677618672856436,-0.0745250629434655,0.0012817578393224949,1.0175326161593041
1677618672872415,-0.07464713511863907,0.001037613488975353,1.0194857709620813
1677618672888394,-0.0736705577172505,6.103608758678547E-5,1.0205844205386434
1677618672904374,-0.0762340733958955,0.0021362630655374915,1.0193636987869077
1677618672920353,-0.0745250629434655,0.0014038300144960658,1.0193636987869077
1677618672936332,-0.07306019684138265,-6.103608758678547E-5,1.0163118944075684
1677618672952312,-0.07306019684138265,0.0020141908903639205,1.0175326161593041
1677618672968291,-0.07464713511863907,0.0014038300144960658,1.0177767605096513
1677618672984270,-0.07415884641794479,5.493247882810692E-4,1.0158236057068741
1677618673000213,-0.07525749599450693,0.001159685664148924,1.0152132448310063
1677618673016193,-0.07391470206759765,0.0018921187151903496,1.016433966582742
1677618673032172,-0.07428091859311836,-4.272526131074983E-4,1.0180209048599984
1677618673048151,-0.07550164034485407,3.0518043793392735E-4,1.0178988326848248
1677618673064130,-0.07525749599450693,7.934691386282111E-4,1.0150911726558327
1677618673080110,-0.07464713511863907,0.0014038300144960658,1.0154573891813534
1677618673096089,-0.0753795681696805,5.493247882810692E-4,1.0180209048599984
1677618673112068,-0.07501335164415979,-1.831082627603564E-4,1.0199740596627755
1677618673128048,-0.07379262989242408,-4.272526131074983E-4,1.0166781109330891
1677618673144027,-0.07428091859311836,-6.103608758678547E-5,1.018142977035172
1677618673160006,-0.07476920729381265,-3.0518043793392735E-4,1.0171663996337834
1677618673175985,-0.07501335164415979,0.001159685664148924,1.0188754100862134
1677618673191965,-0.0736705577172505,7.934691386282111E-4,1.0176546883344777
1677618673207944,-0.07354848554207694,4.272526131074983E-4,1.018142977035172
1677618673223923,-0.0753795681696805,6.103608758678547E-5,1.0176546883344777
1677618673239903,-0.07489127946898622,-6.103608758678547E-5,1.0197299153124284
1677618673255882,-0.07476920729381265,-1.831082627603564E-4,1.0163118944075684
1677618673271861,-0.07428091859311836,0.0012817578393224949,1.0188754100862134
1677618673287840,-0.0745250629434655,4.272526131074983E-4,1.018142977035172
1677618673303820,-0.0753795681696805,-6.713969634546402E-4,1.0158236057068741
1677618673319793,-0.0733043411917298,-6.103608758678547E-5,1.0161898222323948
1677618673335773,-0.07403677424277122,4.272526131074983E-4,1.0169222552834363
1677618673351752,-0.07440299076829193,0.001037613488975353,1.0161898222323948
1677618673367731,-0.07379262989242408,-1.831082627603564E-4,1.018997482261387
1677618673383710,-0.07513542381933336,7.934691386282111E-4,1.0157015335317006
1677618673399690,-0.07391470206759765,4.272526131074983E-4,1.0174105439841306
1677618673415669,-0.07379262989242408,5.493247882810692E-4,1.0193636987869077
1677618673431648,-0.0736705577172505,0.001159685664148924,1.0197299153124284
1677618673447628,-0.07391470206759765,0.001037613488975353,1.0152132448310063
1677618673463607,-0.07501335164415979,9.15541313801782E-4,1.0154573891813534
1677618673479586,-0.07354848554207694,4.272526131074983E-4,1.016433966582742
1677618673495566,-0.0753795681696805,-5.493247882810692E-4,1.0169222552834363
1677618673511545,-0.07379262989242408,-3.0518043793392735E-4,1.0159456778820477
1677618673527524,-0.07403677424277122,0.001037613488975353,1.0196078431372548
1677618673543503,-0.07476920729381265,-3.0518043793392735E-4,1.0165560387579156
1677618673559483,-0.07293812466620908,-1.831082627603564E-4,1.0183871213855191
1677618673575462,-0.07440299076829193,0.0018921187151903496,1.0180209048599984
1677618673591441,-0.0736705577172505,1.831082627603564E-4,1.0175326161593041
1677618673607421,-0.07464713511863907,0.0017700465400167786,1.0196078431372548
1677618673623400,-0.0736705577172505,0.001037613488975353,1.0188754100862134
1677618673639373,-0.07476920729381265,-6.103608758678547E-5,1.0157015335317006
1677618673655353,-0.07318226901655622,4.272526131074983E-4,1.0154573891813534
1677618673671332,-0.07440299076829193,5.493247882810692E-4,1.0171663996337834
1677618673687311,-0.07525749599450693,0.0014038300144960658,1.018142977035172
1677618673703291,-0.07428091859311836,0.0015259021896696368,1.0176546883344777
1677618673719270,-0.07550164034485407,3.0518043793392735E-4,1.0154573891813534
1677618673735249,-0.07342641336690336,-1.831082627603564E-4,1.0185091935606927
1677618673751228,-0.0745250629434655,0.0016479743648432077,1.0176546883344777
1677618673767208,-0.07513542381933336,1.831082627603564E-4,1.0166781109330891
1677618673783187,-0.0736705577172505,0.0016479743648432077,1.0166781109330891
1677618673799166,-0.07428091859311836,9.15541313801782E-4,1.015579461356527
1677618673815146,-0.0745250629434655,9.15541313801782E-4,1.0202182040131227
1677618673831125,-0.07525749599450693,-5.493247882810692E-4,1.0192416266117341
1677618673847104,-0.0753795681696805,4.272526131074983E-4,1.0180209048599984
1677618673863083,-0.07550164034485407,0.0016479743648432077,1.0163118944075684
1677618673879063,-0.07403677424277122,0.0016479743648432077,1.0183871213855191
1677618673895042,-0.0753795681696805,0.001037613488975353,1.0169222552834363
1677618673911021,-0.07415884641794479,0.0020141908903639205,1.018142977035172
1677618673927001,-0.07415884641794479,-9.15541313801782E-4,1.0169222552834363
1677618673942980,-0.0736705577172505,1.831082627603564E-4,1.016433966582742
1677618673958953,-0.0745250629434655,3.0518043793392735E-4,1.0178988326848248
1677618673974933,-0.0745250629434655,6.713969634546402E-4,1.0168001831082627
1677618673990912,-0.0745250629434655,-0.0012817578393224949,1.0150911726558327
1677618674006891,-0.07391470206759765,0.001159685664148924,1.0188754100862134
1677618674022871,-0.07391470206759765,3.0518043793392735E-4,1.0197299153124284
1677618674038850,-0.0736705577172505,9.15541313801782E-4,1.0171663996337834
1677618674054829,-0.07415884641794479,0.0015259021896696368,1.0185091935606927
1677618674070809,-0.07550164034485407,3.0518043793392735E-4,1.0171663996337834
1677618674086788,-0.07403677424277122,0.002746623941405346,1.0188754100862134
1677618674102767,-0.07501335164415979,0.0022583352407110624,1.0187533379110398
1677618674118746,-0.07354848554207694,6.713969634546402E-4,1.0175326161593041
1677618674134726,-0.07428091859311836,0.001159685664148924,1.018997482261387
1677618674150705,-0.07489127946898622,4.272526131074983E-4,1.016433966582742
1677618674166684,-0.07391470206759765,9.15541313801782E-4,1.0159456778820477
1677618674182664,-0.07440299076829193,0.001037613488975353,1.0208285648889905
1677618674198643,-0.07550164034485407,0.0017700465400167786,1.0191195544365605
1677618674214622,-0.07281605249103551,7.934691386282111E-4,1.0182650492103456
1677618674230601,-0.0724498359655148,5.493247882810692E-4,1.016433966582742
1677618674246581,-0.07464713511863907,-5.493247882810692E-4,1.0158236057068741
1677618674262560,-0.07464713511863907,-6.103608758678547E-5,1.0186312657358663
1677618674278503,-0.07440299076829193,0.0012817578393224949,1.0168001831082627
1677618674294482,-0.07501335164415979,6.713969634546402E-4,1.0168001831082627
1677618674310462,-0.0753795681696805,0.0017700465400167786,1.016433966582742
1677618674326441,-0.07525749599450693,5.493247882810692E-4,1.0175326161593041
1677618674342420,-0.07379262989242408,1.831082627603564E-4,1.015579461356527
1677618674358399,-0.07550164034485407,6.713969634546402E-4,1.017288471808957
1677618674374379,-0.07403677424277122,0.001159685664148924,1.017288471808957
1677618674390358,-0.07501335164415979,3.0518043793392735E-4,1.0191195544365605
1677618674406337,-0.07574578469520121,9.15541313801782E-4,1.0199740596627755
1677618674422317,-0.07428091859311836,5.493247882810692E-4,1.0165560387579156
1677618674438296,-0.07403677424277122,5.493247882810692E-4,1.0165560387579156
1677618674454275,-0.07464713511863907,0.0012817578393224949,1.015579461356527
1677618674470255,-0.07391470206759765,6.713969634546402E-4,1.0194857709620813
1677618674486234,-0.07611200122072193,9.15541313801782E-4,1.0213168535896848
1677618674502213,-0.07501335164415979,9.15541313801782E-4,1.0197299153124284
1677618674518192,-0.07379262989242408,6.713969634546402E-4,1.0177767605096513
1677618674534172,-0.07440299076829193,3.0518043793392735E-4,1.0174105439841306
1677618674550151,-0.0745250629434655,5.493247882810692E-4,1.0197299153124284
1677618674566130,-0.0736705577172505,9.15541313801782E-4,1.0177767605096513
1677618674582110,-0.07574578469520121,0.0018921187151903496,1.0205844205386434
1677618674598083,-0.07476920729381265,7.934691386282111E-4,1.018997482261387
1677618674614062,-0.07354848554207694,0.001159685664148924,1.0178988326848248
1677618674630042,-0.0733043411917298,6.103608758678547E-5,1.018142977035172
1677618674646021,-0.0745250629434655,7.934691386282111E-4,1.0177767605096513
1677618674662000,-0.07550164034485407,7.934691386282111E-4,1.0197299153124284
1677618674677980,-0.07550164034485407,4.272526131074983E-4,1.0183871213855191
1677618674693959,-0.07440299076829193,1.831082627603564E-4,1.018997482261387
1677618674709938,-0.0736705577172505,0.0012817578393224949,1.0183871213855191
1677618674725917,-0.07476920729381265,6.713969634546402E-4,1.0177767605096513
1677618674741897,-0.07440299076829193,3.0518043793392735E-4,1.0178988326848248
1677618674757876,-0.07598992904554835,0.001159685664148924,1.0191195544365605
1677618674773855,-0.07403677424277122,-9.15541313801782E-4,1.0188754100862134
1677618674789835,-0.0736705577172505,3.0518043793392735E-4,1.0188754100862134
1677618674805814,-0.07379262989242408,1.831082627603564E-4,1.0192416266117341
1677618674821793,-0.07428091859311836,-5.493247882810692E-4,1.0160677500572213
1677618674837772,-0.07476920729381265,6.103608758678547E-5,1.0171663996337834
1677618674853752,-0.07598992904554835,0.001037613488975353,1.0171663996337834
1677618674869731,-0.07550164034485407,9.15541313801782E-4,1.0165560387579156
1677618674885710,-0.07525749599450693,0.001159685664148924,1.0163118944075684
1677618674901690,-0.07476920729381265,0.0020141908903639205,1.0175326161593041
1677618674917633,-0.07501335164415979,-3.0518043793392735E-4,1.0192416266117341
1677618674933611,-0.07391470206759765,-9.15541313801782E-4,1.0175326161593041
1677618674949590,-0.07562371252002764,7.934691386282111E-4,1.0170443274586098
1677618674965569,-0.07403677424277122,0.0016479743648432077,1.0175326161593041
1677618674981548,-0.07354848554207694,6.713969634546402E-4,1.0160677500572213
1677618674997527,-0.07513542381933336,4.272526131074983E-4,1.0191195544365605
1677618675013506,-0.07489127946898622,-9.15541313801782E-4,1.0182650492103456
1677618675029484,-0.07354848554207694,1.831082627603564E-4,1.0176546883344777
1677618675045463,-0.07379262989242408,9.15541313801782E-4,1.0185091935606927
1677618675061442,-0.0745250629434655,-4.272526131074983E-4,1.0168001831082627
1677618675077421,-0.07428091859311836,0.0014038300144960658,1.0168001831082627
1677618675093400,-0.07415884641794479,5.493247882810692E-4,1.0161898222323948
1677618675109378,-0.07562371252002764,6.103608758678547E-5,1.0183871213855191
1677618675125357,-0.07501335164415979,-6.103608758678547E-5,1.0177767605096513
1677618675141336,-0.07525749599450693,9.15541313801782E-4,1.0157015335317006
1677618675157315,-0.07489127946898622,4.272526131074983E-4,1.0178988326848248
1677618675173294,-0.07403677424277122,0.001159685664148924,1.0160677500572213
1677618675189273,-0.07464713511863907,-6.103608758678547E-5,1.0178988326848248
1677618675205251,-0.07513542381933336,0.001037613488975353,1.0175326161593041
1677618675221230,-0.07415884641794479,-0.001037613488975353,1.0197299153124284
1677618675237213,-0.07440299076829193,0.001037613488975353,1.0188754100862134
1677618675253192,-0.07525749599450693,5.493247882810692E-4,1.0160677500572213
1677618675269170,-0.07415884641794479,6.713969634546402E-4,1.015579461356527
1677618675285149,-0.07501335164415979,7.934691386282111E-4,1.0176546883344777
1677618675301128,-0.07501335164415979,0.001159685664148924,1.019851987487602
1677618675317107,-0.07464713511863907,1.831082627603564E-4,1.0166781109330891
1677618675333086,-0.07476920729381265,-1.831082627603564E-4,1.0159456778820477
1677618675349064,-0.07403677424277122,-6.103608758678547E-5,1.0188754100862134
1677618675365043,-0.0736705577172505,3.0518043793392735E-4,1.0186312657358663
1677618675381022,-0.0745250629434655,0.0012817578393224949,1.0193636987869077
1677618675397001,-0.07403677424277122,0.0017700465400167786,1.0211947814145113
1677618675412980,-0.07550164034485407,0.001159685664148924,1.019851987487602
1677618675428959,-0.07611200122072193,9.15541313801782E-4,1.0187533379110398
1677618675444937,-0.07525749599450693,4.272526131074983E-4,1.0166781109330891
1677618675460916,-0.07403677424277122,-5.493247882810692E-4,1.0175326161593041
1677618675476895,-0.07379262989242408,4.272526131074983E-4,1.0185091935606927
1677618675492874,-0.0733043411917298,-6.713969634546402E-4,1.0180209048599984
1677618675508853,-0.07428091859311836,0.0012817578393224949,1.0199740596627755
1677618675524831,-0.07574578469520121,-1.831082627603564E-4,1.0165560387579156
1677618675540810,-0.07440299076829193,0.0016479743648432077,1.0177767605096513
1677618675556762,-0.0745250629434655,0.001159685664148924,1.0176546883344777
1677618675572741,-0.07464713511863907,3.0518043793392735E-4,1.0168001831082627
1677618675588720,-0.07403677424277122,-7.934691386282111E-4,1.0188754100862134
1677618675604699,-0.07513542381933336,0.0012817578393224949,1.0183871213855191
1677618675620678,-0.07501335164415979,4.272526131074983E-4,1.0199740596627755
1677618675636656,-0.07440299076829193,-6.103608758678547E-5,1.0160677500572213
1677618675652635,-0.0745250629434655,0.0014038300144960658,1.0174105439841306
1677618675668614,-0.07489127946898622,6.103608758678547E-5,1.0180209048599984
1677618675684593,-0.0753795681696805,-6.713969634546402E-4,1.0168001831082627
1677618675700572,-0.07403677424277122,0.0014038300144960658,1.0160677500572213
1677618675716550,-0.0733043411917298,6.103608758678547E-5,1.0182650492103456
1677618675732529,-0.07403677424277122,6.103608758678547E-5,1.018997482261387
1677618675748508,-0.07464713511863907,0.0016479743648432077,1.0186312657358663
1677618675764487,-0.07476920729381265,9.15541313801782E-4,1.0177767605096513
1677618675780466,-0.07476920729381265,0.0016479743648432077,1.0160677500572213
1677618675796445,-0.07428091859311836,3.0518043793392735E-4,1.0186312657358663
1677618675812423,-0.0745250629434655,6.103608758678547E-5,1.018997482261387
1677618675828402,-0.07428091859311836,1.831082627603564E-4,1.0202182040131227
1677618675844381,-0.07464713511863907,3.0518043793392735E-4,1.0211947814145113
1677618675860360,-0.07489127946898622,-9.15541313801782E-4,1.0166781109330891
1677618675876342,-0.07550164034485407,-6.713969634546402E-4,1.0187533379110398
1677618675892321,-0.07342641336690336,3.0518043793392735E-4,1.0169222552834363
1677618675908300,-0.07318226901655622,0.001159685664148924,1.0177767605096513
1677618675924279,-0.07403677424277122,0.0020141908903639205,1.0178988326848248
1677618675940258,-0.0745250629434655,-6.103608758678547E-5,1.0169222552834363
1677618675956236,-0.07525749599450693,0.0012817578393224949,1.0196078431372548
1677618675972215,-0.07440299076829193,0.0022583352407110624,1.0176546883344777
1677618675988194,-0.07379262989242408,9.15541313801782E-4,1.0183871213855191
1677618676004173,-0.0745250629434655,-6.713969634546402E-4,1.0185091935606927
1677618676020152,-0.07464713511863907,-1.831082627603564E-4,1.0194857709620813
1677618676036131,-0.07342641336690336,3.0518043793392735E-4,1.0183871213855191
1677618676052109,-0.07318226901655622,4.272526131074983E-4,1.0170443274586098
1677618676068088,-0.0736705577172505,0.001037613488975353,1.0166781109330891
1677618676084067,-0.07342641336690336,0.001037613488975353,1.0180209048599984
1677618676100046,-0.07415884641794479,0.0018921187151903496,1.0192416266117341
1677618676116025,-0.07403677424277122,4.272526131074983E-4,1.0188754100862134
1677618676132003,-0.07476920729381265,-6.713969634546402E-4,1.018997482261387
1677618676147982,-0.07379262989242408,-6.103608758678547E-5,1.0182650492103456
1677618676163961,-0.0736705577172505,5.493247882810692E-4,1.0177767605096513
1677618676179940,-0.07281605249103551,4.272526131074983E-4,1.0166781109330891
1677618676195892,-0.07379262989242408,0.0023804074158846333,1.0166781109330891
1677618676211871,-0.07476920729381265,0.001037613488975353,1.0183871213855191
1677618676227850,-0.0736705577172505,9.15541313801782E-4,1.0170443274586098
1677618676243828,-0.07525749599450693,6.713969634546402E-4,1.0187533379110398
1677618676259807,-0.07660028992141621,0.001037613488975353,1.0168001831082627
1677618676275786,-0.07562371252002764,0.001037613488975353,1.0185091935606927
1677618676291765,-0.07513542381933336,9.15541313801782E-4,1.0196078431372548
1677618676307744,-0.07379262989242408,-6.103608758678547E-5,1.0171663996337834
1677618676323722,-0.07464713511863907,0.0021362630655374915,1.0170443274586098
1677618676339701,-0.07379262989242408,9.15541313801782E-4,1.0191195544365605
1677618676355680,-0.07403677424277122,0.001037613488975353,1.0170443274586098
1677618676371659,-0.07464713511863907,-3.0518043793392735E-4,1.0174105439841306
1677618676387638,-0.07440299076829193,1.831082627603564E-4,1.0166781109330891
1677618676403617,-0.07464713511863907,0.001037613488975353,1.0187533379110398
1677618676419595,-0.07574578469520121,0.0016479743648432077,1.0175326161593041
1677618676435574,-0.07525749599450693,0.0015259021896696368,1.018142977035172
1677618676451553,-0.07489127946898622,5.493247882810692E-4,1.0186312657358663
1677618676467532,-0.0753795681696805,1.831082627603564E-4,1.0163118944075684
1677618676483511,-0.0736705577172505,0.0016479743648432077,1.0163118944075684
1677618676499489,-0.07501335164415979,7.934691386282111E-4,1.0175326161593041
1677618676515472,-0.07440299076829193,-1.831082627603564E-4,1.0186312657358663
1677618676531451,-0.07476920729381265,-5.493247882810692E-4,1.0186312657358663
1677618676547430,-0.07562371252002764,9.15541313801782E-4,1.0199740596627755
1677618676563408,-0.07428091859311836,0.0012817578393224949,1.0144808117799649
1677618676579387,-0.0753795681696805,-6.103608758678547E-5,1.0182650492103456
1677618676595366,-0.0736705577172505,-5.493247882810692E-4,1.0169222552834363
1677618676611345,-0.07391470206759765,-6.713969634546402E-4,1.0182650492103456
1677618676627324,-0.07440299076829193,1.831082627603564E-4,1.016433966582742
1677618676643303,-0.0753795681696805,-3.0518043793392735E-4,1.0170443274586098
1677618676659281,-0.07550164034485407,1.831082627603564E-4,1.0180209048599984
1677618676675260,-0.07391470206759765,5.493247882810692E-4,1.0182650492103456
1677618676691239,-0.07415884641794479,-6.103608758678547E-5,1.0188754100862134
1677618676707218,-0.07391470206759765,0.0012817578393224949,1.0177767605096513
1677618676723197,-0.07391470206759765,9.15541313801782E-4,1.0192416266117341
1677618676739175,-0.07379262989242408,7.934691386282111E-4,1.0225375753414205
1677618676755154,-0.07513542381933336,0.0015259021896696368,1.0209506370641641
1677618676771133,-0.07513542381933336,0.0015259021896696368,1.0187533379110398
1677618676787112,-0.0762340733958955,4.272526131074983E-4,1.0197299153124284
1677618676803091,-0.07525749599450693,7.934691386282111E-4,1.018142977035172
1677618676819069,-0.07415884641794479,-7.934691386282111E-4,1.0161898222323948
1677618676835022,-0.07403677424277122,0.0017700465400167786,1.0170443274586098
1677618676851000,-0.07379262989242408,0.0016479743648432077,1.0174105439841306
1677618676866979,-0.07611200122072193,3.0518043793392735E-4,1.0192416266117341
1677618676882958,-0.07440299076829193,0.0015259021896696368,1.0160677500572213
1677618676898937,-0.07476920729381265,3.0518043793392735E-4,1.018997482261387
1677618676914916,-0.07354848554207694,-1.831082627603564E-4,1.0166781109330891
1677618676930894,-0.07464713511863907,-6.103608758678547E-5,1.0185091935606927
1677618676946873,-0.07440299076829193,-1.831082627603564E-4,1.0163118944075684
1677618676962852,-0.07379262989242408,0.0017700465400167786,1.0177767605096513
1677618676978831,-0.0745250629434655,9.15541313801782E-4,1.0171663996337834
1677618676994810,-0.07306019684138265,3.0518043793392735E-4,1.0176546883344777
1677618677010789,-0.07464713511863907,9.15541313801782E-4,1.015579461356527
1677618677026767,-0.07403677424277122,7.934691386282111E-4,1.0171663996337834
1677618677042746,-0.07440299076829193,0.001037613488975353,1.0185091935606927
1677618677058725,-0.07464713511863907,-6.713969634546402E-4,1.0176546883344777
1677618677074704,-0.07342641336690336,6.713969634546402E-4,1.0163118944075684
1677618677090683,-0.07354848554207694,7.934691386282111E-4,1.0185091935606927
1677618677106661,-0.07440299076829193,-4.272526131074983E-4,1.0185091935606927
1677618677122640,-0.07403677424277122,6.713969634546402E-4,1.0171663996337834
1677618677138619,-0.07428091859311836,0.001037613488975353,1.016433966582742
1677618677154602,-0.07306019684138265,5.493247882810692E-4,1.0160677500572213
1677618677170580,-0.07611200122072193,-0.001037613488975353,1.0180209048599984
1677618677186559,-0.07403677424277122,3.0518043793392735E-4,1.0165560387579156
1677618677202538,-0.07428091859311836,-3.0518043793392735E-4,1.0171663996337834
1677618677218517,-0.07403677424277122,0.0023804074158846333,1.0161898222323948
1677618677234496,-0.07440299076829193,4.272526131074983E-4,1.0193636987869077
1677618677250475,-0.07306019684138265,7.934691386282111E-4,1.0185091935606927
1677618677266453,-0.0745250629434655,0.001159685664148924,1.0176546883344777
1677618677282432,-0.07476920729381265,6.103608758678547E-5,1.0188754100862134
1677618677298411,-0.07440299076829193,-1.831082627603564E-4,1.018142977035172
1677618677314390,-0.07440299076829193,4.272526131074983E-4,1.0196078431372548
1677618677330369,-0.07464713511863907,0.0015259021896696368,1.0185091935606927
1677618677346347,-0.07269398031586194,0.002990768291752488,1.0177767605096513
1677618677362326,-0.07476920729381265,6.713969634546402E-4,1.0159456778820477
1677618677378305,-0.07428091859311836,-1.831082627603564E-4,1.0183871213855191
1677618677394284,-0.0733043411917298,6.103608758678547E-5,1.0178988326848248
1677618677410263,-0.07403677424277122,0.0012817578393224949,1.0166781109330891
1677618677426241,-0.07476920729381265,6.103608758678547E-5,1.0174105439841306
1677618677442220,-0.07513542381933336,-5.493247882810692E-4,1.0170443274586098
1677618677458199,-0.07428091859311836,0.0021362630655374915,1.0174105439841306
1677618677474151,-0.07501335164415979,0.0017700465400167786,1.0180209048599984
1677618677490130,-0.07501335164415979,0.0014038300144960658,1.0170443274586098
1677618677506109,-0.07403677424277122,0.001037613488975353,1.0165560387579156
1677618677522088,-0.07428091859311836,0.0015259021896696368,1.0188754100862134
1677618677538066,-0.07306019684138265,5.493247882810692E-4,1.018142977035172
1677618677554045,-0.07525749599450693,-6.103608758678547E-5,1.018142977035172
1677618677570024,-0.07391470206759765,6.103608758678547E-5,1.0196078431372548
1677618677586003,-0.0753795681696805,6.103608758678547E-5,1.0163118944075684
1677618677601982,-0.0736705577172505,7.934691386282111E-4,1.014724956130312
1677618677617961,-0.0753795681696805,9.15541313801782E-4,1.0175326161593041
1677618677633939,-0.07379262989242408,0.0022583352407110624,1.0182650492103456
1677618677649918,-0.07476920729381265,9.15541313801782E-4,1.0169222552834363
1677618677665897,-0.0736705577172505,4.272526131074983E-4,1.0161898222323948
1677618677681876,-0.07379262989242408,4.272526131074983E-4,1.0183871213855191
1677618677697855,-0.07440299076829193,7.934691386282111E-4,1.018997482261387
1677618677713833,-0.07464713511863907,5.493247882810692E-4,1.0183871213855191
1677618677729812,-0.07464713511863907,1.831082627603564E-4,1.0166781109330891
1677618677745791,-0.0745250629434655,-5.493247882810692E-4,1.0174105439841306
1677618677761770,-0.0736705577172505,5.493247882810692E-4,1.0194857709620813
1677618677777749,-0.07281605249103551,3.0518043793392735E-4,1.0150911726558327
1677618677793762,-0.07440299076829193,6.713969634546402E-4,1.0148470283054856
1677618677809741,-0.07464713511863907,0.001159685664148924,1.0183871213855191
1677618677825719,-0.0753795681696805,0.0014038300144960658,1.0174105439841306
1677618677841698,-0.07647821774624264,0.0025024795910582043,1.0175326161593041
1677618677857677,-0.0762340733958955,6.103608758678547E-5,1.0163118944075684
1677618677873656,-0.0745250629434655,3.0518043793392735E-4,1.0199740596627755
1677618677889635,-0.07415884641794479,4.272526131074983E-4,1.0194857709620813
1677618677905614,-0.07391470206759765,7.934691386282111E-4,1.0171663996337834
1677618677921592,-0.07440299076829193,0.0020141908903639205,1.0178988326848248
1677618677937571,-0.0736705577172505,0.0012817578393224949,1.0193636987869077
1677618677953550,-0.07562371252002764,-1.831082627603564E-4,1.0174105439841306
1677618677969529,-0.07489127946898622,7.934691386282111E-4,1.0158236057068741
1677618677985508,-0.07440299076829193,-1.831082627603564E-4,1.0180209048599984
1677618678001486,-0.07440299076829193,9.15541313801782E-4,1.016433966582742
1677618678017465,-0.07391470206759765,0.0014038300144960658,1.0193636987869077
1677618678033444,-0.07391470206759765,0.001159685664148924,1.018142977035172
1677618678049423,-0.07379262989242408,0.0017700465400167786,1.0176546883344777
1677618678065402,-0.07476920729381265,6.713969634546402E-4,1.0178988326848248
1677618678081380,-0.07440299076829193,5.493247882810692E-4,1.0191195544365605
1677618678097359,-0.0745250629434655,9.15541313801782E-4,1.0211947814145113
1677618678113311,-0.07464713511863907,-1.831082627603564E-4,1.0168001831082627
1677618678129290,-0.0753795681696805,9.15541313801782E-4,1.0204623483634698
1677618678145269,-0.0753795681696805,4.272526131074983E-4,1.0177767605096513
1677618678161248,-0.07513542381933336,7.934691386282111E-4,1.0180209048599984
1677618678177227,-0.07586785687037478,-3.0518043793392735E-4,1.0163118944075684
1677618678193205,-0.07489127946898622,0.001037613488975353,1.0185091935606927
1677618678209184,-0.07415884641794479,4.272526131074983E-4,1.018142977035172
1677618678225163,-0.07501335164415979,6.713969634546402E-4,1.0163118944075684
1677618678241142,-0.07428091859311836,0.0020141908903639205,1.0163118944075684
1677618678257121,-0.07476920729381265,0.001037613488975353,1.0168001831082627
1677618678273100,-0.07403677424277122,-6.103608758678547E-5,1.0171663996337834
1677618678289078,-0.0753795681696805,6.103608758678547E-5,1.0182650492103456
1677618678305057,-0.07403677424277122,-5.493247882810692E-4,1.0176546883344777
1677618678321036,-0.07550164034485407,-1.831082627603564E-4,1.0170443274586098
1677618678337015,-0.07440299076829193,0.0015259021896696368,1.0158236057068741
1677618678352994,-0.07476920729381265,-5.493247882810692E-4,1.0169222552834363
1677618678368972,-0.07342641336690336,-9.15541313801782E-4,1.0196078431372548
1677618678384951,-0.07525749599450693,-4.272526131074983E-4,1.0161898222323948
1677618678400930,-0.07476920729381265,0.001159685664148924,1.0186312657358663
1677618678416909,-0.07513542381933336,6.713969634546402E-4,1.0183871213855191
1677618678432861,-0.07379262989242408,5.493247882810692E-4,1.016433966582742
1677618678448840,-0.07306019684138265,-6.103608758678547E-5,1.018997482261387
1677618678464819,-0.07428091859311836,3.0518043793392735E-4,1.0209506370641641
1677618678480797,-0.07464713511863907,-6.103608758678547E-5,1.0192416266117341
1677618678496776,-0.07464713511863907,0.0016479743648432077,1.0175326161593041
1677618678512755,-0.07574578469520121,3.0518043793392735E-4,1.0185091935606927
1677618678528734,-0.07598992904554835,0.001037613488975353,1.0180209048599984
1677618678544713,-0.07415884641794479,1.831082627603564E-4,1.0178988326848248
1677618678560691,-0.07391470206759765,0.001037613488975353,1.0160677500572213
1677618678576670,-0.07379262989242408,0.001037613488975353,1.0186312657358663
1677618678592649,-0.07403677424277122,6.103608758678547E-5,1.0208285648889905
1677618678608628,-0.07501335164415979,-9.15541313801782E-4,1.0200961318379491
1677618678624607,-0.07403677424277122,7.934691386282111E-4,1.0170443274586098
1677618678640586,-0.07440299076829193,0.0017700465400167786,1.0175326161593041
1677618678656564,-0.07501335164415979,5.493247882810692E-4,1.0202182040131227
1677618678672543,-0.07476920729381265,9.15541313801782E-4,1.0188754100862134
1677618678688522,-0.0745250629434655,6.713969634546402E-4,1.0204623483634698
1677618678704501,-0.07354848554207694,1.831082627603564E-4,1.0188754100862134
1677618678720480,-0.07476920729381265,0.001159685664148924,1.0175326161593041
1677618678736458,-0.0745250629434655,9.15541313801782E-4,1.0187533379110398
1677618678752441,-0.0762340733958955,4.272526131074983E-4,1.018997482261387
1677618678768420,-0.07440299076829193,-4.272526131074983E-4,1.0200961318379491
1677618678784399,-0.07293812466620908,-1.831082627603564E-4,1.0171663996337834
1677618678800377,-0.07403677424277122,0.0012817578393224949,1.0193636987869077
1677618678816356,-0.07391470206759765,0.001159685664148924,1.0169222552834363
1677618678832335,-0.07306019684138265,-5.493247882810692E-4,1.015579461356527
1677618678848314,-0.0736705577172505,0.001159685664148924,1.0171663996337834
1677618678864293,-0.0745250629434655,7.934691386282111E-4,1.0196078431372548
1677618678880272,-0.07415884641794479,0.0012817578393224949,1.0171663996337834
1677618678896250,-0.07403677424277122,0.0014038300144960658,1.0148470283054856
1677618678912229,-0.0733043411917298,-3.0518043793392735E-4,1.0171663996337834
1677618678928208,-0.07293812466620908,0.0014038300144960658,1.0166781109330891
1677618678944187,-0.0736705577172505,0.0014038300144960658,1.0166781109330891
1677618678960166,-0.0733043411917298,5.493247882810692E-4,1.0178988326848248
1677618678976144,-0.07354848554207694,6.713969634546402E-4,1.0192416266117341
1677618678992123,-0.07342641336690336,0.0018921187151903496,1.0193636987869077
1677618679008102,-0.07525749599450693,0.0012817578393224949,1.0174105439841306
1677618679024081,-0.0736705577172505,6.713969634546402E-4,1.018142977035172
1677618679040060,-0.07415884641794479,5.493247882810692E-4,1.0169222552834363
1677618679056038,-0.07489127946898622,-3.0518043793392735E-4,1.018142977035172
1677618679071991,-0.07550164034485407,0.0020141908903639205,1.0154573891813534
1677618679087969,-0.07440299076829193,0.002990768291752488,1.0152132448310063
1677618679103947,-0.07464713511863907,0.001037613488975353,1.0161898222323948
1677618679119926,-0.07440299076829193,3.0518043793392735E-4,1.020706492713817
1677618679135904,-0.07464713511863907,0.0015259021896696368,1.0176546883344777
1677618679151882,-0.07464713511863907,0.0016479743648432077,1.0183871213855191
1677618679167861,-0.0745250629434655,5.493247882810692E-4,1.0176546883344777
1677618679183839,-0.07525749599450693,6.103608758678547E-5,1.0176546883344777
1677618679199817,-0.07379262989242408,0.0017700465400167786,1.0178988326848248
1677618679215796,-0.0745250629434655,0.0018921187151903496,1.0185091935606927
1677618679231774,-0.07428091859311836,0.0023804074158846333,1.0158236057068741
1677618679247752,-0.07403677424277122,0.001159685664148924,1.0185091935606927
1677618679263731,-0.07391470206759765,0.0015259021896696368,1.0191195544365605
1677618679279709,-0.07415884641794479,3.0518043793392735E-4,1.0169222552834363
1677618679295687,-0.07415884641794479,6.713969634546402E-4,1.0154573891813534
1677618679311666,-0.07513542381933336,6.713969634546402E-4,1.0163118944075684
1677618679327644,-0.07550164034485407,1.831082627603564E-4,1.0192416266117341
1677618679343622,-0.07342641336690336,0.001159685664148924,1.0174105439841306
1677618679359601,-0.07440299076829193,6.103608758678547E-5,1.0187533379110398
1677618679375579,-0.07403677424277122,0.001037613488975353,1.0196078431372548
1677618679391571,-0.07354848554207694,0.0012817578393224949,1.0177767605096513
1677618679407549,-0.07391470206759765,7.934691386282111E-4,1.018142977035172
1677618679423528,-0.07415884641794479,-0.001037613488975353,1.0200961318379491
1677618679439507,-0.07464713511863907,0.001159685664148924,1.017288471808957
1677618679455486,-0.07281605249103551,9.15541313801782E-4,1.0174105439841306
1677618679471465,-0.07403677424277122,1.831082627603564E-4,1.018142977035172
1677618679487444,-0.07525749599450693,-7.934691386282111E-4,1.0168001831082627
1677618679503422,-0.07550164034485407,0.001159685664148924,1.0178988326848248
1677618679519401,-0.07440299076829193,0.0014038300144960658,1.0196078431372548
1677618679535380,-0.07379262989242408,0.0020141908903639205,1.0178988326848248
1677618679551359,-0.07354848554207694,0.0016479743648432077,1.0191195544365605
1677618679567338,-0.07476920729381265,0.0012817578393224949,1.0170443274586098
1677618679583316,-0.07562371252002764,5.493247882810692E-4,1.0165560387579156
1677618679599295,-0.07440299076829193,0.0015259021896696368,1.0160677500572213
1677618679615274,-0.07403677424277122,-6.713969634546402E-4,1.0177767605096513
1677618679631253,-0.07525749599450693,5.493247882810692E-4,1.0166781109330891
1677618679647232,-0.07379262989242408,3.0518043793392735E-4,1.0183871213855191
1677618679663210,-0.07379262989242408,5.493247882810692E-4,1.0182650492103456
1677618679679189,-0.0745250629434655,-9.15541313801782E-4,1.0187533379110398
1677618679695168,-0.07403677424277122,0.001159685664148924,1.0204623483634698
1677618679711120,-0.07318226901655622,9.15541313801782E-4,1.0185091935606927
1677618679727099,-0.07354848554207694,-7.934691386282111E-4,1.018142977035172
1677618679743077,-0.07440299076829193,7.934691386282111E-4,1.0186312657358663
1677618679759055,-0.0736705577172505,-4.272526131074983E-4,1.0170443274586098
1677618679775034,-0.07342641336690336,7.934691386282111E-4,1.0177767605096513
1677618679791012,-0.07464713511863907,0.0017700465400167786,1.0191195544365605
1677618679806990,-0.07440299076829193,0.001037613488975353,1.0194857709620813
1677618679822969,-0.07293812466620908,0.0020141908903639205,1.0185091935606927
1677618679838947,-0.07415884641794479,0.0014038300144960658,1.0183871213855191
1677618679854925,-0.07415884641794479,-1.831082627603564E-4,1.0191195544365605
1677618679870904,-0.07391470206759765,-4.272526131074983E-4,1.0176546883344777
1677618679886882,-0.07501335164415979,4.272526131074983E-4,1.0175326161593041
1677618679902860,-0.07415884641794479,9.15541313801782E-4,1.0174105439841306
1677618679918839,-0.07293812466620908,5.493247882810692E-4,1.0170443274586098
1677618679934817,-0.07354848554207694,5.493247882810692E-4,1.0174105439841306
1677618679950795,-0.07513542381933336,0.0018921187151903496,1.0204623483634698
1677618679966774,-0.07415884641794479,6.713969634546402E-4,1.0166781109330891
1677618679982752,-0.07525749599450693,5.493247882810692E-4,1.0163118944075684
1677618679998730,-0.07464713511863907,1.831082627603564E-4,1.0191195544365605
1677618680014709,-0.07476920729381265,-7.934691386282111E-4,1.0199740596627755
1677618680030700,-0.07415884641794479,5.493247882810692E-4,1.017288471808957
1677618680046679,-0.0753795681696805,-1.831082627603564E-4,1.0170443274586098
1677618680062657,-0.0736705577172505,3.0518043793392735E-4,1.0180209048599984
1677618680078635,-0.07525749599450693,0.0015259021896696368,1.0182650492103456
1677618680094614,-0.07391470206759765,0.0018921187151903496,1.018142977035172
1677618680110592,-0.07391470206759765,0.0017700465400167786,1.0194857709620813
1677618680126570,-0.07476920729381265,4.272526131074983E-4,1.0166781109330891
1677618680142549,-0.07513542381933336,9.15541313801782E-4,1.0197299153124284
1677618680158527,-0.0736705577172505,0.0023804074158846333,1.0161898222323948
1677618680174505,-0.0736705577172505,0.0016479743648432077,1.0157015335317006
1677618680190484,-0.07464713511863907,5.493247882810692E-4,1.0169222552834363
1677618680206462,-0.0753795681696805,-3.0518043793392735E-4,1.0170443274586098
1677618680222440,-0.07525749599450693,0.0015259021896696368,1.0176546883344777
1677618680238419,-0.0733043411917298,0.0016479743648432077,1.018142977035172
1677618680254397,-0.07306019684138265,0.0017700465400167786,1.015579461356527
1677618680270375,-0.07611200122072193,0.0014038300144960658,1.0185091935606927
1677618680286354,-0.07415884641794479,9.15541313801782E-4,1.0170443274586098
1677618680302332,-0.0745250629434655,0.001159685664148924,1.0161898222323948
1677618680318310,-0.07550164034485407,9.15541313801782E-4,1.0178988326848248
1677618680334289,-0.0762340733958955,-6.103608758678547E-5,1.0171663996337834
1677618680350250,-0.07660028992141621,3.0518043793392735E-4,1.0171663996337834
1677618680366228,-0.07501335164415979,5.493247882810692E-4,1.0169222552834363
1677618680382207,-0.0736705577172505,6.713969634546402E-4,1.0182650492103456
1677618680398185,-0.0745250629434655,6.103608758678547E-5,1.0177767605096513
1677618680414163,-0.07281605249103551,7.934691386282111E-4,1.019851987487602
1677618680430142,-0.0733043411917298,0.0023804074158846333,1.0170443274586098
1677618680446120,-0.0724498359655148,0.001159685664148924,1.0182650492103456
1677618680462098,-0.07501335164415979,1.831082627603564E-4,1.0175326161593041
1677618680478077,-0.0753795681696805,-4.272526131074983E-4,1.0163118944075684
1677618680494055,-0.07574578469520121,0.0014038300144960658,1.0178988326848248
1677618680510033,-0.07489127946898622,0.001159685664148924,1.0174105439841306
1677618680526012,-0.07440299076829193,6.713969634546402E-4,1.0176546883344777
1677618680541990,-0.07611200122072193,1.831082627603564E-4,1.0183871213855191
1677618680557968,-0.07354848554207694,9.15541313801782E-4,1.0185091935606927
1677618680573947,-0.07428091859311836,0.0026245517662317752,1.0182650492103456
1677618680589925,-0.07550164034485407,4.272526131074983E-4,1.0175326161593041
1677618680605903,-0.07562371252002764,6.713969634546402E-4,1.0213168535896848
1677618680621882,-0.07403677424277122,6.103608758678547E-5,1.0187533379110398
1677618680637860,-0.07391470206759765,1.831082627603564E-4,1.0169222552834363
1677618680653838,-0.07513542381933336,0.0022583352407110624,1.0187533379110398
1677618680669830,-0.07574578469520121,0.0018921187151903496,1.0159456778820477
1677618680685808,-0.07489127946898622,0.0012817578393224949,1.0169222552834363
1677618680701787,-0.07354848554207694,5.493247882810692E-4,1.0176546883344777
1677618680717765,-0.07354848554207694,0.001037613488975353,1.0174105439841306
1677618680733743,-0.07501335164415979,0.001159685664148924,1.018142977035172
1677618680749722,-0.07574578469520121,0.0023804074158846333,1.016433966582742
1677618680765700,-0.07562371252002764,9.15541313801782E-4,1.0183871213855191
1677618680781678,-0.07476920729381265,6.713969634546402E-4,1.0176546883344777
1677618680797657,-0.0762340733958955,9.15541313801782E-4,1.0188754100862134
1677618680813635,-0.07525749599450693,0.0014038300144960658,1.0192416266117341
1677618680829613,-0.0745250629434655,0.001037613488975353,1.0154573891813534
1677618680845592,-0.07525749599450693,4.272526131074983E-4,1.0175326161593041
1677618680861570,-0.0736705577172505,1.831082627603564E-4,1.0192416266117341
1677618680877548,-0.07379262989242408,1.831082627603564E-4,1.0187533379110398
1677618680893527,-0.07391470206759765,-0.0016479743648432077,1.0182650492103456
1677618680909505,-0.0733043411917298,6.713969634546402E-4,1.0187533379110398
1677618680925483,-0.07415884641794479,6.103608758678547E-5,1.0185091935606927
1677618680941462,-0.07489127946898622,9.15541313801782E-4,1.0187533379110398
1677618680957440,-0.07489127946898622,4.272526131074983E-4,1.0175326161593041
1677618680973418,-0.07464713511863907,9.15541313801782E-4,1.0159456778820477
1677618680989380,-0.07440299076829193,0.0022583352407110624,1.0170443274586098
1677618681005358,-0.07489127946898622,9.15541313801782E-4,1.0187533379110398
1677618681021336,-0.07379262989242408,0.001159685664148924,1.0182650492103456
1677618681037315,-0.0753795681696805,0.0014038300144960658,1.0153353170061798
1677618681053293,-0.07476920729381265,6.103608758678547E-5,1.0182650492103456
1677618681069271,-0.07464713511863907,3.0518043793392735E-4,1.017288471808957
1677618681085250,-0.07306019684138265,-7.934691386282111E-4,1.0196078431372548
1677618681101228,-0.07476920729381265,0.0016479743648432077,1.0208285648889905
1677618681117206,-0.07440299076829193,6.103608758678547E-5,1.0186312657358663
1677618681133185,-0.0736705577172505,0.001037613488975353,1.0170443274586098
1677618681149163,-0.07318226901655622,-5.493247882810692E-4,1.0148470283054856
1677618681165141,-0.07403677424277122,4.272526131074983E-4,1.0191195544365605
1677618681181120,-0.07635614557106907,7.934691386282111E-4,1.0204623483634698
1677618681197098,-0.0745250629434655,6.103608758678547E-5,1.0176546883344777
1677618681213076,-0.0745250629434655,0.0022583352407110624,1.0139925230792706
1677618681229055,-0.07428091859311836,0.001159685664148924,1.0194857709620813
1677618681245033,-0.07464713511863907,-5.493247882810692E-4,1.0199740596627755
1677618681261011,-0.07513542381933336,0.001037613488975353,1.0178988326848248
1677618681276990,-0.07354848554207694,3.0518043793392735E-4,1.0171663996337834
1677618681292968,-0.07293812466620908,-5.493247882810692E-4,1.0188754100862134
1677618681308960,-0.0736705577172505,1.831082627603564E-4,1.018997482261387
1677618681324938,-0.07464713511863907,-7.934691386282111E-4,1.0171663996337834
1677618681340916,-0.07428091859311836,-6.713969634546402E-4,1.0177767605096513
1677618681356895,-0.07415884641794479,-4.272526131074983E-4,1.0196078431372548
1677618681372873,-0.0733043411917298,-5.493247882810692E-4,1.0203402761882963
1677618681388851,-0.07391470206759765,-1.831082627603564E-4,1.0196078431372548
1677618681404830,-0.07306019684138265,-6.103608758678547E-5,1.0170443274586098
1677618681420808,-0.07428091859311836,0.001159685664148924,1.0159456778820477
1677618681436786,-0.07415884641794479,-1.831082627603564E-4,1.0180209048599984
1677618681452765,-0.07440299076829193,0.0020141908903639205,1.0197299153124284
1677618681468743,-0.07318226901655622,0.0018921187151903496,1.0191195544365605
1677618681484721,-0.07489127946898622,9.15541313801782E-4,1.017288471808957
1677618681500700,-0.07415884641794479,6.713969634546402E-4,1.0199740596627755
1677618681516678,-0.07379262989242408,0.0017700465400167786,1.0182650492103456
1677618681532656,-0.07342641336690336,7.934691386282111E-4,1.0169222552834363
1677618681548635,-0.07611200122072193,-4.272526131074983E-4,1.0126497291523613
1677618681564613,-0.07476920729381265,5.493247882810692E-4,1.0170443274586098
1677618681580591,-0.07391470206759765,7.934691386282111E-4,1.0185091935606927
1677618681596570,-0.07391470206759765,0.0015259021896696368,1.018142977035172
1677618681612548,-0.07391470206759765,5.493247882810692E-4,1.0168001831082627
1677618681628509,-0.07550164034485407,6.103608758678547E-5,1.0159456778820477
1677618681644487,-0.07379262989242408,0.0016479743648432077,1.0171663996337834
1677618681660466,-0.07354848554207694,-4.272526131074983E-4,1.0170443274586098
1677618681676444,-0.07318226901655622,0.0018921187151903496,1.0160677500572213
1677618681692422,-0.07281605249103551,4.272526131074983E-4,1.0149691004806591
1677618681708401,-0.07354848554207694,4.272526131074983E-4,1.0177767605096513
1677618681724379,-0.07354848554207694,1.831082627603564E-4,1.016433966582742
1677618681740358,-0.07476920729381265,3.0518043793392735E-4,1.0186312657358663
1677618681756336,-0.0753795681696805,4.272526131074983E-4,1.0166781109330891
1677618681772314,-0.07415884641794479,-1.831082627603564E-4,1.0192416266117341
1677618681788293,-0.07391470206759765,0.001037613488975353,1.0187533379110398
1677618681804271,-0.07391470206759765,1.831082627603564E-4,1.0187533379110398
1677618681820249,-0.07586785687037478,6.713969634546402E-4,1.0188754100862134
1677618681836228,-0.07513542381933336,4.272526131074983E-4,1.0199740596627755
1677618681852206,-0.07525749599450693,0.0014038300144960658,1.0161898222323948
1677618681868184,-0.07379262989242408,5.493247882810692E-4,1.0169222552834363
1677618681884163,-0.07513542381933336,-3.0518043793392735E-4,1.0191195544365605
1677618681900141,-0.07574578469520121,-4.272526131074983E-4,1.018142977035172
1677618681916119,-0.0745250629434655,6.713969634546402E-4,1.0158236057068741
1677618681932098,-0.07342641336690336,3.0518043793392735E-4,1.015579461356527
1677618681948089,-0.07501335164415979,-4.272526131074983E-4,1.018142977035172
1677618681964068,-0.07513542381933336,1.831082627603564E-4,1.018142977035172
1677618681980046,-0.07562371252002764,7.934691386282111E-4,1.0182650492103456
1677618681996024,-0.07660028992141621,9.15541313801782E-4,1.0153353170061798
1677618682012003,-0.07513542381933336,0.0023804074158846333,1.0160677500572213
1677618682027981,-0.07391470206759765,9.15541313801782E-4,1.0188754100862134
1677618682043959,-0.07342641336690336,0.0015259021896696368,1.0200961318379491
1677618682059938,-0.07403677424277122,-1.831082627603564E-4,1.0185091935606927
1677618682075916,-0.07525749599450693,0.0015259021896696368,1.0174105439841306
1677618682091894,-0.07489127946898622,0.001037613488975353,1.018997482261387
1677618682107873,-0.07525749599450693,3.0518043793392735E-4,1.0180209048599984
1677618682123851,-0.0762340733958955,4.272526131074983E-4,1.0182650492103456
1677618682139829,-0.07501335164415979,-6.103608758678547E-5,1.019851987487602
1677618682155808,-0.07476920729381265,5.493247882810692E-4,1.0163118944075684
1677618682171786,-0.07562371252002764,0.0012817578393224949,1.0185091935606927
1677618682187764,-0.07476920729381265,6.713969634546402E-4,1.0149691004806591
1677618682203743,-0.0745250629434655,6.713969634546402E-4,1.0178988326848248
1677618682219721,-0.07428091859311836,0.0016479743648432077,1.018997482261387
1677618682235699,-0.07415884641794479,6.103608758678547E-5,1.0183871213855191
1677618682251678,-0.07476920729381265,0.0018921187151903496,1.0186312657358663
1677618682267669,-0.07415884641794479,9.15541313801782E-4,1.0154573891813534
1677618682283648,-0.07513542381933336,-3.0518043793392735E-4,1.0180209048599984
1677618682299626,-0.07354848554207694,6.103608758678547E-5,1.018997482261387
1677618682315604,-0.07501335164415979,4.272526131074983E-4,1.0174105439841306
1677618682331583,-0.07440299076829193,9.15541313801782E-4,1.0202182040131227
1677618682347561,-0.07513542381933336,0.0016479743648432077,1.0192416266117341
1677618682363539,-0.0762340733958955,0.0014038300144960658,1.0185091935606927
1677618682379518,-0.07354848554207694,0.0012817578393224949,1.0197299153124284
1677618682395496,-0.07476920729381265,6.103608758678547E-5,1.0169222552834363
1677618682411474,-0.07391470206759765,3.0518043793392735E-4,1.018997482261387
1677618682427453,-0.07415884641794479,-3.0518043793392735E-4,1.0180209048599984
1677618682443431,-0.0753795681696805,7.934691386282111E-4,1.0171663996337834
1677618682459409,-0.07440299076829193,-1.831082627603564E-4,1.0186312657358663
1677618682475388,-0.0736705577172505,-4.272526131074983E-4,1.0168001831082627
1677618682491366,-0.07501335164415979,-6.713969634546402E-4,1.0166781109330891
1677618682507344,-0.07562371252002764,4.272526131074983E-4,1.0166781109330891
1677618682523323,-0.07476920729381265,0.0017700465400167786,1.0185091935606927
1677618682539301,-0.0753795681696805,0.001159685664148924,1.0186312657358663
1677618682555279,-0.07428091859311836,-1.831082627603564E-4,1.0191195544365605
1677618682571258,-0.07440299076829193,0.0014038300144960658,1.0163118944075684
1677618682587249,-0.07513542381933336,0.0017700465400167786,1.0176546883344777
1677618682603228,-0.07513542381933336,0.0020141908903639205,1.0154573891813534
1677618682619206,-0.07513542381933336,0.001037613488975353,1.0204623483634698
1677618682635184,-0.07379262989242408,0.001159685664148924,1.0180209048599984
1677618682651163,-0.07391470206759765,9.15541313801782E-4,1.0176546883344777
1677618682667141,-0.07476920729381265,-6.713969634546402E-4,1.0158236057068741
1677618682683119,-0.07428091859311836,-4.272526131074983E-4,1.018997482261387
1677618682699098,-0.0745250629434655,9.15541313801782E-4,1.016433966582742
1677618682715076,-0.07318226901655622,-7.934691386282111E-4,1.0163118944075684
1677618682731054,-0.07513542381933336,-1.831082627603564E-4,1.0197299153124284
1677618682747033,-0.07574578469520121,4.272526131074983E-4,1.0194857709620813
1677618682763011,-0.07476920729381265,0.0012817578393224949,1.0166781109330891
1677618682778989,-0.07403677424277122,1.831082627603564E-4,1.0148470283054856
1677618682794968,-0.07379262989242408,6.103608758678547E-5,1.0183871213855191
1677618682810946,-0.0736705577172505,3.0518043793392735E-4,1.018997482261387
1677618682826924,-0.07415884641794479,9.15541313801782E-4,1.0163118944075684
1677618682842903,-0.07501335164415979,-6.103608758678547E-5,1.0154573891813534
1677618682858881,-0.07428091859311836,7.934691386282111E-4,1.0183871213855191
1677618682874859,-0.07318226901655622,4.272526131074983E-4,1.018997482261387
1677618682890838,-0.07440299076829193,9.15541313801782E-4,1.0153353170061798
1677618682906799,-0.07501335164415979,6.103608758678547E-5,1.0136263065537499
1677618682922777,-0.07489127946898622,0.0012817578393224949,1.0183871213855191
1677618682938756,-0.0745250629434655,4.272526131074983E-4,1.0186312657358663
1677618682954734,-0.07428091859311836,4.272526131074983E-4,1.015579461356527
1677618682970712,-0.07403677424277122,-3.0518043793392735E-4,1.0168001831082627
1677618682986691,-0.07476920729381265,-1.831082627603564E-4,1.018142977035172
1677618683002669,-0.07428091859311836,-1.831082627603564E-4,1.0178988326848248
1677618683018647,-0.07513542381933336,-3.0518043793392735E-4,1.0153353170061798
1677618683034626,-0.07403677424277122,0.001159685664148924,1.017288471808957
1677618683050604,-0.07513542381933336,5.493247882810692E-4,1.0171663996337834
1677618683066582,-0.07464713511863907,5.493247882810692E-4,1.0176546883344777
1677618683082561,-0.07379262989242408,7.934691386282111E-4,1.0209506370641641
1677618683098539,-0.07501335164415979,0.0014038300144960658,1.0176546883344777
1677618683114517,-0.07269398031586194,-3.0518043793392735E-4,1.0200961318379491
1677618683130496,-0.0745250629434655,3.0518043793392735E-4,1.0176546883344777
1677618683146474,-0.07342641336690336,5.493247882810692E-4,1.0166781109330891
1677618683162452,-0.07476920729381265,0.001159685664148924,1.0204623483634698
1677618683178431,-0.07574578469520121,5.493247882810692E-4,1.0203402761882963
1677618683194409,-0.07464713511863907,-4.272526131074983E-4,1.0192416266117341
1677618683210387,-0.07403677424277122,9.15541313801782E-4,1.0171663996337834
1677618683226379,-0.0762340733958955,4.272526131074983E-4,1.0175326161593041
1677618683242357,-0.0745250629434655,1.831082627603564E-4,1.0185091935606927
1677618683258336,-0.07562371252002764,6.713969634546402E-4,1.0191195544365605
1677618683274314,-0.07428091859311836,6.103608758678547E-5,1.0187533379110398
1677618683290292,-0.07501335164415979,-6.713969634546402E-4,1.0178988326848248
1677618683306271,-0.0736705577172505,4.272526131074983E-4,1.0174105439841306
1677618683322249,-0.07391470206759765,9.15541313801782E-4,1.0193636987869077
1677618683338227,-0.0745250629434655,7.934691386282111E-4,1.0202182040131227
1677618683354206,-0.07513542381933336,5.493247882810692E-4,1.018142977035172
1677618683370184,-0.07525749599450693,0.0015259021896696368,1.0158236057068741
1677618683386162,-0.07464713511863907,9.15541313801782E-4,1.0196078431372548
1677618683402141,-0.07489127946898622,-3.0518043793392735E-4,1.0202182040131227
1677618683418119,-0.07342641336690336,-1.831082627603564E-4,1.0187533379110398
1677618683434097,-0.07415884641794479,1.831082627603564E-4,1.017288471808957
1677618683450076,-0.07489127946898622,0.0014038300144960658,1.0183871213855191
1677618683466054,-0.07415884641794479,7.934691386282111E-4,1.0174105439841306
1677618683482032,-0.07428091859311836,0.0014038300144960658,1.0153353170061798
1677618683498011,-0.0736705577172505,0.001159685664148924,1.0144808117799649
1677618683513989,-0.07489127946898622,0.0016479743648432077,1.0160677500572213
1677618683529967,-0.0745250629434655,0.0022583352407110624,1.0168001831082627
1677618683545929,-0.07525749599450693,4.272526131074983E-4,1.0166781109330891
1677618683561907,-0.07379262989242408,0.0015259021896696368,1.0193636987869077
1677618683577885,-0.0745250629434655,-6.103608758678547E-5,1.018142977035172
1677618683593864,-0.0745250629434655,7.934691386282111E-4,1.0183871213855191
1677618683609842,-0.07464713511863907,-6.103608758678547E-5,1.0176546883344777
1677618683625820,-0.07403677424277122,9.15541313801782E-4,1.0154573891813534
1677618683641799,-0.07403677424277122,1.831082627603564E-4,1.016433966582742
1677618683657777,-0.07391470206759765,0.0014038300144960658,1.0183871213855191
1677618683673755,-0.0753795681696805,0.0012817578393224949,1.016433966582742
1677618683689734,-0.07318226901655622,0.0015259021896696368,1.0186312657358663
1677618683705712,-0.0745250629434655,0.001159685664148924,1.0194857709620813
1677618683721690,-0.07281605249103551,1.831082627603564E-4,1.0161898222323948
1677618683737669,-0.07391470206759765,0.001037613488975353,1.0169222552834363
1677618683753647,-0.07513542381933336,6.103608758678547E-5,1.0186312657358663
1677618683769625,-0.07574578469520121,-1.831082627603564E-4,1.0200961318379491
1677618683785604,-0.07391470206759765,9.15541313801782E-4,1.0171663996337834
1677618683801582,-0.07318226901655622,6.713969634546402E-4,1.0175326161593041
1677618683817560,-0.07513542381933336,0.0017700465400167786,1.018997482261387
1677618683833539,-0.07513542381933336,4.272526131074983E-4,1.0186312657358663
1677618683849517,-0.07342641336690336,0.0015259021896696368,1.0175326161593041
1677618683865509,-0.0733043411917298,0.0018921187151903496,1.0170443274586098
1677618683881487,-0.07415884641794479,4.272526131074983E-4,1.0187533379110398
1677618683897465,-0.0753795681696805,-5.493247882810692E-4,1.0192416266117341
1677618683913444,-0.07550164034485407,0.0012817578393224949,1.0175326161593041
1677618683929422,-0.07428091859311836,-3.0518043793392735E-4,1.0149691004806591
1677618683945400,-0.07403677424277122,0.0018921187151903496,1.017288471808957
1677618683961379,-0.07440299076829193,0.0012817578393224949,1.0199740596627755
1677618683977357,-0.07440299076829193,1.831082627603564E-4,1.0178988326848248
1677618683993335,-0.07476920729381265,-6.103608758678547E-5,1.0169222552834363
1677618684009314,-0.07428091859311836,9.15541313801782E-4,1.0163118944075684
1677618684025292,-0.07476920729381265,-3.0518043793392735E-4,1.0165560387579156
1677618684041270,-0.07562371252002764,5.493247882810692E-4,1.0202182040131227
1677618684057249,-0.07440299076829193,9.15541313801782E-4,1.0180209048599984
1677618684073227,-0.07476920729381265,0.0012817578393224949,1.018997482261387
1677618684089205,-0.07489127946898622,6.713969634546402E-4,1.0196078431372548
1677618684105184,-0.07513542381933336,-3.0518043793392735E-4,1.0170443274586098
1677618684121162,-0.07464713511863907,3.0518043793392735E-4,1.0174105439841306
1677618684137140,-0.07232776379034123,9.15541313801782E-4,1.0169222552834363
1677618684153119,-0.0745250629434655,-0.0012817578393224949,1.016433966582742
1677618684169097,-0.07428091859311836,-4.272526131074983E-4,1.0166781109330891
1677618684185058,-0.07354848554207694,0.0014038300144960658,1.0144808117799649
1677618684201037,-0.07598992904554835,6.713969634546402E-4,1.014724956130312
1677618684217015,-0.07476920729381265,-7.934691386282111E-4,1.0193636987869077
1677618684232993,-0.07476920729381265,7.934691386282111E-4,1.0175326161593041
1677618684248972,-0.0745250629434655,-6.103608758678547E-5,1.017288471808957
1677618684264950,-0.07379262989242408,1.831082627603564E-4,1.013870450904097
1677618684280928,-0.07501335164415979,-0.0015259021896696368,1.0197299153124284
1677618684296907,-0.0736705577172505,-7.934691386282111E-4,1.0193636987869077
1677618684312885,-0.07489127946898622,3.0518043793392735E-4,1.0161898222323948
1677618684328863,-0.07440299076829193,6.103608758678547E-5,1.0163118944075684
1677618684344842,-0.07293812466620908,0.001159685664148924,1.0209506370641641
1677618684360820,-0.07428091859311836,0.0014038300144960658,1.0186312657358663
1677618684376798,-0.07513542381933336,7.934691386282111E-4,1.0185091935606927
1677618684392777,-0.07598992904554835,-6.103608758678547E-5,1.0177767605096513
1677618684408755,-0.07513542381933336,7.934691386282111E-4,1.0183871213855191
1677618684424733,-0.07428091859311836,6.713969634546402E-4,1.021805142290379
1677618684440712,-0.07513542381933336,5.493247882810692E-4,1.0171663996337834
1677618684456690,-0.07513542381933336,3.0518043793392735E-4,1.0175326161593041
1677618684472668,-0.0762340733958955,4.272526131074983E-4,1.0146028839551384
1677618684488647,-0.0753795681696805,0.0016479743648432077,1.0178988326848248
1677618684504638,-0.07562371252002764,3.0518043793392735E-4,1.0180209048599984
1677618684520617,-0.07586785687037478,9.15541313801782E-4,1.0174105439841306
1677618684536595,-0.0753795681696805,6.103608758678547E-5,1.0191195544365605
1677618684552573,-0.07428091859311836,-1.831082627603564E-4,1.0186312657358663
1677618684568552,-0.07489127946898622,-6.713969634546402E-4,1.0169222552834363
1677618684584530,-0.07476920729381265,-4.272526131074983E-4,1.0150911726558327
1677618684600508,-0.07379262989242408,6.713969634546402E-4,1.0188754100862134
1677618684616487,-0.07428091859311836,-1.831082627603564E-4,1.0186312657358663
1677618684632465,-0.07415884641794479,9.15541313801782E-4,1.0193636987869077
1677618684648443,-0.07586785687037478,0.0017700465400167786,1.0186312657358663
1677618684664422,-0.07415884641794479,-1.831082627603564E-4,1.016433966582742
1677618684680400,-0.07598992904554835,6.103608758678547E-5,1.017288471808957
1677618684696378,-0.07403677424277122,-9.15541313801782E-4,1.0174105439841306
1677618684712357,-0.07440299076829193,-0.0014038300144960658,1.0175326161593041
1677618684728335,-0.0745250629434655,4.272526131074983E-4,1.0180209048599984
1677618684744313,-0.07586785687037478,3.0518043793392735E-4,1.0187533379110398
1677618684760292,-0.07403677424277122,0.0017700465400167786,1.0183871213855191
1677618684776270,-0.07342641336690336,0.0015259021896696368,1.0168001831082627
1677618684792248,-0.07476920729381265,7.934691386282111E-4,1.0176546883344777
1677618684808227,-0.07476920729381265,0.0016479743648432077,1.0202182040131227
1677618684824188,-0.07501335164415979,9.15541313801782E-4,1.018997482261387
1677618684840166,-0.07440299076829193,6.103608758678547E-5,1.0178988326848248
1677618684856145,-0.07464713511863907,6.713969634546402E-4,1.0197299153124284
1677618684872123,-0.07586785687037478,0.0015259021896696368,1.019851987487602
1677618684888101,-0.07403677424277122,6.713969634546402E-4,1.0175326161593041
1677618684904080,-0.07513542381933336,0.001037613488975353,1.0149691004806591
1677618684920058,-0.07476920729381265,6.103608758678547E-5,1.0166781109330891
1677618684936036,-0.07489127946898622,7.934691386282111E-4,1.0199740596627755
1677618684952015,-0.07501335164415979,6.103608758678547E-5,1.0187533379110398
1677618684967993,-0.07489127946898622,9.15541313801782E-4,1.021560997940032
1677618684983971,-0.07440299076829193,6.103608758678547E-5,1.0180209048599984
1677618684999950,-0.07440299076829193,6.103608758678547E-5,1.0197299153124284
1677618685015928,-0.07611200122072193,7.934691386282111E-4,1.0180209048599984
1677618685031906,-0.07440299076829193,6.713969634546402E-4,1.0170443274586098
1677618685047885,-0.07269398031586194,4.272526131074983E-4,1.0194857709620813
1677618685063863,-0.07501335164415979,6.103608758678547E-5,1.0211947814145113
1677618685079841,-0.07525749599450693,0.0012817578393224949,1.018997482261387
1677618685095820,-0.07489127946898622,0.0014038300144960658,1.0187533379110398
1677618685111798,-0.07476920729381265,-3.0518043793392735E-4,1.0186312657358663
1677618685127776,-0.07342641336690336,-3.0518043793392735E-4,1.0178988326848248
1677618685143768,-0.07464713511863907,1.831082627603564E-4,1.018142977035172
1677618685159746,-0.07513542381933336,0.0014038300144960658,1.0153353170061798
1677618685175725,-0.07489127946898622,0.0012817578393224949,1.0148470283054856
1677618685191703,-0.0753795681696805,4.272526131074983E-4,1.0193636987869077
1677618685207681,-0.07428091859311836,6.713969634546402E-4,1.0186312657358663
1677618685223660,-0.07611200122072193,0.001037613488975353,1.0171663996337834
1677618685239638,-0.07440299076829193,0.0015259021896696368,1.0185091935606927
1677618685255616,-0.07318226901655622,4.272526131074983E-4,1.0204623483634698
1677618685271595,-0.07342641336690336,0.001159685664148924,1.0194857709620813
1677618685287573,-0.0736705577172505,7.934691386282111E-4,1.0176546883344777
1677618685303551,-0.07403677424277122,9.15541313801782E-4,1.0143587396047913
1677618685319530,-0.07476920729381265,1.831082627603564E-4,1.0200961318379491
1677618685335508,-0.07428091859311836,0.001037613488975353,1.0202182040131227
1677618685351486,-0.07440299076829193,7.934691386282111E-4,1.0182650492103456
1677618685367465,-0.07403677424277122,5.493247882810692E-4,1.0214389257648584
1677618685383443,-0.07501335164415979,4.272526131074983E-4,1.0191195544365605
1677618685399421,-0.07598992904554835,6.713969634546402E-4,1.0182650492103456
1677618685415400,-0.07403677424277122,0.0016479743648432077,1.0153353170061798
1677618685431378,-0.07501335164415979,6.103608758678547E-5,1.0170443274586098
1677618685447356,-0.0745250629434655,7.934691386282111E-4,1.0209506370641641
1677618685463317,-0.07513542381933336,0.0021362630655374915,1.0183871213855191
1677618685479296,-0.07513542381933336,6.103608758678547E-5,1.0175326161593041
1677618685495274,-0.0736705577172505,-7.934691386282111E-4,1.0205844205386434
1677618685511253,-0.07525749599450693,0.0017700465400167786,1.0197299153124284
1677618685527231,-0.07525749599450693,7.934691386282111E-4,1.0185091935606927
1677618685543209,-0.07489127946898622,0.0020141908903639205,1.0185091935606927
1677618685559188,-0.07440299076829193,4.272526131074983E-4,1.0185091935606927
1677618685575166,-0.07464713511863907,-6.103608758678547E-5,1.018997482261387
1677618685591144,-0.07489127946898622,3.0518043793392735E-4,1.0170443274586098
1677618685607123,-0.07415884641794479,-6.103608758678547E-5,1.016433966582742
1677618685623101,-0.07598992904554835,9.15541313801782E-4,1.017288471808957
1677618685639079,-0.07550164034485407,1.831082627603564E-4,1.017288471808957
1677618685655058,-0.07403677424277122,3.0518043793392735E-4,1.0168001831082627
1677618685671036,-0.07354848554207694,0.001037613488975353,1.0180209048599984
1677618685687014,-0.0753795681696805,9.15541313801782E-4,1.0154573891813534
