Timestamp (microseconds),Gyro X (°/s),Gyro Y (°/s),Gyro Z (°/s)
1677618661175323,1.5411612115663047,0.9002822919051141,0.44251163500416624
1677618661191319,1.6021972991530902,0.8697642481116645,0.41199359121083035
1677618661207314,1.5716792553597543,0.8697642481116645,0.41199359121083035
1677618661223310,1.5106431677729688,0.9002822919051141,0.41199359121083035
1677618661239305,1.5716792553597543,0.9002822919051141,0.41199359121083035
1677618661255301,1.5716792553597543,0.8697642481116645,0.44251163500416624
1677618661271296,1.5716792553597543,0.8392462043183286,0.44251163500416624
1677618661287292,1.5411612115663047,0.8697642481116645,0.38147554741738077
1677618661303287,1.6021972991530902,0.8697642481116645,0.38147554741738077
1677618661319283,1.5716792553597543,0.93080033569845,0.44251163500416624
1677618661335278,1.5411612115663047,0.93080033569845,0.4730296787976158
1677618661351274,1.5411612115663047,0.9002822919051141,0.38147554741738077
1677618661367269,1.5716792553597543,0.8697642481116645,0.41199359121083035
1677618661383265,1.5716792553597543,0.8392462043183286,0.38147554741738077
1677618661399260,1.5411612115663047,0.8087281605248791,0.38147554741738077
1677618661415256,1.5716792553597543,0.8392462043183286,0.38147554741738077
1677618661431251,1.5716792553597543,0.9002822919051141,0.38147554741738077
1677618661447247,1.5411612115663047,0.8697642481116645,0.38147554741738077
1677618661463242,1.5411612115663047,0.8697642481116645,0.4730296787976158
1677618661479238,1.5716792553597543,0.8392462043183286,0.44251163500416624
1677618661495239,1.5716792553597543,0.8697642481116645,0.44251163500416624
1677618661511234,1.5411612115663047,0.8697642481116645,0.44251163500416624
1677618661527230,1.5106431677729688,0.8392462043183286,0.44251163500416624
1677618661543225,1.5411612115663047,0.9002822919051141,0.38147554741738077
1677618661559221,1.5716792553597543,0.93080033569845,0.41199359121083035
1677618661575216,1.4801251239795192,0.8392462043183286,0.41199359121083035
1677618661591212,1.5716792553597543,0.8697642481116645,0.38147554741738077
1677618661607207,1.5716792553597543,0.8392462043183286,0.38147554741738077
1677618661623203,1.5411612115663047,0.9002822919051141,0.41199359121083035
1677618661639198,1.5411612115663047,0.8392462043183286,0.3509575036240449
1677618661655194,1.5106431677729688,0.8392462043183286,0.41199359121083035
1677618661671189,1.5411612115663047,0.8392462043183286,0.38147554741738077
1677618661687185,1.5716792553597543,0.8392462043183286,0.41199359121083035
1677618661703180,1.5716792553597543,0.8697642481116645,0.38147554741738077
1677618661719176,1.5411612115663047,0.9002822919051141,0.3204394598305953
1677618661735171,1.5411612115663047,0.9002822919051141,0.38147554741738077
1677618661751167,1.5411612115663047,0.9002822919051141,0.44251163500416624
1677618661767162,1.5411612115663047,0.9002822919051141,0.4730296787976158
1677618661783158,1.5411612115663047,0.8697642481116645,0.44251163500416624
1677618661799153,1.5716792553597543,0.8697642481116645,0.41199359121083035
1677618661815094,1.5716792553597543,0.8697642481116645,0.3509575036240449
1677618661831089,1.5716792553597543,0.8697642481116645,0.38147554741738077
1677618661847085,1.5716792553597543,0.8697642481116645,0.38147554741738077
1677618661863080,1.5716792553597543,0.9002822919051141,0.44251163500416624
1677618661879076,1.5106431677729688,0.9002822919051141,0.38147554741738077
1677618661895071,1.5716792553597543,0.8697642481116645,0.38147554741738077
1677618661911067,1.5411612115663047,0.8392462043183286,0.41199359121083035
1677618661927062,1.5411612115663047,0.9002822919051141,0.3509575036240449
1677618661943058,1.5106431677729688,0.9002822919051141,0.3509575036240449
1677618661959053,1.4801251239795192,0.9002822919051141,0.41199359121083035
1677618661975049,1.5411612115663047,0.8697642481116645,0.4730296787976158
1677618661991044,1.5411612115663047,0.8392462043183286,0.41199359121083035
1677618662007040,1.5411612115663047,0.8392462043183286,0.41199359121083035
1677618662023035,1.5411612115663047,0.9002822919051141,0.41199359121083035
1677618662039031,1.5106431677729688,0.9002822919051141,0.38147554741738077
1677618662055026,1.5106431677729688,0.9002822919051141,0.41199359121083035
1677618662071022,1.4496070801861833,0.8697642481116645,0.41199359121083035
1677618662087017,1.5411612115663047,0.9613183794918996,0.38147554741738077
1677618662103013,1.5716792553597543,0.9002822919051141,0.41199359121083035
1677618662119008,1.5411612115663047,0.8392462043183286,0.38147554741738077
1677618662134704,1.4801251239795192,0.8392462043183286,0.44251163500416624
1677618662150698,1.5716792553597543,0.8392462043183286,0.41199359121083035
1677618662166692,1.4801251239795192,0.8392462043183286,0.41199359121083035
1677618662182686,1.5411612115663047,0.8392462043183286,0.41199359121083035
1677618662198681,1.4801251239795192,0.8697642481116645,0.41199359121083035
1677618662214675,1.5716792553597543,0.8697642481116645,0.3509575036240449
1677618662230669,1.5106431677729688,0.9002822919051141,0.38147554741738077
1677618662246663,1.4801251239795192,0.8697642481116645,0.38147554741738077
1677618662262657,1.5106431677729688,0.9002822919051141,0.38147554741738077
1677618662278651,1.5411612115663047,0.93080033569845,0.38147554741738077
1677618662294645,1.5716792553597543,0.8697642481116645,0.38147554741738077
1677618662310639,1.5411612115663047,0.8392462043183286,0.3509575036240449
1677618662326633,1.5716792553597543,0.8697642481116645,0.38147554741738077
1677618662342627,1.5106431677729688,0.93080033569845,0.38147554741738077
1677618662358621,1.5716792553597543,0.93080033569845,0.44251163500416624
1677618662374615,1.5106431677729688,0.9002822919051141,0.41199359121083035
1677618662390609,1.4801251239795192,0.8697642481116645,0.38147554741738077
1677618662406603,1.5411612115663047,0.93080033569845,0.41199359121083035
1677618662422598,1.5411612115663047,0.8697642481116645,0.38147554741738077
1677618662438592,1.5716792553597543,0.8392462043183286,0.44251163500416624
1677618662454284,1.5411612115663047,0.93080033569845,0.38147554741738077
1677618662470277,1.5716792553597543,0.9002822919051141,0.38147554741738077
1677618662486270,1.5411612115663047,0.8697642481116645,0.41199359121083035
1677618662502262,1.5716792553597543,0.8392462043183286,0.3509575036240449
1677618662518255,1.5716792553597543,0.9002822919051141,0.41199359121083035
1677618662534248,1.5106431677729688,0.9002822919051141,0.38147554741738077
1677618662550240,1.5411612115663047,0.93080033569845,0.38147554741738077
1677618662566233,1.5411612115663047,0.9002822919051141,0.38147554741738077
1677618662582225,1.6021972991530902,0.9002822919051141,0.41199359121083035
1677618662598218,1.5716792553597543,0.9002822919051141,0.41199359121083035
1677618662614211,1.5411612115663047,0.9002822919051141,0.41199359121083035
1677618662630203,1.5106431677729688,0.8087281605248791,0.38147554741738077
1677618662646196,1.5716792553597543,0.8697642481116645,0.44251163500416624
1677618662662189,1.5716792553597543,0.9002822919051141,0.41199359121083035
1677618662678181,1.6021972991530902,0.9002822919051141,0.41199359121083035
1677618662694174,1.5411612115663047,0.9002822919051141,0.38147554741738077
1677618662710167,1.5411612115663047,0.93080033569845,0.41199359121083035
1677618662726159,1.5106431677729688,0.8697642481116645,0.44251163500416624
1677618662742152,1.4801251239795192,0.8697642481116645,0.41199359121083035
1677618662758144,1.5106431677729688,0.9002822919051141,0.41199359121083035
1677618662773895,1.4801251239795192,0.9002822919051141,0.38147554741738077
1677618662789887,1.5106431677729688,0.9002822919051141,0.3204394598305953
1677618662805878,1.4801251239795192,0.8697642481116645,0.41199359121083035
1677618662821870,1.5716792553597543,0.8697642481116645,0.44251163500416624
1677618662837862,1.4801251239795192,0.9002822919051141,0.44251163500416624
1677618662853853,1.5106431677729688,0.9002822919051141,0.41199359121083035
1677618662869845,1.5411612115663047,0.8697642481116645,0.38147554741738077
1677618662885837,1.5411612115663047,0.8392462043183286,0.41199359121083035
1677618662901828,1.5411612115663047,0.9002822919051141,0.41199359121083035
1677618662917820,1.5716792553597543,0.9002822919051141,0.4730296787976158
1677618662933812,1.5106431677729688,0.8392462043183286,0.44251163500416624
1677618662949803,1.5411612115663047,0.8697642481116645,0.4730296787976158
1677618662965795,1.5411612115663047,0.8392462043183286,0.38147554741738077
1677618662981787,1.5716792553597543,0.8697642481116645,0.38147554741738077
1677618662997779,1.5716792553597543,0.9002822919051141,0.38147554741738077
1677618663013770,1.6021972991530902,0.93080033569845,0.41199359121083035
1677618663029762,1.5716792553597543,0.9002822919051141,0.41199359121083035
1677618663045754,1.5106431677729688,0.9002822919051141,0.38147554741738077
1677618663061745,1.5411612115663047,0.9002822919051141,0.38147554741738077
1677618663077737,1.5106431677729688,0.9002822919051141,0.3509575036240449
1677618663093444,1.5106431677729688,0.8697642481116645,0.38147554741738077
1677618663109435,1.5411612115663047,0.93080033569845,0.41199359121083035
1677618663125426,1.4801251239795192,0.93080033569845,0.44251163500416624
1677618663141417,1.5411612115663047,0.8697642481116645,0.41199359121083035
1677618663157407,1.5411612115663047,0.9002822919051141,0.38147554741738077
1677618663173398,1.5106431677729688,0.9002822919051141,0.41199359121083035
1677618663189389,1.5106431677729688,0.93080033569845,0.38147554741738077
1677618663205380,1.5411612115663047,0.9002822919051141,0.38147554741738077
1677618663221370,1.5411612115663047,0.93080033569845,0.44251163500416624
1677618663237361,1.5411612115663047,0.93080033569845,0.44251163500416624
1677618663253352,1.5716792553597543,0.9002822919051141,0.38147554741738077
1677618663269343,1.5411612115663047,0.9002822919051141,0.38147554741738077
1677618663285333,1.5716792553597543,0.8697642481116645,0.3509575036240449
1677618663301324,1.5411612115663047,0.8697642481116645,0.38147554741738077
1677618663317315,1.5716792553597543,0.9002822919051141,0.38147554741738077
1677618663333305,1.5106431677729688,0.8392462043183286,0.44251163500416624
1677618663349296,1.4801251239795192,0.93080033569845,0.44251163500416624
1677618663365287,1.5411612115663047,0.8697642481116645,0.4730296787976158
1677618663381278,1.5106431677729688,0.8697642481116645,0.38147554741738077
1677618663397268,1.5106431677729688,0.8697642481116645,0.38147554741738077
1677618663413025,1.5411612115663047,0.8697642481116645,0.44251163500416624
1677618663429014,1.6021972991530902,0.8697642481116645,0.38147554741738077
1677618663445004,1.5411612115663047,0.8697642481116645,0.3509575036240449
1677618663460994,1.5716792553597543,0.9002822919051141,0.38147554741738077
1677618663476984,1.5411612115663047,0.8697642481116645,0.41199359121083035
1677618663492973,1.5106431677729688,0.8697642481116645,0.41199359121083035
1677618663508963,1.5106431677729688,0.9002822919051141,0.41199359121083035
1677618663524953,1.6021972991530902,0.8392462043183286,0.41199359121083035
1677618663540943,1.5716792553597543,0.9002822919051141,0.41199359121083035
1677618663556933,1.5716792553597543,0.8697642481116645,0.41199359121083035
1677618663572922,1.4801251239795192,0.8697642481116645,0.38147554741738077
1677618663588912,1.5411612115663047,0.8392462043183286,0.41199359121083035
1677618663604902,1.5716792553597543,0.8697642481116645,0.41199359121083035
1677618663620892,1.4801251239795192,0.9002822919051141,0.44251163500416624
1677618663636881,1.5106431677729688,0.9002822919051141,0.44251163500416624
1677618663652871,1.5411612115663047,0.8697642481116645,0.44251163500416624
1677618663668861,1.5716792553597543,0.8392462043183286,0.44251163500416624
1677618663684851,1.5411612115663047,0.8697642481116645,0.41199359121083035
1677618663700841,1.5716792553597543,0.8697642481116645,0.41199359121083035
1677618663716830,1.5106431677729688,0.8392462043183286,0.41199359121083035
1677618663732605,1.5411612115663047,0.8697642481116645,0.44251163500416624
1677618663748593,1.5106431677729688,0.9002822919051141,0.38147554741738077
1677618663764582,1.4801251239795192,0.8697642481116645,0.38147554741738077
1677618663780571,1.4496070801861833,0.93080033569845,0.38147554741738077
1677618663796560,1.5411612115663047,0.9002822919051141,0.38147554741738077
1677618663812549,1.5411612115663047,0.93080033569845,0.38147554741738077
1677618663828538,1.5411612115663047,0.9002822919051141,0.38147554741738077
1677618663844526,1.5411612115663047,0.8697642481116645,0.3509575036240449
1677618663860515,1.5411612115663047,0.93080033569845,0.38147554741738077
1677618663876504,1.5106431677729688,0.8392462043183286,0.41199359121083035
1677618663892493,1.4801251239795192,0.9002822919051141,0.44251163500416624
1677618663908482,1.6021972991530902,0.8392462043183286,0.41199359121083035
1677618663924471,1.5716792553597543,0.8392462043183286,0.38147554741738077
1677618663940459,1.5411612115663047,0.9002822919051141,0.41199359121083035
1677618663956448,1.5411612115663047,0.8697642481116645,0.38147554741738077
1677618663972437,1.5716792553597543,0.8697642481116645,0.41199359121083035
1677618663988426,1.5411612115663047,0.8697642481116645,0.38147554741738077
1677618664004415,1.5411612115663047,0.93080033569845,0.44251163500416624
1677618664020403,1.5106431677729688,0.9002822919051141,0.41199359121083035
1677618664036392,1.6021972991530902,0.93080033569845,0.38147554741738077
1677618664052185,1.5716792553597543,0.93080033569845,0.41199359121083035
1677618664068173,1.5106431677729688,0.9002822919051141,0.44251163500416624
1677618664084160,1.5106431677729688,0.9002822919051141,0.38147554741738077
1677618664100148,1.5716792553597543,0.8697642481116645,0.41199359121083035
1677618664116136,1.5716792553597543,0.8697642481116645,0.44251163500416624
1677618664132124,1.5716792553597543,0.8392462043183286,0.41199359121083035
1677618664148112,1.5106431677729688,0.9002822919051141,0.41199359121083035
1677618664164100,1.5411612115663047,0.9002822919051141,0.41199359121083035
1677618664180088,1.5716792553597543,0.8697642481116645,0.44251163500416624
1677618664196076,1.5411612115663047,0.93080033569845,0.41199359121083035
1677618664212063,1.5411612115663047,0.9002822919051141,0.38147554741738077
1677618664228051,1.5106431677729688,0.8392462043183286,0.38147554741738077
1677618664244039,1.5411612115663047,0.8087281605248791,0.41199359121083035
1677618664260027,1.6021972991530902,0.8697642481116645,0.41199359121083035
1677618664276015,1.6021972991530902,0.93080033569845,0.38147554741738077
1677618664292003,1.6021972991530902,0.93080033569845,0.38147554741738077
1677618664307991,1.5716792553597543,0.9002822919051141,0.44251163500416624
1677618664323979,1.5106431677729688,0.8392462043183286,0.3509575036240449
1677618664339966,1.5411612115663047,0.8392462043183286,0.38147554741738077
1677618664355954,1.5716792553597543,0.8392462043183286,0.3509575036240449
1677618664371795,1.5411612115663047,0.9002822919051141,0.41199359121083035
1677618664387783,1.5106431677729688,0.9002822919051141,0.38147554741738077
1677618664403770,1.5411612115663047,0.9002822919051141,0.44251163500416624
1677618664419757,1.5716792553597543,0.93080033569845,0.44251163500416624
1677618664435745,1.5411612115663047,0.8392462043183286,0.41199359121083035
1677618664451732,1.5106431677729688,0.8697642481116645,0.3509575036240449
1677618664467720,1.5106431677729688,0.8697642481116645,0.41199359121083035
1677618664483707,1.5411612115663047,0.8392462043183286,0.3509575036240449
1677618664499694,1.5716792553597543,0.8392462043183286,0.3509575036240449
1677618664515682,1.5716792553597543,0.8697642481116645,0.3204394598305953
1677618664531669,1.5716792553597543,0.9613183794918996,0.3509575036240449
1677618664547657,1.5716792553597543,0.8697642481116645,0.38147554741738077
1677618664563644,1.6021972991530902,0.8392462043183286,0.41199359121083035
1677618664579631,1.6021972991530902,0.93080033569845,0.38147554741738077
1677618664595619,1.5411612115663047,0.8697642481116645,0.38147554741738077
1677618664611606,1.5411612115663047,0.9002822919051141,0.38147554741738077
1677618664627594,1.5106431677729688,0.93080033569845,0.38147554741738077
1677618664643581,1.5106431677729688,0.93080033569845,0.41199359121083035
1677618664659568,1.4496070801861833,0.8392462043183286,0.41199359121083035
1677618664675556,1.5411612115663047,0.8697642481116645,0.38147554741738077
1677618664691375,1.5716792553597543,0.9002822919051141,0.41199359121083035
1677618664707362,1.5411612115663047,0.8392462043183286,0.41199359121083035
1677618664723349,1.6021972991530902,0.8087281605248791,0.44251163500416624
1677618664739336,1.5716792553597543,0.8697642481116645,0.44251163500416624
1677618664755323,1.5716792553597543,0.9002822919051141,0.44251163500416624
1677618664771310,1.5106431677729688,0.8697642481116645,0.4730296787976158
1677618664787297,1.5716792553597543,0.8697642481116645,0.44251163500416624
1677618664803284,1.5716792553597543,0.8697642481116645,0.38147554741738077
1677618664819271,1.5106431677729688,0.8392462043183286,0.3509575036240449
1677618664835258,1.5716792553597543,0.8697642481116645,0.41199359121083035
1677618664851245,1.5106431677729688,0.93080033569845,0.38147554741738077
1677618664867231,1.5106431677729688,0.93080033569845,0.41199359121083035
1677618664883218,1.5411612115663047,0.8697642481116645,0.41199359121083035
1677618664899205,1.5411612115663047,0.8392462043183286,0.41199359121083035
1677618664915192,1.5716792553597543,0.9002822919051141,0.41199359121083035
1677618664931179,1.6021972991530902,0.93080033569845,0.41199359121083035
1677618664947166,1.6021972991530902,0.8697642481116645,0.44251163500416624
1677618664963153,1.5411612115663047,0.8697642481116645,0.41199359121083035
1677618664979140,1.5411612115663047,0.9613183794918996,0.41199359121083035
1677618664995127,1.5411612115663047,0.9613183794918996,0.44251163500416624
1677618665010955,1.5716792553597543,0.93080033569845,0.38147554741738077
1677618665026941,1.5716792553597543,0.9002822919051141,0.38147554741738077
1677618665042927,1.5716792553597543,0.9002822919051141,0.41199359121083035
1677618665058913,1.5716792553597543,0.9002822919051141,0.38147554741738077
1677618665074899,1.6021972991530902,0.9613183794918996,0.3204394598305953
1677618665090885,1.6021972991530902,0.9002822919051141,0.38147554741738077
1677618665106871,1.5716792553597543,0.8697642481116645,0.3509575036240449
1677618665122857,1.5716792553597543,0.9002822919051141,0.38147554741738077
1677618665138843,1.6021972991530902,0.9002822919051141,0.3204394598305953
1677618665154829,1.5716792553597543,0.9002822919051141,0.41199359121083035
1677618665170815,1.5716792553597543,0.9002822919051141,0.44251163500416624
1677618665186801,1.5106431677729688,0.9002822919051141,0.44251163500416624
1677618665202787,1.5106431677729688,0.9002822919051141,0.41199359121083035
1677618665218773,1.5411612115663047,0.8392462043183286,0.44251163500416624
1677618665234759,1.6021972991530902,0.9002822919051141,0.44251163500416624
1677618665250745,1.5716792553597543,0.93080033569845,0.44251163500416624
1677618665266731,1.6327153429465397,0.9002822919051141,0.41199359121083035
1677618665282717,1.5716792553597543,0.7782101167315432,0.44251163500416624
1677618665298703,1.5411612115663047,0.8697642481116645,0.44251163500416624
1677618665314689,1.5411612115663047,0.9002822919051141,0.4730296787976158
1677618665330536,1.5411612115663047,0.8697642481116645,0.41199359121083035
1677618665346521,1.5106431677729688,0.8697642481116645,0.44251163500416624
1677618665362506,1.5716792553597543,0.9002822919051141,0.38147554741738077
1677618665378492,1.5411612115663047,0.93080033569845,0.38147554741738077
1677618665394477,1.4801251239795192,0.93080033569845,0.44251163500416624
1677618665410463,1.5411612115663047,0.8697642481116645,0.44251163500416624
1677618665426448,1.5716792553597543,0.8697642481116645,0.38147554741738077
1677618665442434,1.6021972991530902,0.8697642481116645,0.3509575036240449
1677618665458419,1.5411612115663047,0.8697642481116645,0.3509575036240449
1677618665474405,1.5106431677729688,0.8392462043183286,0.38147554741738077
1677618665490390,1.5106431677729688,0.8697642481116645,0.38147554741738077
1677618665506376,1.5106431677729688,0.8697642481116645,0.41199359121083035
1677618665522361,1.5411612115663047,0.8087281605248791,0.44251163500416624
1677618665538347,1.5716792553597543,0.9002822919051141,0.3509575036240449
1677618665554332,1.5716792553597543,0.9002822919051141,0.38147554741738077
1677618665570318,1.5716792553597543,0.9002822919051141,0.38147554741738077
1677618665586303,1.5716792553597543,0.8697642481116645,0.38147554741738077
1677618665602289,1.4801251239795192,0.8697642481116645,0.38147554741738077
1677618665618274,1.5106431677729688,0.93080033569845,0.3509575036240449
1677618665634260,1.5716792553597543,0.9002822919051141,0.4730296787976158
1677618665650116,1.4801251239795192,0.9002822919051141,0.41199359121083035
1677618665666101,1.5106431677729688,0.9002822919051141,0.41199359121083035
1677618665682086,1.5106431677729688,0.93080033569845,0.3204394598305953
1677618665698071,1.5411612115663047,0.93080033569845,0.41199359121083035
1677618665714056,1.5411612115663047,0.8697642481116645,0.38147554741738077
1677618665730041,1.5716792553597543,0.8697642481116645,0.41199359121083035
1677618665746026,1.5411612115663047,0.8697642481116645,0.41199359121083035
1677618665762011,1.5716792553597543,0.8392462043183286,0.44251163500416624
1677618665777996,1.5106431677729688,0.8697642481116645,0.41199359121083035
1677618665793981,1.5716792553597543,0.8392462043183286,0.41199359121083035
1677618665809966,1.5411612115663047,0.8392462043183286,0.41199359121083035
1677618665825951,1.5411612115663047,0.9002822919051141,0.44251163500416624
1677618665841936,1.5411612115663047,0.8392462043183286,0.44251163500416624
1677618665857921,1.5716792553597543,0.8697642481116645,0.41199359121083035
1677618665873906,1.4801251239795192,0.8697642481116645,0.41199359121083035
1677618665889891,1.5106431677729688,0.8697642481116645,0.41199359121083035
1677618665905876,1.5106431677729688,0.8697642481116645,0.38147554741738077
1677618665921861,1.5106431677729688,0.8697642481116645,0.44251163500416624
1677618665937846,1.5411612115663047,0.9002822919051141,0.4730296787976158
1677618665953831,1.5411612115663047,0.9002822919051141,0.38147554741738077
1677618665969665,1.5411612115663047,0.93080033569845,0.44251163500416624
1677618665985650,1.5411612115663047,0.93080033569845,0.41199359121083035
1677618666001634,1.5411612115663047,0.8697642481116645,0.44251163500416624
1677618666017619,1.5411612115663047,0.8697642481116645,0.3509575036240449
1677618666033603,1.5716792553597543,0.8697642481116645,0.41199359121083035
1677618666049588,1.5411612115663047,0.93080033569845,0.44251163500416624
1677618666065572,1.5106431677729688,0.9002822919051141,0.38147554741738077
1677618666081557,1.6021972991530902,0.9002822919051141,0.41199359121083035
1677618666097541,1.5411612115663047,0.9002822919051141,0.38147554741738077
1677618666113526,1.5106431677729688,0.9002822919051141,0.41199359121083035
1677618666129511,1.5411612115663047,0.9002822919051141,0.38147554741738077
1677618666145495,1.5411612115663047,0.8697642481116645,0.41199359121083035
1677618666161480,1.5716792553597543,0.9002822919051141,0.38147554741738077
1677618666177464,1.6021972991530902,0.9002822919051141,0.41199359121083035
1677618666193449,1.5716792553597543,0.9002822919051141,0.44251163500416624
1677618666209433,1.5716792553597543,0.8697642481116645,0.44251163500416624
1677618666225418,1.5716792553597543,0.9002822919051141,0.38147554741738077
1677618666241402,1.5411612115663047,0.9002822919051141,0.44251163500416624
1677618666257387,1.6021972991530902,0.93080033569845,0.41199359121083035
1677618666273371,1.6021972991530902,0.9002822919051141,0.41199359121083035
1677618666289276,1.5411612115663047,0.8697642481116645,0.41199359121083035
1677618666305260,1.5716792553597543,0.8697642481116645,0.3509575036240449
1677618666321244,1.5106431677729688,0.9002822919051141,0.41199359121083035
1677618666337228,1.5411612115663047,0.9002822919051141,0.44251163500416624
1677618666353212,1.5716792553597543,0.8697642481116645,0.41199359121083035
1677618666369196,1.5106431677729688,0.8392462043183286,0.38147554741738077
1677618666385180,1.5411612115663047,0.8392462043183286,0.38147554741738077
1677618666401164,1.5106431677729688,0.8392462043183286,0.41199359121083035
1677618666417148,1.5411612115663047,0.8697642481116645,0.38147554741738077
1677618666433132,1.5716792553597543,0.8392462043183286,0.38147554741738077
1677618666449116,1.5411612115663047,0.8697642481116645,0.41199359121083035
1677618666465100,1.5411612115663047,0.8697642481116645,0.41199359121083035
1677618666481084,1.5716792553597543,0.9002822919051141,0.41199359121083035
1677618666497069,1.5411612115663047,0.9002822919051141,0.38147554741738077
1677618666513053,1.5106431677729688,0.8697642481116645,0.44251163500416624
1677618666529037,1.5106431677729688,0.9002822919051141,0.41199359121083035
1677618666545021,1.5411612115663047,0.9002822919051141,0.38147554741738077
1677618666561005,1.5106431677729688,0.8392462043183286,0.3509575036240449
1677618666576989,1.6021972991530902,0.8392462043183286,0.38147554741738077
1677618666592973,1.5716792553597543,0.8392462043183286,0.3509575036240449
1677618666608825,1.5411612115663047,0.9002822919051141,0.3509575036240449
1677618666624809,1.5716792553597543,0.8392462043183286,0.41199359121083035
1677618666640792,1.5716792553597543,0.8087281605248791,0.3509575036240449
1677618666656776,1.5411612115663047,0.8697642481116645,0.38147554741738077
1677618666672760,1.5411612115663047,0.9002822919051141,0.41199359121083035
1677618666688743,1.5716792553597543,0.9002822919051141,0.41199359121083035
1677618666704727,1.5411612115663047,0.8697642481116645,0.41199359121083035
1677618666720710,1.5411612115663047,0.9002822919051141,0.38147554741738077
1677618666736694,1.5106431677729688,0.8697642481116645,0.41199359121083035
1677618666752678,1.5716792553597543,0.9002822919051141,0.41199359121083035
1677618666768661,1.5411612115663047,0.9002822919051141,0.38147554741738077
1677618666784645,1.5716792553597543,0.93080033569845,0.41199359121083035
1677618666800628,1.5106431677729688,0.9002822919051141,0.4730296787976158
1677618666816612,1.5411612115663047,0.8697642481116645,0.44251163500416624
1677618666832595,1.5106431677729688,0.9002822919051141,0.38147554741738077
1677618666848579,1.5411612115663047,0.93080033569845,0.38147554741738077
1677618666864563,1.5716792553597543,0.93080033569845,0.44251163500416624
1677618666880546,1.5411612115663047,0.93080033569845,0.41199359121083035
1677618666896530,1.5411612115663047,0.9002822919051141,0.41199359121083035
1677618666912513,1.5716792553597543,0.9002822919051141,0.44251163500416624
1677618666928375,1.5411612115663047,0.8392462043183286,0.4730296787976158
1677618666944358,1.5411612115663047,0.8392462043183286,0.41199359121083035
1677618666960341,1.5411612115663047,0.8392462043183286,0.38147554741738077
1677618666976324,1.5106431677729688,0.9002822919051141,0.38147554741738077
1677618666992307,1.5106431677729688,0.9002822919051141,0.41199359121083035
1677618667008290,1.5411612115663047,0.8697642481116645,0.38147554741738077
1677618667024273,1.5411612115663047,0.8697642481116645,0.4730296787976158
1677618667040257,1.6021972991530902,0.8392462043183286,0.44251163500416624
1677618667056240,1.5716792553597543,0.8697642481116645,0.44251163500416624
1677618667072223,1.5411612115663047,0.9002822919051141,0.44251163500416624
1677618667088206,1.5106431677729688,0.9002822919051141,0.5035477225909517
1677618667104189,1.4801251239795192,0.93080033569845,0.44251163500416624
1677618667120172,1.5411612115663047,0.8697642481116645,0.4730296787976158
1677618667136155,1.5411612115663047,0.9002822919051141,0.44251163500416624
1677618667152138,1.6021972991530902,0.8697642481116645,0.4730296787976158
1677618667168121,1.5716792553597543,0.8697642481116645,0.4730296787976158
1677618667184105,1.5411612115663047,0.8697642481116645,0.4730296787976158
1677618667200088,1.5411612115663047,0.8392462043183286,0.41199359121083035
1677618667216071,1.5716792553597543,0.9002822919051141,0.44251163500416624
1677618667232054,1.6021972991530902,0.8697642481116645,0.41199359121083035
1677618667247985,1.5411612115663047,0.8697642481116645,0.4730296787976158
1677618667263968,1.5411612115663047,0.8697642481116645,0.41199359121083035
1677618667279951,1.5716792553597543,0.8087281605248791,0.44251163500416624
1677618667295933,1.5106431677729688,0.8392462043183286,0.41199359121083035
1677618667311916,1.5411612115663047,0.8697642481116645,0.4730296787976158
1677618667327899,1.5411612115663047,0.8697642481116645,0.4730296787976158
1677618667343881,1.4496070801861833,0.8392462043183286,0.41199359121083035
1677618667359864,1.5106431677729688,0.8697642481116645,0.4730296787976158
1677618667375846,1.5106431677729688,0.8697642481116645,0.4730296787976158
1677618667391829,1.4801251239795192,0.8697642481116645,0.41199359121083035
1677618667407812,1.4801251239795192,0.8697642481116645,0.41199359121083035
1677618667423794,1.5106431677729688,0.9002822919051141,0.41199359121083035
1677618667439777,1.5411612115663047,0.93080033569845,0.44251163500416624
1677618667455760,1.5716792553597543,0.8697642481116645,0.4730296787976158
1677618667471742,1.5716792553597543,0.8697642481116645,0.4730296787976158
1677618667487725,1.5716792553597543,0.9002822919051141,0.41199359121083035
1677618667503708,1.5411612115663047,0.93080033569845,0.44251163500416624
1677618667519690,1.5411612115663047,0.93080033569845,0.41199359121083035
1677618667535673,1.5106431677729688,0.9002822919051141,0.38147554741738077
1677618667551655,1.6021972991530902,0.8697642481116645,0.4730296787976158
1677618667567535,1.6327153429465397,0.8697642481116645,0.4730296787976158
1677618667583517,1.5106431677729688,0.9002822919051141,0.41199359121083035
1677618667599499,1.4801251239795192,0.8392462043183286,0.41199359121083035
1677618667615481,1.5106431677729688,0.8392462043183286,0.41199359121083035
1677618667631464,1.5411612115663047,0.9002822919051141,0.41199359121083035
1677618667647446,1.5716792553597543,0.8392462043183286,0.5035477225909517
1677618667663428,1.6021972991530902,0.8392462043183286,0.44251163500416624
1677618667679410,1.5716792553597543,0.9002822919051141,0.38147554741738077
1677618667695392,1.5411612115663047,0.9002822919051141,0.3509575036240449
1677618667711374,1.5106431677729688,0.93080033569845,0.38147554741738077
1677618667727357,1.5106431677729688,0.9002822919051141,0.41199359121083035
1677618667743339,1.5411612115663047,0.8392462043183286,0.41199359121083035
1677618667759321,1.5716792553597543,0.8697642481116645,0.44251163500416624
1677618667775303,1.5716792553597543,0.9002822919051141,0.44251163500416624
1677618667791285,1.6021972991530902,0.93080033569845,0.41199359121083035
1677618667807267,1.6021972991530902,0.8697642481116645,0.3509575036240449
1677618667823249,1.5411612115663047,0.9002822919051141,0.3509575036240449
1677618667839232,1.5411612115663047,0.9002822919051141,0.3509575036240449
1677618667855214,1.5716792553597543,0.8697642481116645,0.41199359121083035
1677618667871196,1.5411612115663047,0.9002822919051141,0.41199359121083035
1677618667887115,1.4801251239795192,0.9002822919051141,0.38147554741738077
1677618667903097,1.5716792553597543,0.9002822919051141,0.41199359121083035
1677618667919079,1.5106431677729688,0.9002822919051141,0.41199359121083035
1677618667935062,1.5411612115663047,0.8392462043183286,0.41199359121083035
1677618667951044,1.5411612115663047,0.9002822919051141,0.41199359121083035
1677618667967026,1.5106431677729688,0.9002822919051141,0.38147554741738077
1677618667983008,1.5411612115663047,0.8697642481116645,0.3509575036240449
1677618667998990,1.4801251239795192,0.9002822919051141,0.41199359121083035
1677618668014972,1.5106431677729688,0.9002822919051141,0.41199359121083035
1677618668030954,1.5411612115663047,0.9002822919051141,0.3204394598305953
1677618668046937,1.5716792553597543,0.9002822919051141,0.3509575036240449
1677618668062919,1.5411612115663047,0.8697642481116645,0.3509575036240449
1677618668078901,1.5411612115663047,0.8697642481116645,0.38147554741738077
1677618668094883,1.4801251239795192,0.8392462043183286,0.38147554741738077
1677618668110865,1.5716792553597543,0.8392462043183286,0.38147554741738077
1677618668126847,1.6021972991530902,0.8392462043183286,0.3509575036240449
1677618668142830,1.6327153429465397,0.8697642481116645,0.38147554741738077
1677618668158812,1.5716792553597543,0.9002822919051141,0.38147554741738077
1677618668174794,1.6021972991530902,0.9002822919051141,0.44251163500416624
1677618668190776,1.5716792553597543,0.8697642481116645,0.41199359121083035
1677618668206665,1.5106431677729688,0.8697642481116645,0.41199359121083035
1677618668222646,1.5716792553597543,0.8697642481116645,0.3509575036240449
1677618668238628,1.6327153429465397,0.9002822919051141,0.41199359121083035
1677618668254610,1.5716792553597543,0.8697642481116645,0.38147554741738077
1677618668270591,1.5716792553597543,0.8697642481116645,0.38147554741738077
1677618668286573,1.5106431677729688,0.9002822919051141,0.3509575036240449
1677618668302555,1.4801251239795192,0.8392462043183286,0.41199359121083035
1677618668318536,1.5716792553597543,0.8392462043183286,0.41199359121083035
1677618668334518,1.5716792553597543,0.93080033569845,0.44251163500416624
1677618668350500,1.5411612115663047,0.9002822919051141,0.41199359121083035
1677618668366481,1.5411612115663047,0.9002822919051141,0.38147554741738077
1677618668382463,1.5411612115663047,0.9002822919051141,0.3509575036240449
1677618668398445,1.5716792553597543,0.93080033569845,0.41199359121083035
1677618668414426,1.5411612115663047,0.93080033569845,0.44251163500416624
1677618668430408,1.5411612115663047,0.8697642481116645,0.41199359121083035
1677618668446390,1.5716792553597543,0.8392462043183286,0.41199359121083035
1677618668462371,1.5411612115663047,0.9002822919051141,0.41199359121083035
1677618668478353,1.5411612115663047,0.8697642481116645,0.41199359121083035
1677618668494335,1.4801251239795192,0.9002822919051141,0.44251163500416624
1677618668510316,1.5411612115663047,0.8697642481116645,0.41199359121083035
1677618668526245,1.6021972991530902,0.8697642481116645,0.41199359121083035
1677618668542226,1.5716792553597543,0.93080033569845,0.41199359121083035
1677618668558208,1.5411612115663047,0.93080033569845,0.38147554741738077
1677618668574190,1.5716792553597543,0.8697642481116645,0.38147554741738077
1677618668590171,1.5411612115663047,0.8697642481116645,0.38147554741738077
1677618668606153,1.5716792553597543,0.9002822919051141,0.44251163500416624
1677618668622135,1.5716792553597543,0.9002822919051141,0.41199359121083035
1677618668638116,1.5716792553597543,0.9002822919051141,0.44251163500416624
1677618668654098,1.5411612115663047,0.8697642481116645,0.44251163500416624
1677618668670080,1.5411612115663047,0.8697642481116645,0.38147554741738077
1677618668686061,1.5106431677729688,0.8697642481116645,0.38147554741738077
1677618668702043,1.5411612115663047,0.8697642481116645,0.38147554741738077
1677618668718025,1.5411612115663047,0.8392462043183286,0.41199359121083035
1677618668734007,1.5411612115663047,0.9002822919051141,0.38147554741738077
1677618668749988,1.5106431677729688,0.9002822919051141,0.41199359121083035
1677618668765970,1.5106431677729688,0.8697642481116645,0.41199359121083035
1677618668781952,1.5411612115663047,0.8392462043183286,0.38147554741738077
1677618668797933,1.6327153429465397,0.93080033569845,0.41199359121083035
1677618668813915,1.5716792553597543,0.8697642481116645,0.44251163500416624
1677618668829897,1.5411612115663047,0.8697642481116645,0.44251163500416624
1677618668845825,1.5716792553597543,0.8392462043183286,0.44251163500416624
1677618668861806,1.5716792553597543,0.8697642481116645,0.44251163500416624
1677618668877787,1.5716792553597543,0.9613183794918996,0.41199359121083035
1677618668893768,1.5716792553597543,0.8697642481116645,0.41199359121083035
1677618668909750,1.6021972991530902,0.8392462043183286,0.44251163500416624
1677618668925731,1.5411612115663047,0.9002822919051141,0.4730296787976158
1677618668941712,1.5411612115663047,0.8697642481116645,0.41199359121083035
1677618668957693,1.5411612115663047,0.8392462043183286,0.41199359121083035
1677618668973674,1.5716792553597543,0.8697642481116645,0.41199359121083035
1677618668989656,1.5106431677729688,0.9002822919051141,0.44251163500416624
1677618669005637,1.5411612115663047,0.9002822919051141,0.3509575036240449
1677618669021618,1.5411612115663047,0.8697642481116645,0.38147554741738077
1677618669037599,1.5716792553597543,0.8697642481116645,0.38147554741738077
1677618669053580,1.6021972991530902,0.8697642481116645,0.44251163500416624
1677618669069562,1.5411612115663047,0.9002822919051141,0.44251163500416624
1677618669085543,1.5106431677729688,0.8087281605248791,0.38147554741738077
1677618669101524,1.5716792553597543,0.8392462043183286,0.38147554741738077
1677618669117505,1.5716792553597543,0.8697642481116645,0.41199359121083035
1677618669133486,1.5411612115663047,0.93080033569845,0.44251163500416624
1677618669149468,1.5411612115663047,0.8697642481116645,0.38147554741738077
1677618669165435,1.5716792553597543,0.9002822919051141,0.41199359121083035
1677618669181417,1.5716792553597543,0.8697642481116645,0.44251163500416624
1677618669197398,1.5411612115663047,0.93080033569845,0.44251163500416624
1677618669213379,1.5716792553597543,0.9002822919051141,0.44251163500416624
1677618669229360,1.5716792553597543,0.9002822919051141,0.38147554741738077
1677618669245341,1.5411612115663047,0.93080033569845,0.38147554741738077
1677618669261323,1.5716792553597543,0.8697642481116645,0.41199359121083035
1677618669277304,1.5716792553597543,0.9002822919051141,0.41199359121083035
1677618669293285,1.5411612115663047,0.9002822919051141,0.38147554741738077
1677618669309266,1.5716792553597543,0.93080033569845,0.38147554741738077
1677618669325247,1.5411612115663047,0.9002822919051141,0.3204394598305953
1677618669341229,1.5106431677729688,0.9002822919051141,0.41199359121083035
1677618669357210,1.5411612115663047,0.8392462043183286,0.38147554741738077
1677618669373191,1.5411612115663047,0.8392462043183286,0.38147554741738077
1677618669389172,1.5411612115663047,0.8697642481116645,0.41199359121083035
1677618669405153,1.5411612115663047,0.8697642481116645,0.41199359121083035
1677618669421135,1.5411612115663047,0.8392462043183286,0.41199359121083035
1677618669437116,1.5411612115663047,0.8697642481116645,0.3509575036240449
1677618669453097,1.5716792553597543,0.9002822919051141,0.38147554741738077
1677618669469078,1.5411612115663047,0.8697642481116645,0.3509575036240449
1677618669484985,1.5716792553597543,0.9002822919051141,0.38147554741738077
1677618669500966,1.5716792553597543,0.8697642481116645,0.3509575036240449
1677618669516946,1.6327153429465397,0.9002822919051141,0.41199359121083035
1677618669532927,1.6021972991530902,0.93080033569845,0.41199359121083035
1677618669548908,1.5716792553597543,0.8697642481116645,0.41199359121083035
1677618669564889,1.4496070801861833,0.9002822919051141,0.41199359121083035
1677618669580869,1.5411612115663047,0.9002822919051141,0.3509575036240449
1677618669596850,1.5411612115663047,0.8697642481116645,0.38147554741738077
1677618669612831,1.5411612115663047,0.8697642481116645,0.44251163500416624
1677618669628811,1.5716792553597543,0.9002822919051141,0.44251163500416624
1677618669644792,1.5411612115663047,0.9002822919051141,0.38147554741738077
1677618669660773,1.6021972991530902,0.9002822919051141,0.44251163500416624
1677618669676754,1.4801251239795192,0.8697642481116645,0.38147554741738077
1677618669692734,1.5106431677729688,0.9002822919051141,0.44251163500416624
1677618669708715,1.5716792553597543,0.9002822919051141,0.38147554741738077
1677618669724696,1.5716792553597543,0.8697642481116645,0.41199359121083035
1677618669740677,1.5716792553597543,0.9002822919051141,0.38147554741738077
1677618669756657,1.5716792553597543,0.93080033569845,0.41199359121083035
1677618669772638,1.6021972991530902,0.93080033569845,0.44251163500416624
1677618669788619,1.6021972991530902,0.8392462043183286,0.3509575036240449
1677618669804565,1.5716792553597543,0.8392462043183286,0.38147554741738077
1677618669820546,1.5411612115663047,0.8392462043183286,0.44251163500416624
1677618669836526,1.5716792553597543,0.9002822919051141,0.44251163500416624
1677618669852507,1.5716792553597543,0.8392462043183286,0.41199359121083035
1677618669868488,1.5106431677729688,0.8392462043183286,0.41199359121083035
1677618669884469,1.5411612115663047,0.93080033569845,0.4730296787976158
1677618669900449,1.5716792553597543,0.93080033569845,0.44251163500416624
1677618669916430,1.5106431677729688,0.93080033569845,0.41199359121083035
1677618669932411,1.5716792553597543,0.9002822919051141,0.44251163500416624
1677618669948392,1.5106431677729688,0.9002822919051141,0.44251163500416624
1677618669964372,1.5411612115663047,0.8697642481116645,0.38147554741738077
1677618669980353,1.5411612115663047,0.8697642481116645,0.41199359121083035
1677618669996334,1.5716792553597543,0.8697642481116645,0.41199359121083035
1677618670012314,1.5106431677729688,0.9002822919051141,0.41199359121083035
1677618670028295,1.5106431677729688,0.93080033569845,0.38147554741738077
1677618670044276,1.5411612115663047,0.9002822919051141,0.44251163500416624
1677618670060257,1.5716792553597543,0.8392462043183286,0.41199359121083035
1677618670076237,1.5716792553597543,0.8697642481116645,0.41199359121083035
1677618670092218,1.5716792553597543,0.9002822919051141,0.41199359121083035
1677618670108199,1.5716792553597543,0.9002822919051141,0.44251163500416624
1677618670124115,1.5716792553597543,0.8697642481116645,0.3509575036240449
1677618670140095,1.5716792553597543,0.9002822919051141,0.38147554741738077
1677618670156076,1.5411612115663047,0.93080033569845,0.41199359121083035
1677618670172057,1.5411612115663047,0.9002822919051141,0.38147554741738077
1677618670188037,1.4801251239795192,0.8697642481116645,0.38147554741738077
1677618670204018,1.5411612115663047,0.8392462043183286,0.44251163500416624
1677618670219999,1.5716792553597543,0.8697642481116645,0.44251163500416624
1677618670235980,1.5106431677729688,0.9002822919051141,0.44251163500416624
1677618670251960,1.5411612115663047,0.8697642481116645,0.44251163500416624
1677618670267941,1.5716792553597543,0.9002822919051141,0.41199359121083035
1677618670283922,1.5411612115663047,0.8697642481116645,0.44251163500416624
1677618670299903,1.5411612115663047,0.8392462043183286,0.44251163500416624
1677618670315883,1.5106431677729688,0.8087281605248791,0.44251163500416624
1677618670331864,1.5106431677729688,0.8697642481116645,0.38147554741738077
1677618670347845,1.5716792553597543,0.9002822919051141,0.44251163500416624
1677618670363825,1.5716792553597543,0.93080033569845,0.4730296787976158
1677618670379806,1.5411612115663047,0.9002822919051141,0.44251163500416624
1677618670395787,1.5411612115663047,0.9002822919051141,0.44251163500416624
1677618670411768,1.6021972991530902,0.8697642481116645,0.44251163500416624
1677618670427748,1.5716792553597543,0.93080033569845,0.41199359121083035
1677618670443695,1.5411612115663047,0.9002822919051141,0.44251163500416624
1677618670459675,1.5716792553597543,0.93080033569845,0.44251163500416624
1677618670475655,1.5411612115663047,0.8392462043183286,0.41199359121083035
1677618670491635,1.5411612115663047,0.9002822919051141,0.38147554741738077
1677618670507616,1.4801251239795192,0.93080033569845,0.41199359121083035
1677618670523596,1.5411612115663047,0.9002822919051141,0.44251163500416624
1677618670539576,1.6021972991530902,0.8392462043183286,0.44251163500416624
1677618670555556,1.5411612115663047,0.8392462043183286,0.41199359121083035
1677618670571537,1.5411612115663047,0.8392462043183286,0.44251163500416624
1677618670587517,1.5411612115663047,0.8697642481116645,0.44251163500416624
1677618670603497,1.5716792553597543,0.93080033569845,0.3509575036240449
1677618670619477,1.5106431677729688,0.93080033569845,0.38147554741738077
1677618670635458,1.4801251239795192,0.8392462043183286,0.41199359121083035
1677618670651438,1.5106431677729688,0.9002822919051141,0.38147554741738077
1677618670667418,1.5411612115663047,0.8697642481116645,0.44251163500416624
1677618670683398,1.5716792553597543,0.8392462043183286,0.5035477225909517
1677618670699379,1.5411612115663047,0.9002822919051141,0.44251163500416624
1677618670715359,1.5411612115663047,0.8087281605248791,0.41199359121083035
1677618670731339,1.5716792553597543,0.9002822919051141,0.44251163500416624
1677618670747319,1.5411612115663047,0.93080033569845,0.44251163500416624
1677618670763244,1.5716792553597543,0.9002822919051141,0.41199359121083035
1677618670779224,1.5411612115663047,0.8697642481116645,0.44251163500416624
1677618670795205,1.5411612115663047,0.9002822919051141,0.41199359121083035
1677618670811185,1.5106431677729688,0.9002822919051141,0.41199359121083035
1677618670827165,1.5411612115663047,0.8392462043183286,0.44251163500416624
1677618670843145,1.5411612115663047,0.8392462043183286,0.4730296787976158
1677618670859126,1.5716792553597543,0.8392462043183286,0.4730296787976158
1677618670875106,1.6021972991530902,0.93080033569845,0.41199359121083035
1677618670891086,1.5716792553597543,0.9002822919051141,0.38147554741738077
1677618670907066,1.5716792553597543,0.9002822919051141,0.41199359121083035
1677618670923047,1.5411612115663047,0.93080033569845,0.41199359121083035
1677618670939027,1.4801251239795192,0.9613183794918996,0.41199359121083035
1677618670955007,1.4496070801861833,0.9002822919051141,0.41199359121083035
1677618670970987,1.5411612115663047,0.8697642481116645,0.38147554741738077
1677618670986968,1.5411612115663047,0.9002822919051141,0.38147554741738077
1677618671002948,1.5411612115663047,0.9002822919051141,0.41199359121083035
1677618671018928,1.5411612115663047,0.9002822919051141,0.38147554741738077
1677618671034908,1.6021972991530902,0.9002822919051141,0.3509575036240449
1677618671050889,1.5716792553597543,0.8697642481116645,0.38147554741738077
1677618671066869,1.6021972991530902,0.9002822919051141,0.38147554741738077
1677618671082824,1.5411612115663047,0.9002822919051141,0.44251163500416624
1677618671098805,1.5411612115663047,0.9002822919051141,0.44251163500416624
1677618671114785,1.5411612115663047,0.93080033569845,0.41199359121083035
1677618671130765,1.5411612115663047,0.9002822919051141,0.41199359121083035
1677618671146745,1.5716792553597543,0.8697642481116645,0.41199359121083035
1677618671162726,1.5411612115663047,0.9002822919051141,0.38147554741738077
1677618671178706,1.5716792553597543,0.9002822919051141,0.41199359121083035
1677618671194686,1.6327153429465397,0.8392462043183286,0.3509575036240449
1677618671210666,1.6021972991530902,0.9002822919051141,0.41199359121083035
1677618671226647,1.5411612115663047,0.8697642481116645,0.41199359121083035
1677618671242627,1.5411612115663047,0.9002822919051141,0.3509575036240449
1677618671258607,1.5411612115663047,0.93080033569845,0.38147554741738077
1677618671274587,1.5716792553597543,0.9002822919051141,0.38147554741738077
1677618671290567,1.5411612115663047,0.8697642481116645,0.3204394598305953
1677618671306548,1.5411612115663047,0.8697642481116645,0.38147554741738077
1677618671322528,1.5716792553597543,0.93080033569845,0.44251163500416624
1677618671338508,1.5716792553597543,0.8697642481116645,0.44251163500416624
1677618671354488,1.6021972991530902,0.9002822919051141,0.41199359121083035
1677618671370469,1.5411612115663047,0.9002822919051141,0.38147554741738077
1677618671386449,1.5411612115663047,0.8697642481116645,0.38147554741738077
1677618671402374,1.6021972991530902,0.8392462043183286,0.41199359121083035
1677618671418354,1.5716792553597543,0.8392462043183286,0.38147554741738077
1677618671434333,1.5716792553597543,0.9002822919051141,0.38147554741738077
1677618671450313,1.5411612115663047,0.8697642481116645,0.41199359121083035
1677618671466293,1.5411612115663047,0.9002822919051141,0.3509575036240449
1677618671482273,1.5411612115663047,0.9002822919051141,0.38147554741738077
1677618671498252,1.5106431677729688,0.9002822919051141,0.44251163500416624
1677618671514232,1.5411612115663047,0.9002822919051141,0.44251163500416624
1677618671530212,1.5716792553597543,0.9002822919051141,0.44251163500416624
1677618671546192,1.5411612115663047,0.8697642481116645,0.41199359121083035
1677618671562172,1.5716792553597543,0.8697642481116645,0.41199359121083035
1677618671578151,1.5716792553597543,0.93080033569845,0.41199359121083035
1677618671594131,1.5716792553597543,0.9002822919051141,0.38147554741738077
1677618671610111,1.5106431677729688,0.9002822919051141,0.38147554741738077
1677618671626091,1.5411612115663047,0.9613183794918996,0.41199359121083035
1677618671642070,1.6021972991530902,0.9613183794918996,0.44251163500416624
1677618671658050,1.5716792553597543,0.9002822919051141,0.44251163500416624
1677618671674030,1.5106431677729688,0.8087281605248791,0.44251163500416624
1677618671690010,1.5106431677729688,0.9002822919051141,0.41199359121083035
1677618671705989,1.5716792553597543,0.9613183794918996,0.44251163500416624
1677618671721954,1.5411612115663047,0.9002822919051141,0.44251163500416624
1677618671737934,1.5106431677729688,0.9002822919051141,0.38147554741738077
1677618671753914,1.5411612115663047,0.9002822919051141,0.38147554741738077
1677618671769893,1.5716792553597543,0.9613183794918996,0.4730296787976158
1677618671785873,1.6021972991530902,0.9002822919051141,0.44251163500416624
1677618671801853,1.5411612115663047,0.8697642481116645,0.4730296787976158
1677618671817833,1.5716792553597543,0.8392462043183286,0.38147554741738077
1677618671833812,1.5716792553597543,0.8697642481116645,0.44251163500416624
1677618671849792,1.5106431677729688,0.8697642481116645,0.41199359121083035
1677618671865772,1.5106431677729688,0.8697642481116645,0.44251163500416624
1677618671881752,1.5106431677729688,0.9002822919051141,0.41199359121083035
1677618671897731,1.5411612115663047,0.8697642481116645,0.3509575036240449
1677618671913711,1.5411612115663047,0.8697642481116645,0.38147554741738077
1677618671929691,1.5106431677729688,0.8697642481116645,0.44251163500416624
1677618671945671,1.5716792553597543,0.93080033569845,0.41199359121083035
1677618671961650,1.5716792553597543,0.9002822919051141,0.38147554741738077
1677618671977630,1.5106431677729688,0.9002822919051141,0.44251163500416624
1677618671993610,1.4801251239795192,0.8087281605248791,0.38147554741738077
1677618672009590,1.5411612115663047,0.8697642481116645,0.44251163500416624
1677618672025570,1.5106431677729688,0.8697642481116645,0.41199359121083035
1677618672041534,1.5411612115663047,0.8392462043183286,0.44251163500416624
1677618672057514,1.5716792553597543,0.9002822919051141,0.41199359121083035
1677618672073494,1.5716792553597543,0.9002822919051141,0.44251163500416624
1677618672089473,1.5716792553597543,0.9002822919051141,0.44251163500416624
1677618672105453,1.5411612115663047,0.93080033569845,0.41199359121083035
1677618672121433,1.5411612115663047,0.8697642481116645,0.3509575036240449
1677618672137413,1.5411612115663047,0.9002822919051141,0.44251163500416624
1677618672153392,1.5716792553597543,0.9002822919051141,0.41199359121083035
1677618672169372,1.5716792553597543,0.8697642481116645,0.41199359121083035
1677618672185352,1.5716792553597543,0.8392462043183286,0.41199359121083035
1677618672201332,1.5716792553597543,0.8392462043183286,0.44251163500416624
1677618672217311,1.5411612115663047,0.8697642481116645,0.44251163500416624
1677618672233291,1.6021972991530902,0.8697642481116645,0.44251163500416624
1677618672249271,1.5716792553597543,0.93080033569845,0.44251163500416624
1677618672265251,1.5106431677729688,0.8697642481116645,0.44251163500416624
1677618672281231,1.5411612115663047,0.8392462043183286,0.41199359121083035
1677618672297210,1.5106431677729688,0.8697642481116645,0.38147554741738077
1677618672313190,1.6021972991530902,0.8392462043183286,0.41199359121083035
1677618672329170,1.5716792553597543,0.8392462043183286,0.38147554741738077
1677618672345150,1.5716792553597543,0.93080033569845,0.38147554741738077
1677618672361084,1.6021972991530902,0.9002822919051141,0.41199359121083035
1677618672377063,1.5716792553597543,0.8697642481116645,0.41199359121083035
1677618672393042,1.5716792553597543,0.8697642481116645,0.44251163500416624
1677618672409021,1.5716792553597543,0.8697642481116645,0.38147554741738077
1677618672425001,1.5716792553597543,0.93080033569845,0.41199359121083035
1677618672440980,1.5716792553597543,0.8697642481116645,0.41199359121083035
1677618672456959,1.5716792553597543,0.8697642481116645,0.3509575036240449
1677618672472939,1.5411612115663047,0.93080033569845,0.41199359121083035
1677618672488918,1.5106431677729688,0.9002822919051141,0.5035477225909517
1677618672504897,1.5411612115663047,0.8697642481116645,0.41199359121083035
1677618672520877,1.5106431677729688,0.8697642481116645,0.38147554741738077
1677618672536856,1.4801251239795192,0.8392462043183286,0.3509575036240449
1677618672552835,1.4801251239795192,0.9002822919051141,0.3509575036240449
1677618672568814,1.5106431677729688,0.8697642481116645,0.38147554741738077
1677618672584794,1.5411612115663047,0.9002822919051141,0.38147554741738077
1677618672600773,1.5411612115663047,0.9002822919051141,0.41199359121083035
1677618672616752,1.5411612115663047,0.8697642481116645,0.38147554741738077
1677618672632732,1.5411612115663047,0.8697642481116645,0.38147554741738077
1677618672648711,1.5106431677729688,0.8697642481116645,0.38147554741738077
1677618672664690,1.5716792553597543,0.8697642481116645,0.38147554741738077
1677618672680664,1.5716792553597543,0.8697642481116645,0.38147554741738077
1677618672696643,1.5716792553597543,0.8697642481116645,0.38147554741738077
1677618672712622,1.6632333867398756,0.8392462043183286,0.44251163500416624
1677618672728602,1.6937514305333252,0.9002822919051141,0.41199359121083035
1677618672744581,1.6327153429465397,0.9002822919051141,0.44251163500416624
1677618672760560,1.6021972991530902,0.8697642481116645,0.3509575036240449
1677618672776539,1.5716792553597543,0.9002822919051141,0.38147554741738077
1677618672792519,1.5106431677729688,0.8697642481116645,0.41199359121083035
1677618672808498,1.5411612115663047,0.8697642481116645,0.44251163500416624
1677618672824477,1.6021972991530902,0.8697642481116645,0.38147554741738077
1677618672840457,1.5716792553597543,0.8392462043183286,0.41199359121083035
1677618672856436,1.5411612115663047,0.93080033569845,0.41199359121083035
1677618672872415,1.5411612115663047,0.93080033569845,0.38147554741738077
1677618672888394,1.5716792553597543,0.8392462043183286,0.44251163500416624
1677618672904374,1.5411612115663047,0.8392462043183286,0.38147554741738077
1677618672920353,1.5411612115663047,0.8697642481116645,0.3509575036240449
1677618672936332,1.5106431677729688,0.8392462043183286,0.38147554741738077
1677618672952312,1.5411612115663047,0.8392462043183286,0.41199359121083035
1677618672968291,1.5411612115663047,0.8697642481116645,0.4730296787976158
1677618672984270,1.5716792553597543,0.8697642481116645,0.41199359121083035
1677618673000213,1.5716792553597543,0.93080033569845,0.38147554741738077
1677618673016193,1.5411612115663047,0.8087281605248791,0.41199359121083035
1677618673032172,1.5716792553597543,0.8697642481116645,0.38147554741738077
1677618673048151,1.5411612115663047,0.8697642481116645,0.44251163500416624
1677618673064130,1.5106431677729688,0.9002822919051141,0.44251163500416624
1677618673080110,1.5411612115663047,0.8087281605248791,0.3509575036240449
1677618673096089,1.5716792553597543,0.8392462043183286,0.41199359121083035
1677618673112068,1.5716792553597543,0.8697642481116645,0.41199359121083035
1677618673128048,1.6021972991530902,0.8697642481116645,0.41199359121083035
1677618673144027,1.5716792553597543,0.8697642481116645,0.38147554741738077
1677618673160006,1.5716792553597543,0.8697642481116645,0.3509575036240449
1677618673175985,1.6021972991530902,0.8697642481116645,0.41199359121083035
1677618673191965,1.5411612115663047,0.9002822919051141,0.38147554741738077
1677618673207944,1.5106431677729688,0.9002822919051141,0.3509575036240449
1677618673223923,1.5716792553597543,0.9002822919051141,0.38147554741738077
1677618673239903,1.5716792553597543,0.93080033569845,0.38147554741738077
1677618673255882,1.5716792553597543,0.9002822919051141,0.41199359121083035
1677618673271861,1.5106431677729688,0.9002822919051141,0.41199359121083035
1677618673287840,1.5411612115663047,0.9002822919051141,0.38147554741738077
1677618673303820,1.5411612115663047,0.9002822919051141,0.38147554741738077
1677618673319793,1.5411612115663047,0.9002822919051141,0.41199359121083035
1677618673335773,1.5411612115663047,0.8697642481116645,0.41199359121083035
1677618673351752,1.5716792553597543,0.8697642481116645,0.41199359121083035
1677618673367731,1.5106431677729688,0.9002822919051141,0.3509575036240449
1677618673383710,1.6021972991530902,0.8697642481116645,0.38147554741738077
1677618673399690,1.5716792553597543,0.8697642481116645,0.3509575036240449
1677618673415669,1.5716792553597543,0.9002822919051141,0.3204394598305953
1677618673431648,1.5411612115663047,0.93080033569845,0.41199359121083035
1677618673447628,1.6021972991530902,0.93080033569845,0.41199359121083035
1677618673463607,1.5106431677729688,0.9002822919051141,0.41199359121083035
1677618673479586,1.5411612115663047,0.93080033569845,0.38147554741738077
1677618673495566,1.5716792553597543,0.9002822919051141,0.3509575036240449
1677618673511545,1.5716792553597543,0.8392462043183286,0.44251163500416624
1677618673527524,1.6021972991530902,0.9002822919051141,0.44251163500416624
1677618673543503,1.6021972991530902,0.9002822919051141,0.44251163500416624
1677618673559483,1.5716792553597543,0.9002822919051141,0.38147554741738077
1677618673575462,1.5716792553597543,0.9002822919051141,0.41199359121083035
1677618673591441,1.6021972991530902,0.9002822919051141,0.44251163500416624
1677618673607421,1.5411612115663047,0.8697642481116645,0.41199359121083035
1677618673623400,1.5716792553597543,0.8697642481116645,0.4730296787976158
1677618673639373,1.5716792553597543,0.9002822919051141,0.44251163500416624
1677618673655353,1.6021972991530902,0.8697642481116645,0.41199359121083035
1677618673671332,1.5106431677729688,0.8697642481116645,0.3509575036240449
1677618673687311,1.5716792553597543,0.8697642481116645,0.38147554741738077
1677618673703291,1.5716792553597543,0.9002822919051141,0.41199359121083035
1677618673719270,1.6327153429465397,0.8697642481116645,0.38147554741738077
1677618673735249,1.6021972991530902,0.8697642481116645,0.38147554741738077
1677618673751228,1.6021972991530902,0.8392462043183286,0.38147554741738077
1677618673767208,1.5716792553597543,0.8697642481116645,0.38147554741738077
1677618673783187,1.5106431677729688,0.9002822919051141,0.41199359121083035
1677618673799166,1.5411612115663047,0.9002822919051141,0.41199359121083035
1677618673815146,1.5716792553597543,0.8697642481116645,0.38147554741738077
1677618673831125,1.5411612115663047,0.93080033569845,0.41199359121083035
1677618673847104,1.5411612115663047,0.9002822919051141,0.41199359121083035
1677618673863083,1.5716792553597543,0.93080033569845,0.41199359121083035
1677618673879063,1.5411612115663047,0.8697642481116645,0.3509575036240449
1677618673895042,1.5411612115663047,0.8697642481116645,0.38147554741738077
1677618673911021,1.5106431677729688,0.9002822919051141,0.41199359121083035
1677618673927001,1.6021972991530902,0.8697642481116645,0.38147554741738077
1677618673942980,1.5716792553597543,0.9002822919051141,0.3204394598305953
1677618673958953,1.5716792553597543,0.9002822919051141,0.38147554741738077
1677618673974933,1.6021972991530902,0.9002822919051141,0.41199359121083035
1677618673990912,1.6021972991530902,0.9002822919051141,0.41199359121083035
1677618674006891,1.5716792553597543,0.8392462043183286,0.44251163500416624
1677618674022871,1.5411612115663047,0.8697642481116645,0.4730296787976158
1677618674038850,1.4801251239795192,0.9002822919051141,0.41199359121083035
1677618674054829,1.5411612115663047,0.93080033569845,0.44251163500416624
1677618674070809,1.5411612115663047,0.8697642481116645,0.38147554741738077
1677618674086788,1.6021972991530902,0.93080033569845,0.3509575036240449
1677618674102767,1.6021972991530902,0.9002822919051141,0.3509575036240449
1677618674118746,1.5716792553597543,0.8392462043183286,0.41199359121083035
1677618674134726,1.6021972991530902,0.8392462043183286,0.41199359121083035
1677618674150705,1.5716792553597543,0.9002822919051141,0.41199359121083035
1677618674166684,1.6021972991530902,0.93080033569845,0.44251163500416624
1677618674182664,1.5716792553597543,0.9002822919051141,0.3509575036240449
1677618674198643,1.6021972991530902,0.8697642481116645,0.38147554741738077
1677618674214622,1.5411612115663047,0.9002822919051141,0.3509575036240449
1677618674230601,1.5716792553597543,0.9002822919051141,0.38147554741738077
1677618674246581,1.5411612115663047,0.9002822919051141,0.38147554741738077
1677618674262560,1.5411612115663047,0.8392462043183286,0.38147554741738077
1677618674278503,1.5106431677729688,0.9002822919051141,0.41199359121083035
1677618674294482,1.5411612115663047,0.9002822919051141,0.41199359121083035
1677618674310462,1.5716792553597543,0.9002822919051141,0.3509575036240449
1677618674326441,1.5106431677729688,0.8697642481116645,0.3509575036240449
1677618674342420,1.5716792553597543,0.9002822919051141,0.44251163500416624
1677618674358399,1.5411612115663047,0.9002822919051141,0.41199359121083035
1677618674374379,1.5411612115663047,0.8697642481116645,0.44251163500416624
1677618674390358,1.5716792553597543,0.8697642481116645,0.38147554741738077
1677618674406337,1.5716792553597543,0.8697642481116645,0.38147554741738077
1677618674422317,1.6021972991530902,0.93080033569845,0.41199359121083035
1677618674438296,1.5411612115663047,0.93080033569845,0.41199359121083035
1677618674454275,1.5716792553597543,0.8697642481116645,0.41199359121083035
1677618674470255,1.5716792553597543,0.8697642481116645,0.38147554741738077
1677618674486234,1.5411612115663047,0.8697642481116645,0.3509575036240449
1677618674502213,1.5411612115663047,0.8392462043183286,0.3509575036240449
1677618674518192,1.5411612115663047,0.8392462043183286,0.3509575036240449
1677618674534172,1.5411612115663047,0.8697642481116645,0.38147554741738077
1677618674550151,1.5106431677729688,0.93080033569845,0.44251163500416624
1677618674566130,1.5716792553597543,0.9002822919051141,0.4730296787976158
1677618674582110,1.6021972991530902,0.9002822919051141,0.41199359121083035
1677618674598083,1.6021972991530902,0.8697642481116645,0.41199359121083035
1677618674614062,1.5411612115663047,0.8697642481116645,0.41199359121083035
1677618674630042,1.5411612115663047,0.8697642481116645,0.5035477225909517
1677618674646021,1.5716792553597543,0.8392462043183286,0.44251163500416624
1677618674662000,1.6021972991530902,0.8392462043183286,0.41199359121083035
1677618674677980,1.6021972991530902,0.9002822919051141,0.41199359121083035
1677618674693959,1.5106431677729688,0.93080033569845,0.41199359121083035
1677618674709938,1.5411612115663047,0.8697642481116645,0.44251163500416624
1677618674725917,1.5716792553597543,0.9002822919051141,0.41199359121083035
1677618674741897,1.5716792553597543,0.93080033569845,0.38147554741738077
1677618674757876,1.5411612115663047,0.93080033569845,0.41199359121083035
1677618674773855,1.6021972991530902,0.9002822919051141,0.41199359121083035
1677618674789835,1.5716792553597543,0.9002822919051141,0.5035477225909517
1677618674805814,1.5716792553597543,0.8392462043183286,0.44251163500416624
1677618674821793,1.5411612115663047,0.8697642481116645,0.41199359121083035
1677618674837772,1.5106431677729688,0.8697642481116645,0.44251163500416624
1677618674853752,1.5716792553597543,0.8392462043183286,0.38147554741738077
1677618674869731,1.5716792553597543,0.8697642481116645,0.44251163500416624
1677618674885710,1.5411612115663047,0.9002822919051141,0.41199359121083035
1677618674901690,1.5411612115663047,0.8697642481116645,0.41199359121083035
1677618674917633,1.5411612115663047,0.9002822919051141,0.3204394598305953
1677618674933611,1.5716792553597543,0.9002822919051141,0.38147554741738077
1677618674949590,1.5716792553597543,0.9002822919051141,0.41199359121083035
1677618674965569,1.5411612115663047,0.9002822919051141,0.41199359121083035
1677618674981548,1.5411612115663047,0.93080033569845,0.41199359121083035
1677618674997527,1.6021972991530902,0.93080033569845,0.38147554741738077
1677618675013506,1.6021972991530902,0.9613183794918996,0.38147554741738077
1677618675029484,1.5716792553597543,0.9002822919051141,0.41199359121083035
1677618675045463,1.5716792553597543,0.9002822919051141,0.41199359121083035
1677618675061442,1.6021972991530902,0.8697642481116645,0.41199359121083035
1677618675077421,1.6327153429465397,0.9002822919051141,0.41199359121083035
1677618675093400,1.5411612115663047,0.8697642481116645,0.41199359121083035
1677618675109378,1.5411612115663047,0.8697642481116645,0.41199359121083035
1677618675125357,1.5411612115663047,0.8697642481116645,0.41199359121083035
1677618675141336,1.6021972991530902,0.9002822919051141,0.5035477225909517
1677618675157315,1.5716792553597543,0.9002822919051141,0.4730296787976158
1677618675173294,1.6021972991530902,0.8697642481116645,0.4730296787976158
1677618675189273,1.6021972991530902,0.9002822919051141,0.41199359121083035
1677618675205251,1.6021972991530902,0.9613183794918996,0.38147554741738077
1677618675221230,1.5716792553597543,0.9002822919051141,0.44251163500416624
1677618675237213,1.6021972991530902,0.8697642481116645,0.4730296787976158
1677618675253192,1.5716792553597543,0.93080033569845,0.44251163500416624
1677618675269170,1.5716792553597543,0.9002822919051141,0.41199359121083035
1677618675285149,1.6021972991530902,0.8697642481116645,0.41199359121083035
1677618675301128,1.6327153429465397,0.9002822919051141,0.41199359121083035
1677618675317107,1.6327153429465397,0.9002822919051141,0.44251163500416624
1677618675333086,1.5411612115663047,0.93080033569845,0.38147554741738077
1677618675349064,1.5411612115663047,0.8697642481116645,0.44251163500416624
1677618675365043,1.5716792553597543,0.9002822919051141,0.41199359121083035
1677618675381022,1.5716792553597543,0.93080033569845,0.38147554741738077
1677618675397001,1.5411612115663047,0.9002822919051141,0.41199359121083035
1677618675412980,1.5716792553597543,0.8697642481116645,0.38147554741738077
1677618675428959,1.5411612115663047,0.8697642481116645,0.38147554741738077
1677618675444937,1.5106431677729688,0.8697642481116645,0.38147554741738077
1677618675460916,1.4496070801861833,0.8697642481116645,0.3204394598305953
1677618675476895,1.5106431677729688,0.8697642481116645,0.3509575036240449
1677618675492874,1.5716792553597543,0.8697642481116645,0.41199359121083035
1677618675508853,1.5716792553597543,0.8697642481116645,0.38147554741738077
1677618675524831,1.5716792553597543,0.9002822919051141,0.44251163500416624
1677618675540810,1.5716792553597543,0.8697642481116645,0.41199359121083035
1677618675556762,1.5716792553597543,0.8697642481116645,0.41199359121083035
1677618675572741,1.5411612115663047,0.8697642481116645,0.38147554741738077
1677618675588720,1.5106431677729688,0.8392462043183286,0.38147554741738077
1677618675604699,1.5716792553597543,0.8392462043183286,0.38147554741738077
1677618675620678,1.6021972991530902,0.8392462043183286,0.44251163500416624
1677618675636656,1.6021972991530902,0.8697642481116645,0.41199359121083035
1677618675652635,1.6021972991530902,0.93080033569845,0.41199359121083035
1677618675668614,1.6021972991530902,0.9002822919051141,0.38147554741738077
1677618675684593,1.6021972991530902,0.8697642481116645,0.38147554741738077
1677618675700572,1.5716792553597543,0.9002822919051141,0.3509575036240449
1677618675716550,1.6021972991530902,0.8697642481116645,0.38147554741738077
1677618675732529,1.5716792553597543,0.9002822919051141,0.38147554741738077
1677618675748508,1.5716792553597543,0.8392462043183286,0.3509575036240449
1677618675764487,1.6021972991530902,0.8697642481116645,0.3509575036240449
1677618675780466,1.5411612115663047,0.9002822919051141,0.38147554741738077
1677618675796445,1.5716792553597543,0.9002822919051141,0.3204394598305953
1677618675812423,1.6327153429465397,0.8697642481116645,0.3509575036240449
1677618675828402,1.6021972991530902,0.8697642481116645,0.3509575036240449
1677618675844381,1.5716792553597543,0.8087281605248791,0.41199359121083035
1677618675860360,1.5411612115663047,0.8697642481116645,0.41199359121083035
1677618675876342,1.5716792553597543,0.9002822919051141,0.44251163500416624
1677618675892321,1.5716792553597543,0.9002822919051141,0.44251163500416624
1677618675908300,1.6021972991530902,0.9002822919051141,0.44251163500416624
1677618675924279,1.5106431677729688,0.8697642481116645,0.41199359121083035
1677618675940258,1.5106431677729688,0.8697642481116645,0.41199359121083035
1677618675956236,1.5411612115663047,0.93080033569845,0.44251163500416624
1677618675972215,1.5411612115663047,0.8697642481116645,0.44251163500416624
1677618675988194,1.5411612115663047,0.8697642481116645,0.41199359121083035
1677618676004173,1.5411612115663047,0.9002822919051141,0.4730296787976158
1677618676020152,1.5106431677729688,0.8697642481116645,0.4730296787976158
1677618676036131,1.4801251239795192,0.8697642481116645,0.44251163500416624
1677618676052109,1.5106431677729688,0.8697642481116645,0.44251163500416624
1677618676068088,1.6327153429465397,0.8697642481116645,0.3509575036240449
1677618676084067,1.5411612115663047,0.9002822919051141,0.38147554741738077
1677618676100046,1.5411612115663047,0.9002822919051141,0.41199359121083035
1677618676116025,1.5106431677729688,0.8697642481116645,0.44251163500416624
1677618676132003,1.5411612115663047,0.9002822919051141,0.44251163500416624
1677618676147982,1.5411612115663047,0.8697642481116645,0.44251163500416624
1677618676163961,1.5716792553597543,0.9002822919051141,0.38147554741738077
1677618676179940,1.6021972991530902,0.8697642481116645,0.41199359121083035
1677618676195892,1.5411612115663047,0.9002822919051141,0.38147554741738077
1677618676211871,1.5411612115663047,0.8697642481116645,0.38147554741738077
1677618676227850,1.5106431677729688,0.93080033569845,0.38147554741738077
1677618676243828,1.4801251239795192,0.93080033569845,0.38147554741738077
1677618676259807,1.5716792553597543,0.9002822919051141,0.41199359121083035
1677618676275786,1.5411612115663047,0.93080033569845,0.38147554741738077
1677618676291765,1.5106431677729688,0.9002822919051141,0.38147554741738077
1677618676307744,1.5716792553597543,0.9002822919051141,0.44251163500416624
1677618676323722,1.5411612115663047,0.9002822919051141,0.3509575036240449
1677618676339701,1.6021972991530902,0.8392462043183286,0.3509575036240449
1677618676355680,1.5716792553597543,0.93080033569845,0.3509575036240449
1677618676371659,1.5716792553597543,0.9613183794918996,0.38147554741738077
1677618676387638,1.6021972991530902,0.9002822919051141,0.41199359121083035
1677618676403617,1.5411612115663047,0.8697642481116645,0.4730296787976158
1677618676419595,1.5716792553597543,0.9002822919051141,0.41199359121083035
1677618676435574,1.4801251239795192,0.93080033569845,0.41199359121083035
1677618676451553,1.5411612115663047,0.9002822919051141,0.38147554741738077
1677618676467532,1.5411612115663047,0.8697642481116645,0.38147554741738077
1677618676483511,1.5411612115663047,0.8697642481116645,0.44251163500416624
1677618676499489,1.5106431677729688,0.9002822919051141,0.38147554741738077
1677618676515472,1.5106431677729688,0.9002822919051141,0.41199359121083035
1677618676531451,1.5411612115663047,0.9002822919051141,0.44251163500416624
1677618676547430,1.5716792553597543,0.9002822919051141,0.41199359121083035
1677618676563408,1.5716792553597543,0.8697642481116645,0.41199359121083035
1677618676579387,1.5716792553597543,0.8697642481116645,0.44251163500416624
1677618676595366,1.5716792553597543,0.8697642481116645,0.38147554741738077
1677618676611345,1.5106431677729688,0.9002822919051141,0.41199359121083035
1677618676627324,1.6021972991530902,0.93080033569845,0.4730296787976158
1677618676643303,1.5716792553597543,0.9002822919051141,0.44251163500416624
1677618676659281,1.6021972991530902,0.8392462043183286,0.41199359121083035
1677618676675260,1.6021972991530902,0.9002822919051141,0.41199359121083035
1677618676691239,1.5106431677729688,0.8392462043183286,0.44251163500416624
1677618676707218,1.5411612115663047,0.8392462043183286,0.41199359121083035
1677618676723197,1.5716792553597543,0.93080033569845,0.38147554741738077
1677618676739175,1.5106431677729688,0.9002822919051141,0.41199359121083035
1677618676755154,1.5411612115663047,0.93080033569845,0.38147554741738077
1677618676771133,1.5411612115663047,0.8697642481116645,0.38147554741738077
1677618676787112,1.5106431677729688,0.8087281605248791,0.41199359121083035
1677618676803091,1.5411612115663047,0.93080033569845,0.41199359121083035
1677618676819069,1.5411612115663047,0.93080033569845,0.44251163500416624
1677618676835022,1.5106431677729688,0.9002822919051141,0.44251163500416624
1677618676851000,1.5411612115663047,0.9002822919051141,0.44251163500416624
1677618676866979,1.6021972991530902,0.9002822919051141,0.41199359121083035
1677618676882958,1.6021972991530902,0.9002822919051141,0.44251163500416624
1677618676898937,1.5411612115663047,0.9002822919051141,0.41199359121083035
1677618676914916,1.5411612115663047,0.8392462043183286,0.38147554741738077
1677618676930894,1.5716792553597543,0.8697642481116645,0.41199359121083035
1677618676946873,1.5716792553597543,0.9002822919051141,0.44251163500416624
1677618676962852,1.5716792553597543,0.8697642481116645,0.44251163500416624
1677618676978831,1.6021972991530902,0.8392462043183286,0.44251163500416624
1677618676994810,1.5411612115663047,0.9002822919051141,0.3509575036240449
1677618677010789,1.5106431677729688,0.8697642481116645,0.4730296787976158
1677618677026767,1.5411612115663047,0.8697642481116645,0.41199359121083035
1677618677042746,1.6021972991530902,0.8392462043183286,0.38147554741738077
1677618677058725,1.6021972991530902,0.9002822919051141,0.38147554741738077
1677618677074704,1.5716792553597543,0.8697642481116645,0.3509575036240449
1677618677090683,1.5716792553597543,0.93080033569845,0.3509575036240449
1677618677106661,1.5106431677729688,0.8392462043183286,0.3509575036240449
1677618677122640,1.5411612115663047,0.9002822919051141,0.38147554741738077
1677618677138619,1.5716792553597543,0.8697642481116645,0.38147554741738077
1677618677154602,1.5411612115663047,0.93080033569845,0.38147554741738077
1677618677170580,1.5716792553597543,0.8697642481116645,0.38147554741738077
1677618677186559,1.6021972991530902,0.8697642481116645,0.38147554741738077
1677618677202538,1.6021972991530902,0.9002822919051141,0.41199359121083035
1677618677218517,1.5716792553597543,0.8392462043183286,0.3509575036240449
1677618677234496,1.5106431677729688,0.8697642481116645,0.3204394598305953
1677618677250475,1.5716792553597543,0.9002822919051141,0.38147554741738077
1677618677266453,1.6632333867398756,0.9002822919051141,0.41199359121083035
1677618677282432,1.6021972991530902,0.8697642481116645,0.41199359121083035
1677618677298411,1.6021972991530902,0.8392462043183286,0.38147554741738077
1677618677314390,1.5106431677729688,0.8697642481116645,0.44251163500416624
1677618677330369,1.5411612115663047,0.9002822919051141,0.41199359121083035
1677618677346347,1.5411612115663047,0.8697642481116645,0.38147554741738077
1677618677362326,1.5411612115663047,0.9002822919051141,0.38147554741738077
1677618677378305,1.6021972991530902,0.8697642481116645,0.41199359121083035
1677618677394284,1.5716792553597543,0.9002822919051141,0.38147554741738077
1677618677410263,1.6021972991530902,0.9002822919051141,0.41199359121083035
1677618677426241,1.6021972991530902,0.9002822919051141,0.5035477225909517
1677618677442220,1.5716792553597543,0.9002822919051141,0.44251163500416624
1677618677458199,1.5411612115663047,0.93080033569845,0.38147554741738077
1677618677474151,1.5411612115663047,0.9002822919051141,0.41199359121083035
1677618677490130,1.5106431677729688,0.8392462043183286,0.44251163500416624
1677618677506109,1.5411612115663047,0.8697642481116645,0.44251163500416624
1677618677522088,1.5411612115663047,0.9002822919051141,0.44251163500416624
1677618677538066,1.5716792553597543,0.93080033569845,0.44251163500416624
1677618677554045,1.6021972991530902,0.8697642481116645,0.41199359121083035
1677618677570024,1.5106431677729688,0.8697642481116645,0.41199359121083035
1677618677586003,1.5716792553597543,0.8392462043183286,0.41199359121083035
1677618677601982,1.4801251239795192,0.8697642481116645,0.38147554741738077
1677618677617961,1.5106431677729688,0.9002822919051141,0.3509575036240449
1677618677633939,1.5411612115663047,0.9002822919051141,0.41199359121083035
1677618677649918,1.5411612115663047,0.9613183794918996,0.41199359121083035
1677618677665897,1.5716792553597543,0.9002822919051141,0.41199359121083035
1677618677681876,1.6327153429465397,0.9002822919051141,0.44251163500416624
1677618677697855,1.6021972991530902,0.8697642481116645,0.41199359121083035
1677618677713833,1.6021972991530902,0.93080033569845,0.44251163500416624
1677618677729812,1.5106431677729688,0.8697642481116645,0.44251163500416624
1677618677745791,1.5411612115663047,0.8392462043183286,0.44251163500416624
1677618677761770,1.5411612115663047,0.9002822919051141,0.44251163500416624
1677618677777749,1.4801251239795192,0.93080033569845,0.44251163500416624
1677618677793762,1.5411612115663047,0.9002822919051141,0.44251163500416624
1677618677809741,1.5716792553597543,0.9002822919051141,0.38147554741738077
1677618677825719,1.5716792553597543,0.8697642481116645,0.44251163500416624
1677618677841698,1.6021972991530902,0.93080033569845,0.38147554741738077
1677618677857677,1.5411612115663047,0.8697642481116645,0.41199359121083035
1677618677873656,1.6021972991530902,0.9002822919051141,0.3509575036240449
1677618677889635,1.6327153429465397,0.8697642481116645,0.38147554741738077
1677618677905614,1.5716792553597543,0.9002822919051141,0.41199359121083035
1677618677921592,1.5716792553597543,0.8697642481116645,0.41199359121083035
1677618677937571,1.5411612115663047,0.9002822919051141,0.38147554741738077
1677618677953550,1.5716792553597543,0.9002822919051141,0.38147554741738077
1677618677969529,1.5716792553597543,0.9002822919051141,0.3509575036240449
1677618677985508,1.5716792553597543,0.8697642481116645,0.38147554741738077
1677618678001486,1.5106431677729688,0.8392462043183286,0.41199359121083035
1677618678017465,1.6021972991530902,0.8697642481116645,0.44251163500416624
1677618678033444,1.5411612115663047,0.8697642481116645,0.38147554741738077
1677618678049423,1.5411612115663047,0.9002822919051141,0.41199359121083035
1677618678065402,1.5106431677729688,0.9002822919051141,0.41199359121083035
1677618678081380,1.5411612115663047,0.8697642481116645,0.38147554741738077
1677618678097359,1.5106431677729688,0.9002822919051141,0.38147554741738077
1677618678113311,1.5411612115663047,0.93080033569845,0.41199359121083035
1677618678129290,1.5716792553597543,0.9002822919051141,0.41199359121083035
1677618678145269,1.5411612115663047,0.8697642481116645,0.44251163500416624
1677618678161248,1.5716792553597543,0.8697642481116645,0.38147554741738077
1677618678177227,1.5716792553597543,0.93080033569845,0.44251163500416624
1677618678193205,1.5716792553597543,0.8392462043183286,0.38147554741738077
1677618678209184,1.5716792553597543,0.9002822919051141,0.41199359121083035
1677618678225163,1.5411612115663047,0.8697642481116645,0.41199359121083035
1677618678241142,1.5716792553597543,0.8697642481116645,0.44251163500416624
1677618678257121,1.5411612115663047,0.8697642481116645,0.44251163500416624
1677618678273100,1.5106431677729688,0.8392462043183286,0.4730296787976158
1677618678289078,1.5411612115663047,0.8392462043183286,0.38147554741738077
1677618678305057,1.5716792553597543,0.9002822919051141,0.38147554741738077
1677618678321036,1.5106431677729688,0.8697642481116645,0.41199359121083035
1677618678337015,1.5411612115663047,0.8392462043183286,0.44251163500416624
1677618678352994,1.5411612115663047,0.9002822919051141,0.38147554741738077
1677618678368972,1.5106431677729688,0.93080033569845,0.3509575036240449
1677618678384951,1.5106431677729688,0.8392462043183286,0.38147554741738077
1677618678400930,1.5716792553597543,0.8697642481116645,0.44251163500416624
1677618678416909,1.5411612115663047,0.8392462043183286,0.41199359121083035
1677618678432861,1.5411612115663047,0.9002822919051141,0.38147554741738077
1677618678448840,1.5106431677729688,0.9002822919051141,0.3509575036240449
1677618678464819,1.5106431677729688,0.8697642481116645,0.3509575036240449
1677618678480797,1.5411612115663047,0.8392462043183286,0.38147554741738077
1677618678496776,1.6021972991530902,0.9613183794918996,0.3509575036240449
1677618678512755,1.5716792553597543,0.9002822919051141,0.38147554741738077
1677618678528734,1.5716792553597543,0.8697642481116645,0.44251163500416624
1677618678544713,1.5411612115663047,0.9002822919051141,0.44251163500416624
1677618678560691,1.5411612115663047,0.9002822919051141,0.41199359121083035
1677618678576670,1.5716792553597543,0.8392462043183286,0.41199359121083035
1677618678592649,1.5716792553597543,0.8392462043183286,0.3509575036240449
1677618678608628,1.6021972991530902,0.8697642481116645,0.3509575036240449
1677618678624607,1.5716792553597543,0.8697642481116645,0.38147554741738077
1677618678640586,1.5716792553597543,0.9002822919051141,0.3509575036240449
1677618678656564,1.5411612115663047,0.8697642481116645,0.44251163500416624
1677618678672543,1.5106431677729688,0.8087281605248791,0.38147554741738077
1677618678688522,1.5411612115663047,0.8392462043183286,0.38147554741738077
1677618678704501,1.5716792553597543,0.9002822919051141,0.38147554741738077
1677618678720480,1.5716792553597543,0.8392462043183286,0.38147554741738077
1677618678736458,1.5106431677729688,0.9002822919051141,0.3509575036240449
1677618678752441,1.5411612115663047,0.8697642481116645,0.41199359121083035
1677618678768420,1.4801251239795192,0.8697642481116645,0.41199359121083035
1677618678784399,1.5106431677729688,0.8697642481116645,0.41199359121083035
1677618678800377,1.5411612115663047,0.9002822919051141,0.41199359121083035
1677618678816356,1.5716792553597543,0.93080033569845,0.38147554741738077
1677618678832335,1.5411612115663047,0.93080033569845,0.3509575036240449
1677618678848314,1.5411612115663047,0.9002822919051141,0.38147554741738077
1677618678864293,1.5716792553597543,0.8392462043183286,0.38147554741738077
1677618678880272,1.5716792553597543,0.93080033569845,0.38147554741738077
1677618678896250,1.5716792553597543,0.93080033569845,0.41199359121083035
1677618678912229,1.5411612115663047,0.93080033569845,0.41199359121083035
1677618678928208,1.5716792553597543,0.9002822919051141,0.38147554741738077
1677618678944187,1.5411612115663047,0.9002822919051141,0.38147554741738077
1677618678960166,1.5106431677729688,0.93080033569845,0.41199359121083035
1677618678976144,1.5716792553597543,0.8697642481116645,0.41199359121083035
1677618678992123,1.5106431677729688,0.8697642481116645,0.38147554741738077
1677618679008102,1.5106431677729688,0.9002822919051141,0.41199359121083035
1677618679024081,1.5106431677729688,0.8392462043183286,0.44251163500416624
1677618679040060,1.5716792553597543,0.8392462043183286,0.4730296787976158
1677618679056038,1.5411612115663047,0.8392462043183286,0.41199359121083035
1677618679071991,1.5411612115663047,0.8697642481116645,0.41199359121083035
1677618679087969,1.5106431677729688,0.93080033569845,0.41199359121083035
1677618679103947,1.5411612115663047,0.9002822919051141,0.44251163500416624
1677618679119926,1.5411612115663047,0.8697642481116645,0.44251163500416624
1677618679135904,1.5716792553597543,0.9002822919051141,0.44251163500416624
1677618679151882,1.5411612115663047,0.93080033569845,0.41199359121083035
1677618679167861,1.5411612115663047,0.9002822919051141,0.41199359121083035
1677618679183839,1.5716792553597543,0.8697642481116645,0.41199359121083035
1677618679199817,1.5716792553597543,0.9002822919051141,0.38147554741738077
1677618679215796,1.5716792553597543,0.9613183794918996,0.38147554741738077
1677618679231774,1.5411612115663047,0.8697642481116645,0.41199359121083035
1677618679247752,1.5716792553597543,0.93080033569845,0.38147554741738077
1677618679263731,1.5411612115663047,0.9002822919051141,0.41199359121083035
1677618679279709,1.5106431677729688,0.8697642481116645,0.41199359121083035
1677618679295687,1.5106431677729688,0.9002822919051141,0.41199359121083035
1677618679311666,1.5411612115663047,0.8697642481116645,0.41199359121083035
1677618679327644,1.5716792553597543,0.9002822919051141,0.41199359121083035
1677618679343622,1.5411612115663047,0.9002822919051141,0.38147554741738077
1677618679359601,1.5411612115663047,0.8392462043183286,0.3509575036240449
1677618679375579,1.6021972991530902,0.8697642481116645,0.3509575036240449
1677618679391571,1.5106431677729688,0.8697642481116645,0.38147554741738077
1677618679407549,1.5716792553597543,0.8392462043183286,0.38147554741738077
1677618679423528,1.5716792553597543,0.8697642481116645,0.3509575036240449
1677618679439507,1.5716792553597543,0.8697642481116645,0.41199359121083035
1677618679455486,1.5716792553597543,0.9002822919051141,0.44251163500416624
1677618679471465,1.5716792553597543,0.9613183794918996,0.44251163500416624
1677618679487444,1.5716792553597543,0.93080033569845,0.44251163500416624
1677618679503422,1.5716792553597543,0.8697642481116645,0.3509575036240449
1677618679519401,1.5411612115663047,0.93080033569845,0.3509575036240449
1677618679535380,1.5411612115663047,0.93080033569845,0.38147554741738077
1677618679551359,1.5716792553597543,0.9002822919051141,0.38147554741738077
1677618679567338,1.5411612115663047,0.8697642481116645,0.38147554741738077
1677618679583316,1.5716792553597543,0.8697642481116645,0.41199359121083035
1677618679599295,1.5716792553597543,0.9002822919051141,0.41199359121083035
1677618679615274,1.5716792553597543,0.9002822919051141,0.41199359121083035
1677618679631253,1.5411612115663047,0.9002822919051141,0.38147554741738077
1677618679647232,1.5716792553597543,0.8697642481116645,0.41199359121083035
1677618679663210,1.5411612115663047,0.9613183794918996,0.41199359121083035
1677618679679189,1.5106431677729688,0.9613183794918996,0.41199359121083035
1677618679695168,1.6021972991530902,0.8697642481116645,0.38147554741738077
1677618679711120,1.5716792553597543,0.9002822919051141,0.3509575036240449
1677618679727099,1.5411612115663047,0.9002822919051141,0.44251163500416624
1677618679743077,1.5411612115663047,0.9002822919051141,0.41199359121083035
1677618679759055,1.5716792553597543,0.8697642481116645,0.3509575036240449
1677618679775034,1.5716792553597543,0.93080033569845,0.3204394598305953
1677618679791012,1.5411612115663047,0.9002822919051141,0.38147554741738077
1677618679806990,1.5411612115663047,0.9002822919051141,0.38147554741738077
1677618679822969,1.5716792553597543,0.8392462043183286,0.41199359121083035
1677618679838947,1.5106431677729688,0.8697642481116645,0.38147554741738077
1677618679854925,1.5411612115663047,0.8697642481116645,0.38147554741738077
1677618679870904,1.5411612115663047,0.9002822919051141,0.41199359121083035
1677618679886882,1.5716792553597543,0.9002822919051141,0.38147554741738077
1677618679902860,1.5716792553597543,0.93080033569845,0.38147554741738077
1677618679918839,1.5716792553597543,0.9002822919051141,0.38147554741738077
1677618679934817,1.5716792553597543,0.8697642481116645,0.3204394598305953
1677618679950795,1.5716792553597543,0.9002822919051141,0.44251163500416624
1677618679966774,1.5716792553597543,0.9002822919051141,0.44251163500416624
1677618679982752,1.5411612115663047,0.8697642481116645,0.44251163500416624
1677618679998730,1.5106431677729688,0.9002822919051141,0.44251163500416624
1677618680014709,1.5411612115663047,0.8697642481116645,0.41199359121083035
1677618680030700,1.6021972991530902,0.93080033569845,0.44251163500416624
1677618680046679,1.6021972991530902,0.9002822919051141,0.44251163500416624
1677618680062657,1.5411612115663047,0.9002822919051141,0.44251163500416624
1677618680078635,1.5411612115663047,0.8697642481116645,0.41199359121083035
1677618680094614,1.6327153429465397,0.8697642481116645,0.4730296787976158
1677618680110592,1.6021972991530902,0.93080033569845,0.4730296787976158
1677618680126570,1.6021972991530902,0.8392462043183286,0.41199359121083035
1677618680142549,1.5411612115663047,0.8392462043183286,0.38147554741738077
1677618680158527,1.5411612115663047,0.8392462043183286,0.41199359121083035
1677618680174505,1.5411612115663047,0.8697642481116645,0.41199359121083035
1677618680190484,1.5411612115663047,0.9002822919051141,0.38147554741738077
1677618680206462,1.5411612115663047,0.9002822919051141,0.38147554741738077
1677618680222440,1.5106431677729688,0.9002822919051141,0.38147554741738077
1677618680238419,1.5411612115663047,0.9002822919051141,0.41199359121083035
1677618680254397,1.5411612115663047,0.8697642481116645,0.44251163500416624
1677618680270375,1.5411612115663047,0.9002822919051141,0.41199359121083035
1677618680286354,1.5411612115663047,0.93080033569845,0.38147554741738077
1677618680302332,1.5106431677729688,0.9002822919051141,0.38147554741738077
1677618680318310,1.5411612115663047,0.9002822919051141,0.3509575036240449
1677618680334289,1.5716792553597543,0.8697642481116645,0.38147554741738077
1677618680350250,1.5716792553597543,0.9002822919051141,0.41199359121083035
1677618680366228,1.5106431677729688,0.93080033569845,0.41199359121083035
1677618680382207,1.5411612115663047,0.9002822919051141,0.38147554741738077
1677618680398185,1.5411612115663047,0.9002822919051141,0.41199359121083035
1677618680414163,1.5411612115663047,0.9002822919051141,0.44251163500416624
1677618680430142,1.5716792553597543,0.93080033569845,0.44251163500416624
1677618680446120,1.5411612115663047,0.8697642481116645,0.38147554741738077
1677618680462098,1.5411612115663047,0.8697642481116645,0.44251163500416624
1677618680478077,1.4801251239795192,0.8697642481116645,0.44251163500416624
1677618680494055,1.5411612115663047,0.8697642481116645,0.41199359121083035
1677618680510033,1.5716792553597543,0.9002822919051141,0.44251163500416624
1677618680526012,1.5411612115663047,0.8697642481116645,0.38147554741738077
1677618680541990,1.5716792553597543,0.8392462043183286,0.41199359121083035
1677618680557968,1.5106431677729688,0.9002822919051141,0.44251163500416624
1677618680573947,1.5411612115663047,0.8697642481116645,0.38147554741738077
1677618680589925,1.5716792553597543,0.9002822919051141,0.38147554741738077
1677618680605903,1.6021972991530902,0.8392462043183286,0.44251163500416624
1677618680621882,1.6021972991530902,0.9002822919051141,0.41199359121083035
1677618680637860,1.5411612115663047,0.8697642481116645,0.41199359121083035
1677618680653838,1.5411612115663047,0.8697642481116645,0.41199359121083035
1677618680669830,1.5106431677729688,0.8697642481116645,0.38147554741738077
1677618680685808,1.5106431677729688,0.8392462043183286,0.38147554741738077
1677618680701787,1.4801251239795192,0.8697642481116645,0.3509575036240449
1677618680717765,1.5411612115663047,0.8697642481116645,0.38147554741738077
1677618680733743,1.5411612115663047,0.8392462043183286,0.41199359121083035
1677618680749722,1.5411612115663047,0.9002822919051141,0.44251163500416624
1677618680765700,1.5411612115663047,0.9918364232852355,0.4730296787976158
1677618680781678,1.5411612115663047,0.93080033569845,0.41199359121083035
1677618680797657,1.5106431677729688,0.8697642481116645,0.41199359121083035
1677618680813635,1.6021972991530902,0.93080033569845,0.44251163500416624
1677618680829613,1.5716792553597543,0.9002822919051141,0.41199359121083035
1677618680845592,1.5411612115663047,0.8392462043183286,0.41199359121083035
1677618680861570,1.6021972991530902,0.8392462043183286,0.41199359121083035
1677618680877548,1.5716792553597543,0.9002822919051141,0.38147554741738077
1677618680893527,1.5411612115663047,0.9002822919051141,0.41199359121083035
1677618680909505,1.5411612115663047,0.9002822919051141,0.4730296787976158
1677618680925483,1.5716792553597543,0.9002822919051141,0.5035477225909517
1677618680941462,1.5716792553597543,0.8697642481116645,0.4730296787976158
1677618680957440,1.5106431677729688,0.9002822919051141,0.38147554741738077
1677618680973418,1.5411612115663047,0.8697642481116645,0.38147554741738077
1677618680989380,1.5716792553597543,0.9002822919051141,0.44251163500416624
1677618681005358,1.5411612115663047,0.9002822919051141,0.44251163500416624
1677618681021336,1.5411612115663047,0.9613183794918996,0.44251163500416624
1677618681037315,1.5716792553597543,0.9002822919051141,0.41199359121083035
1677618681053293,1.5716792553597543,0.9002822919051141,0.41199359121083035
1677618681069271,1.5411612115663047,0.8697642481116645,0.41199359121083035
1677618681085250,1.4801251239795192,0.9002822919051141,0.41199359121083035
1677618681101228,1.6021972991530902,0.93080033569845,0.4730296787976158
1677618681117206,1.5716792553597543,0.8697642481116645,0.41199359121083035
1677618681133185,1.5716792553597543,0.93080033569845,0.44251163500416624
1677618681149163,1.5716792553597543,0.8697642481116645,0.41199359121083035
1677618681165141,1.5411612115663047,0.8392462043183286,0.41199359121083035
1677618681181120,1.5411612115663047,0.8697642481116645,0.3509575036240449
1677618681197098,1.5716792553597543,0.8697642481116645,0.38147554741738077
1677618681213076,1.6021972991530902,0.9002822919051141,0.38147554741738077
1677618681229055,1.5411612115663047,0.8697642481116645,0.38147554741738077
1677618681245033,1.6021972991530902,0.8697642481116645,0.44251163500416624
1677618681261011,1.6021972991530902,0.9002822919051141,0.41199359121083035
1677618681276990,1.5716792553597543,0.93080033569845,0.41199359121083035
1677618681292968,1.5411612115663047,0.8392462043183286,0.41199359121083035
1677618681308960,1.5716792553597543,0.8087281605248791,0.3509575036240449
1677618681324938,1.5411612115663047,0.8697642481116645,0.41199359121083035
1677618681340916,1.5411612115663047,0.9002822919051141,0.44251163500416624
1677618681356895,1.5411612115663047,0.8697642481116645,0.4730296787976158
1677618681372873,1.4801251239795192,0.8697642481116645,0.44251163500416624
1677618681388851,1.5106431677729688,0.9002822919051141,0.4730296787976158
1677618681404830,1.5716792553597543,0.8697642481116645,0.41199359121083035
1677618681420808,1.5411612115663047,0.9002822919051141,0.44251163500416624
1677618681436786,1.5716792553597543,0.8392462043183286,0.44251163500416624
1677618681452765,1.5716792553597543,0.8697642481116645,0.44251163500416624
1677618681468743,1.6021972991530902,0.9002822919051141,0.41199359121083035
1677618681484721,1.5716792553597543,0.93080033569845,0.38147554741738077
1677618681500700,1.5411612115663047,0.9002822919051141,0.41199359121083035
1677618681516678,1.5411612115663047,0.8697642481116645,0.41199359121083035
1677618681532656,1.5411612115663047,0.9002822919051141,0.44251163500416624
1677618681548635,1.5106431677729688,0.8697642481116645,0.4730296787976158
1677618681564613,1.5716792553597543,0.8392462043183286,0.41199359121083035
1677618681580591,1.5716792553597543,0.8697642481116645,0.41199359121083035
1677618681596570,1.5411612115663047,0.93080033569845,0.41199359121083035
1677618681612548,1.5106431677729688,0.8697642481116645,0.41199359121083035
1677618681628509,1.5411612115663047,0.9002822919051141,0.44251163500416624
1677618681644487,1.5716792553597543,0.8697642481116645,0.41199359121083035
1677618681660466,1.5716792553597543,0.93080033569845,0.44251163500416624
1677618681676444,1.5716792553597543,0.9002822919051141,0.41199359121083035
1677618681692422,1.5411612115663047,0.8697642481116645,0.44251163500416624
1677618681708401,1.5716792553597543,0.8392462043183286,0.44251163500416624
1677618681724379,1.5716792553597543,0.8697642481116645,0.44251163500416624
1677618681740358,1.5106431677729688,0.8697642481116645,0.41199359121083035
1677618681756336,1.5106431677729688,0.8697642481116645,0.38147554741738077
1677618681772314,1.6021972991530902,0.9002822919051141,0.44251163500416624
1677618681788293,1.5716792553597543,0.9002822919051141,0.41199359121083035
1677618681804271,1.5411612115663047,0.8697642481116645,0.3509575036240449
1677618681820249,1.5106431677729688,0.8392462043183286,0.38147554741738077
1677618681836228,1.5106431677729688,0.9002822919051141,0.41199359121083035
1677618681852206,1.6021972991530902,0.9002822919051141,0.41199359121083035
1677618681868184,1.5716792553597543,0.93080033569845,0.44251163500416624
1677618681884163,1.5716792553597543,0.8697642481116645,0.41199359121083035
1677618681900141,1.5411612115663047,0.9002822919051141,0.44251163500416624
1677618681916119,1.5716792553597543,0.8697642481116645,0.44251163500416624
1677618681932098,1.5411612115663047,0.8392462043183286,0.38147554741738077
1677618681948089,1.6021972991530902,0.8697642481116645,0.41199359121083035
1677618681964068,1.5106431677729688,0.93080033569845,0.41199359121083035
1677618681980046,1.5411612115663047,0.93080033569845,0.41199359121083035
1677618681996024,1.5106431677729688,0.93080033569845,0.41199359121083035
1677618682012003,1.5106431677729688,0.8697642481116645,0.41199359121083035
1677618682027981,1.5716792553597543,0.93080033569845,0.44251163500416624
1677618682043959,1.5411612115663047,0.9002822919051141,0.4730296787976158
1677618682059938,1.5716792553597543,0.93080033569845,0.41199359121083035
1677618682075916,1.5716792553597543,0.9002822919051141,0.38147554741738077
1677618682091894,1.6327153429465397,0.8697642481116645,0.44251163500416624
1677618682107873,1.5716792553597543,0.9002822919051141,0.44251163500416624
1677618682123851,1.5716792553597543,0.9002822919051141,0.44251163500416624
1677618682139829,1.5716792553597543,0.9002822919051141,0.38147554741738077
1677618682155808,1.6021972991530902,0.8392462043183286,0.41199359121083035
1677618682171786,1.5411612115663047,0.8697642481116645,0.41199359121083035
1677618682187764,1.5716792553597543,0.8697642481116645,0.38147554741738077
1677618682203743,1.6021972991530902,0.8697642481116645,0.41199359121083035
1677618682219721,1.5716792553597543,0.8392462043183286,0.44251163500416624
1677618682235699,1.5716792553597543,0.9002822919051141,0.4730296787976158
1677618682251678,1.5411612115663047,0.9002822919051141,0.38147554741738077
1677618682267669,1.5716792553597543,0.8697642481116645,0.38147554741738077
1677618682283648,1.5716792553597543,0.8697642481116645,0.38147554741738077
1677618682299626,1.5106431677729688,0.9002822919051141,0.44251163500416624
1677618682315604,1.5716792553597543,0.93080033569845,0.4730296787976158
1677618682331583,1.5716792553597543,0.9002822919051141,0.44251163500416624
1677618682347561,1.5716792553597543,0.8697642481116645,0.44251163500416624
1677618682363539,1.5716792553597543,0.8697642481116645,0.4730296787976158
1677618682379518,1.6021972991530902,0.93080033569845,0.44251163500416624
1677618682395496,1.5716792553597543,0.9002822919051141,0.4730296787976158
1677618682411474,1.5716792553597543,0.8697642481116645,0.5340657663844013
1677618682427453,1.6021972991530902,0.8697642481116645,0.4730296787976158
1677618682443431,1.6021972991530902,0.9002822919051141,0.44251163500416624
1677618682459409,1.5716792553597543,0.8697642481116645,0.41199359121083035
1677618682475388,1.6021972991530902,0.8697642481116645,0.38147554741738077
1677618682491366,1.5716792553597543,0.8392462043183286,0.38147554741738077
1677618682507344,1.5716792553597543,0.9002822919051141,0.41199359121083035
1677618682523323,1.5716792553597543,0.8392462043183286,0.38147554741738077
1677618682539301,1.5411612115663047,0.8697642481116645,0.44251163500416624
1677618682555279,1.6021972991530902,0.8697642481116645,0.3509575036240449
1677618682571258,1.6021972991530902,0.9613183794918996,0.44251163500416624
1677618682587249,1.5106431677729688,0.93080033569845,0.38147554741738077
1677618682603228,1.5716792553597543,0.9002822919051141,0.38147554741738077
1677618682619206,1.5716792553597543,0.9002822919051141,0.38147554741738077
1677618682635184,1.5411612115663047,0.9002822919051141,0.38147554741738077
1677618682651163,1.5411612115663047,0.8697642481116645,0.38147554741738077
1677618682667141,1.5411612115663047,0.9002822919051141,0.38147554741738077
1677618682683119,1.5716792553597543,0.93080033569845,0.44251163500416624
1677618682699098,1.5716792553597543,0.8697642481116645,0.41199359121083035
1677618682715076,1.5106431677729688,0.9002822919051141,0.44251163500416624
1677618682731054,1.5716792553597543,0.9002822919051141,0.4730296787976158
1677618682747033,1.5411612115663047,0.8087281605248791,0.4730296787976158
1677618682763011,1.4801251239795192,0.9002822919051141,0.44251163500416624
1677618682778989,1.5106431677729688,0.8697642481116645,0.44251163500416624
1677618682794968,1.5716792553597543,0.9002822919051141,0.38147554741738077
1677618682810946,1.5411612115663047,0.93080033569845,0.3509575036240449
1677618682826924,1.5106431677729688,0.9002822919051141,0.44251163500416624
1677618682842903,1.5106431677729688,0.8392462043183286,0.41199359121083035
1677618682858881,1.5716792553597543,0.8087281605248791,0.41199359121083035
1677618682874859,1.5411612115663047,0.8697642481116645,0.44251163500416624
1677618682890838,1.5411612115663047,0.8697642481116645,0.44251163500416624
1677618682906799,1.5411612115663047,0.8392462043183286,0.4730296787976158
1677618682922777,1.5716792553597543,0.8392462043183286,0.3509575036240449
1677618682938756,1.6021972991530902,0.9002822919051141,0.41199359121083035
1677618682954734,1.5716792553597543,0.93080033569845,0.44251163500416624
1677618682970712,1.5716792553597543,0.93080033569845,0.44251163500416624
1677618682986691,1.6021972991530902,0.8392462043183286,0.41199359121083035
1677618683002669,1.5716792553597543,0.8697642481116645,0.44251163500416624
1677618683018647,1.5411612115663047,0.8697642481116645,0.41199359121083035
1677618683034626,1.5106431677729688,0.8697642481116645,0.3509575036240449
1677618683050604,1.5411612115663047,0.9002822919051141,0.41199359121083035
1677618683066582,1.5716792553597543,0.9002822919051141,0.44251163500416624
1677618683082561,1.4801251239795192,0.9002822919051141,0.4730296787976158
1677618683098539,1.5411612115663047,0.93080033569845,0.44251163500416624
1677618683114517,1.5716792553597543,0.9002822919051141,0.44251163500416624
1677618683130496,1.5411612115663047,0.8697642481116645,0.41199359121083035
1677618683146474,1.5716792553597543,0.93080033569845,0.3509575036240449
1677618683162452,1.6021972991530902,0.93080033569845,0.3204394598305953
1677618683178431,1.5716792553597543,0.8697642481116645,0.41199359121083035
1677618683194409,1.5716792553597543,0.8697642481116645,0.41199359121083035
1677618683210387,1.5411612115663047,0.8697642481116645,0.38147554741738077
1677618683226379,1.6021972991530902,0.9002822919051141,0.44251163500416624
1677618683242357,1.5411612115663047,0.9002822919051141,0.41199359121083035
1677618683258336,1.6021972991530902,0.93080033569845,0.44251163500416624
1677618683274314,1.5411612115663047,0.93080033569845,0.41199359121083035
1677618683290292,1.5411612115663047,0.93080033569845,0.41199359121083035
1677618683306271,1.5716792553597543,0.8697642481116645,0.44251163500416624
1677618683322249,1.5716792553597543,0.8087281605248791,0.5035477225909517
1677618683338227,1.5716792553597543,0.8392462043183286,0.44251163500416624
1677618683354206,1.5716792553597543,0.8697642481116645,0.5035477225909517
1677618683370184,1.5716792553597543,0.8392462043183286,0.4730296787976158
1677618683386162,1.5411612115663047,0.8392462043183286,0.44251163500416624
1677618683402141,1.5411612115663047,0.8697642481116645,0.44251163500416624
1677618683418119,1.5411612115663047,0.8697642481116645,0.44251163500416624
1677618683434097,1.5716792553597543,0.8697642481116645,0.44251163500416624
1677618683450076,1.6021972991530902,0.8697642481116645,0.44251163500416624
1677618683466054,1.6021972991530902,0.9002822919051141,0.44251163500416624
1677618683482032,1.5411612115663047,0.8697642481116645,0.38147554741738077
1677618683498011,1.6021972991530902,0.8392462043183286,0.41199359121083035
1677618683513989,1.5716792553597543,0.93080033569845,0.38147554741738077
1677618683529967,1.5716792553597543,0.93080033569845,0.41199359121083035
1677618683545929,1.5411612115663047,0.9002822919051141,0.41199359121083035
1677618683561907,1.5411612115663047,0.9002822919051141,0.41199359121083035
1677618683577885,1.5411612115663047,0.8392462043183286,0.41199359121083035
1677618683593864,1.5411612115663047,0.93080033569845,0.38147554741738077
1677618683609842,1.5106431677729688,0.9002822919051141,0.41199359121083035
1677618683625820,1.5411612115663047,0.8697642481116645,0.44251163500416624
1677618683641799,1.5411612115663047,0.9002822919051141,0.44251163500416624
1677618683657777,1.5411612115663047,0.9613183794918996,0.38147554741738077
1677618683673755,1.5716792553597543,0.9002822919051141,0.41199359121083035
1677618683689734,1.5716792553597543,0.8392462043183286,0.44251163500416624
1677618683705712,1.6021972991530902,0.8392462043183286,0.44251163500416624
1677618683721690,1.6021972991530902,0.8697642481116645,0.4730296787976158
1677618683737669,1.5716792553597543,0.93080033569845,0.4730296787976158
1677618683753647,1.6021972991530902,0.9918364232852355,0.44251163500416624
1677618683769625,1.6021972991530902,0.9613183794918996,0.44251163500416624
1677618683785604,1.6021972991530902,0.9613183794918996,0.41199359121083035
1677618683801582,1.6021972991530902,0.93080033569845,0.41199359121083035
1677618683817560,1.6021972991530902,0.8697642481116645,0.41199359121083035
1677618683833539,1.5716792553597543,0.8697642481116645,0.44251163500416624
1677618683849517,1.5106431677729688,0.8697642481116645,0.41199359121083035
1677618683865509,1.5106431677729688,0.9613183794918996,0.41199359121083035
1677618683881487,1.5411612115663047,0.8697642481116645,0.41199359121083035
1677618683897465,1.5106431677729688,0.9002822919051141,0.41199359121083035
1677618683913444,1.5716792553597543,0.8697642481116645,0.41199359121083035
1677618683929422,1.5716792553597543,0.93080033569845,0.38147554741738077
1677618683945400,1.5716792553597543,0.93080033569845,0.44251163500416624
1677618683961379,1.5411612115663047,0.9002822919051141,0.41199359121083035
1677618683977357,1.5411612115663047,0.8697642481116645,0.44251163500416624
1677618683993335,1.5106431677729688,0.9002822919051141,0.44251163500416624
1677618684009314,1.5716792553597543,0.9002822919051141,0.44251163500416624
1677618684025292,1.5716792553597543,0.8392462043183286,0.4730296787976158
1677618684041270,1.5411612115663047,0.9002822919051141,0.38147554741738077
1677618684057249,1.5411612115663047,0.9002822919051141,0.3509575036240449
1677618684073227,1.5716792553597543,0.9002822919051141,0.44251163500416624
1677618684089205,1.5411612115663047,0.8392462043183286,0.44251163500416624
1677618684105184,1.5411612115663047,0.9002822919051141,0.5035477225909517
1677618684121162,1.5716792553597543,0.9002822919051141,0.38147554741738077
1677618684137140,1.5411612115663047,0.9002822919051141,0.41199359121083035
1677618684153119,1.6021972991530902,0.8392462043183286,0.3509575036240449
1677618684169097,1.6327153429465397,0.8392462043183286,0.44251163500416624
1677618684185058,1.5716792553597543,0.9002822919051141,0.44251163500416624
1677618684201037,1.5716792553597543,0.93080033569845,0.38147554741738077
1677618684217015,1.5716792553597543,0.9002822919051141,0.38147554741738077
1677618684232993,1.5106431677729688,0.9613183794918996,0.44251163500416624
1677618684248972,1.5716792553597543,0.9613183794918996,0.41199359121083035
1677618684264950,1.5716792553597543,0.93080033569845,0.38147554741738077
1677618684280928,1.6327153429465397,0.8697642481116645,0.41199359121083035
1677618684296907,1.6327153429465397,0.9002822919051141,0.41199359121083035
1677618684312885,1.5411612115663047,0.9002822919051141,0.38147554741738077
1677618684328863,1.5106431677729688,0.8697642481116645,0.44251163500416624
1677618684344842,1.5106431677729688,0.8697642481116645,0.44251163500416624
1677618684360820,1.5411612115663047,0.8697642481116645,0.38147554741738077
1677618684376798,1.5106431677729688,0.9002822919051141,0.44251163500416624
1677618684392777,1.5411612115663047,0.9002822919051141,0.41199359121083035
1677618684408755,1.6021972991530902,0.8697642481116645,0.4730296787976158
1677618684424733,1.5411612115663047,0.8697642481116645,0.4730296787976158
1677618684440712,1.5716792553597543,0.8697642481116645,0.44251163500416624
1677618684456690,1.6021972991530902,0.8697642481116645,0.41199359121083035
1677618684472668,1.5716792553597543,0.8087281605248791,0.44251163500416624
1677618684488647,1.5716792553597543,0.8392462043183286,0.4730296787976158
1677618684504638,1.5716792553597543,0.8697642481116645,0.4730296787976158
1677618684520617,1.6021972991530902,0.9002822919051141,0.3509575036240449
1677618684536595,1.5716792553597543,0.8697642481116645,0.41199359121083035
1677618684552573,1.5106431677729688,0.8697642481116645,0.44251163500416624
1677618684568552,1.4801251239795192,0.8697642481116645,0.3509575036240449
1677618684584530,1.5106431677729688,0.8697642481116645,0.41199359121083035
1677618684600508,1.5716792553597543,0.8697642481116645,0.41199359121083035
1677618684616487,1.5411612115663047,0.9002822919051141,0.41199359121083035
1677618684632465,1.5411612115663047,0.8697642481116645,0.38147554741738077
1677618684648443,1.5716792553597543,0.8697642481116645,0.38147554741738077
1677618684664422,1.5716792553597543,0.8697642481116645,0.38147554741738077
1677618684680400,1.5411612115663047,0.9002822919051141,0.3204394598305953
1677618684696378,1.5716792553597543,0.9002822919051141,0.41199359121083035
1677618684712357,1.5716792553597543,0.9613183794918996,0.44251163500416624
1677618684728335,1.5411612115663047,0.93080033569845,0.41199359121083035
1677618684744313,1.5411612115663047,0.9613183794918996,0.38147554741738077
1677618684760292,1.6021972991530902,0.9613183794918996,0.44251163500416624
1677618684776270,1.5716792553597543,0.9002822919051141,0.4730296787976158
1677618684792248,1.6021972991530902,0.8392462043183286,0.4730296787976158
1677618684808227,1.6021972991530902,0.8697642481116645,0.44251163500416624
1677618684824188,1.5411612115663047,0.9002822919051141,0.4730296787976158
1677618684840166,1.5411612115663047,0.93080033569845,0.38147554741738077
1677618684856145,1.5411612115663047,0.8697642481116645,0.41199359121083035
1677618684872123,1.5716792553597543,0.8392462043183286,0.44251163500416624
1677618684888101,1.5106431677729688,0.8697642481116645,0.38147554741738077
1677618684904080,1.5106431677729688,0.9002822919051141,0.44251163500416624
1677618684920058,1.5106431677729688,0.8697642481116645,0.41199359121083035
1677618684936036,1.5716792553597543,0.8392462043183286,0.38147554741738077
1677618684952015,1.5411612115663047,0.8392462043183286,0.41199359121083035
1677618684967993,1.5716792553597543,0.8392462043183286,0.41199359121083035
1677618684983971,1.5106431677729688,0.9002822919051141,0.44251163500416624
1677618684999950,1.5411612115663047,0.8697642481116645,0.41199359121083035
1677618685015928,1.5716792553597543,0.8697642481116645,0.44251163500416624
1677618685031906,1.5716792553597543,0.9002822919051141,0.41199359121083035
1677618685047885,1.5716792553597543,0.9002822919051141,0.3509575036240449
1677618685063863,1.5411612115663047,0.8697642481116645,0.3509575036240449
1677618685079841,1.5716792553597543,0.93080033569845,0.38147554741738077
1677618685095820,1.6327153429465397,0.93080033569845,0.44251163500416624
1677618685111798,1.5716792553597543,0.9002822919051141,0.41199359121083035
1677618685127776,1.5716792553597543,0.9002822919051141,0.41199359121083035
1677618685143768,1.5716792553597543,0.9002822919051141,0.44251163500416624
1677618685159746,1.5411612115663047,0.9613183794918996,0.41199359121083035
1677618685175725,1.5411612115663047,0.9002822919051141,0.38147554741738077
1677618685191703,1.5411612115663047,0.8697642481116645,0.38147554741738077
1677618685207681,1.5411612115663047,0.9002822919051141,0.38147554741738077
1677618685223660,1.5716792553597543,0.8697642481116645,0.41199359121083035
1677618685239638,1.5716792553597543,0.8697642481116645,0.41199359121083035
1677618685255616,1.6021972991530902,0.9002822919051141,0.41199359121083035
1677618685271595,1.6021972991530902,0.8697642481116645,0.38147554741738077
1677618685287573,1.5411612115663047,0.8697642481116645,0.41199359121083035
1677618685303551,1.5411612115663047,0.8392462043183286,0.38147554741738077
1677618685319530,1.5716792553597543,0.8697642481116645,0.38147554741738077
1677618685335508,1.6021972991530902,0.9002822919051141,0.38147554741738077
1677618685351486,1.4801251239795192,0.93080033569845,0.44251163500416624
1677618685367465,1.4801251239795192,0.93080033569845,0.41199359121083035
1677618685383443,1.5716792553597543,0.9002822919051141,0.44251163500416624
1677618685399421,1.5411612115663047,0.9002822919051141,0.38147554741738077
1677618685415400,1.5716792553597543,0.9002822919051141,0.41199359121083035
1677618685431378,1.5716792553597543,0.8697642481116645,0.41199359121083035
1677618685447356,1.5716792553597543,0.8697642481116645,0.3509575036240449
1677618685463317,1.5411612115663047,0.8392462043183286,0.44251163500416624
1677618685479296,1.5411612115663047,0.9002822919051141,0.44251163500416624
1677618685495274,1.5716792553597543,0.9002822919051141,0.41199359121083035
1677618685511253,1.5716792553597543,0.9002822919051141,0.44251163500416624
1677618685527231,1.5716792553597543,0.8697642481116645,0.44251163500416624
1677618685543209,1.5106431677729688,0.9002822919051141,0.41199359121083035
1677618685559188,1.5106431677729688,0.8697642481116645,0.41199359121083035
1677618685575166,1.5411612115663047,0.8697642481116645,0.4730296787976158
1677618685591144,1.5106431677729688,0.9002822919051141,0.41199359121083035
1677618685607123,1.5411612115663047,0.9002822919051141,0.44251163500416624
1677618685623101,1.5106431677729688,0.9002822919051141,0.44251163500416624
1677618685639079,1.5106431677729688,0.8392462043183286,0.41199359121083035
1677618685655058,1.5716792553597543,0.8697642481116645,0.44251163500416624
1677618685671036,1.5716792553597543,0.93080033569845,0.41199359121083035
1677618685687014,1.6021972991530902,0.9002822919051141,0.41199359121083035
1677618685702993,1.6327153429465397,0.9002822919051141,0.41199359121083035
1677618685718971,1.5716792553597543,0.93080033569845,0.41199359121083035
1677618685734949,1.6021972991530902,0.9613183794918996,0.38147554741738077
1677618685750928,1.5411612115663047,0.9002822919051141,0.44251163500416624
1677618685766906,1.6021972991530902,0.8392462043183286,0.38147554741738077
1677618685782898,1.5716792553597543,0.8697642481116645,0.41199359121083035
1677618685798876,1.5716792553597543,0.8697642481116645,0.41199359121083035
1677618685814854,1.5716792553597543,0.8697642481116645,0.41199359121083035
1677618685830833,1.5716792553597543,0.8392462043183286,0.38147554741738077
1677618685846811,1.5716792553597543,0.8697642481116645,0.44251163500416624
1677618685862789,1.5411612115663047,0.93080033569845,0.44251163500416624
1677618685878768,1.5716792553597543,0.8697642481116645,0.41199359121083035
1677618685894746,1.5716792553597543,0.9002822919051141,0.44251163500416624
1677618685910724,1.5411612115663047,0.9002822919051141,0.41199359121083035
1677618685926703,1.5106431677729688,0.8697642481116645,0.44251163500416624
1677618685942681,1.5716792553597543,0.8697642481116645,0.44251163500416624
1677618685958659,1.6327153429465397,0.9002822919051141,0.4730296787976158
1677618685974638,1.6021972991530902,0.9002822919051141,0.41199359121083035
1677618685990616,1.5716792553597543,0.93080033569845,0.44251163500416624
1677618686006594,1.6327153429465397,0.8697642481116645,0.44251163500416624
1677618686022573,1.6021972991530902,0.8087281605248791,0.44251163500416624
1677618686038551,1.6021972991530902,0.8087281605248791,0.41199359121083035
1677618686054529,1.6021972991530902,0.93080033569845,0.44251163500416624
1677618686070508,1.5411612115663047,0.9002822919051141,0.4730296787976158
1677618686086486,1.5716792553597543,0.8697642481116645,0.41199359121083035
1677618686102447,1.5716792553597543,0.9002822919051141,0.44251163500416624
1677618686118425,1.6021972991530902,0.9002822919051141,0.4730296787976158
1677618686134404,1.5411612115663047,0.9002822919051141,0.5035477225909517
1677618686150382,1.5106431677729688,0.93080033569845,0.4730296787976158
1677618686166360,1.5411612115663047,0.93080033569845,0.41199359121083035
1677618686182339,1.5716792553597543,0.9002822919051141,0.38147554741738077
1677618686198317,1.5716792553597543,0.9002822919051141,0.44251163500416624
1677618686214295,1.6021972991530902,0.8392462043183286,0.44251163500416624
1677618686230274,1.5716792553597543,0.8392462043183286,0.38147554741738077
1677618686246252,1.5411612115663047,0.9002822919051141,0.38147554741738077
1677618686262230,1.5411612115663047,0.9002822919051141,0.3509575036240449
1677618686278209,1.5106431677729688,0.8697642481116645,0.44251163500416624
1677618686294187,1.5716792553597543,0.8392462043183286,0.38147554741738077
1677618686310166,1.6021972991530902,0.8392462043183286,0.4730296787976158
1677618686326144,1.6327153429465397,0.93080033569845,0.44251163500416624
1677618686342122,1.6021972991530902,0.9002822919051141,0.44251163500416624
1677618686358101,1.5716792553597543,0.93080033569845,0.41199359121083035
1677618686374079,1.5411612115663047,0.9002822919051141,0.44251163500416624
1677618686390057,1.5411612115663047,0.9002822919051141,0.41199359121083035
1677618686406036,1.5716792553597543,0.9002822919051141,0.41199359121083035
1677618686422027,1.6021972991530902,0.8392462043183286,0.41199359121083035
1677618686438006,1.6021972991530902,0.93080033569845,0.41199359121083035
1677618686453984,1.5716792553597543,0.9002822919051141,0.41199359121083035
1677618686469962,1.5411612115663047,0.93080033569845,0.38147554741738077
1677618686485941,1.6021972991530902,0.9002822919051141,0.44251163500416624
1677618686501919,1.5411612115663047,0.8697642481116645,0.4730296787976158
1677618686517897,1.6327153429465397,0.9002822919051141,0.44251163500416624
1677618686533876,1.5716792553597543,0.8392462043183286,0.41199359121083035
1677618686549854,1.5716792553597543,0.8697642481116645,0.44251163500416624
1677618686565832,1.5716792553597543,0.9002822919051141,0.44251163500416624
1677618686581811,1.6327153429465397,0.8697642481116645,0.41199359121083035
1677618686597789,1.6021972991530902,0.8392462043183286,0.4730296787976158
1677618686613767,1.6021972991530902,0.8697642481116645,0.4730296787976158
1677618686629746,1.6021972991530902,0.9002822919051141,0.4730296787976158
1677618686645724,1.5716792553597543,0.9002822919051141,0.44251163500416624
1677618686661702,1.6327153429465397,0.8697642481116645,0.41199359121083035
1677618686677681,1.5716792553597543,0.8697642481116645,0.4730296787976158
1677618686693659,1.5716792553597543,0.8697642481116645,0.44251163500416624
1677618686709637,1.5716792553597543,0.9002822919051141,0.44251163500416624
1677618686725616,1.5716792553597543,0.9002822919051141,0.44251163500416624
1677618686741607,1.6021972991530902,0.9002822919051141,0.41199359121083035
1677618686757586,1.6327153429465397,0.8697642481116645,0.41199359121083035
1677618686773564,1.6327153429465397,0.8697642481116645,0.41199359121083035
1677618686789542,1.6021972991530902,0.8697642481116645,0.41199359121083035
1677618686805521,1.5716792553597543,0.93080033569845,0.44251163500416624
1677618686821499,1.5411612115663047,0.8697642481116645,0.4730296787976158
1677618686837477,1.5716792553597543,0.9002822919051141,0.41199359121083035
1677618686853456,1.6021972991530902,0.8697642481116645,0.44251163500416624
