Timestamp (microseconds),Accel X (g),Accel Y (g),Accel Z (g)
1682104747953521,-0.25690089265278093,0.6325169756618605,0.7565423056382086
1682104747969522,-0.24835584039063097,0.6148165102616918,0.749584191653315
1682104747985522,-0.23993286030365457,0.5922331578545812,0.7383535515373465
1682104748001522,-0.2330968184939346,0.5783169298847941,0.7394522011139086
1682104748017522,-0.22479591058213177,0.5591515983825435,0.7291981383993287
1682104748033523,-0.21930266269932108,0.5475547417410542,0.7244373235675594
1682104748049523,-0.22772564278629748,0.54193942168307,0.7291981383993287
1682104748065523,-0.22394140535591678,0.5383993286030364,0.725413900968948
1682104748081524,-0.24249637598229956,0.5536583504997328,0.759838254367895
1682104748097524,-0.21722743572137038,0.5501182574196992,0.7350576028076601
1682104748113524,-0.21551842526894038,0.5386434729533836,0.7361562523842222
1682104748129524,-0.21771572442206466,0.5614709697108413,0.7549553673609521
1682104748145525,-0.2229648279545282,0.5525597009231706,0.7636224917982757
1682104748161525,-0.21820401312275894,0.5831998168917369,0.7747310597390706
1682104748177525,-0.2246738384069582,0.5950408178835733,0.7812008850232699
1682104748193525,-0.23248645761806674,0.5791714351110091,0.784008545052262
1682104748209526,-0.23590447852292673,0.6154268711375597,0.8025635156786448
1682104748225526,-0.21100175478751826,0.6261692225528348,0.7676508735790035
1682104748241526,-0.22162203402761893,0.6102998397802697,0.7841306172274356
1682104748257526,-0.23578240634775316,0.6006561379415576,0.782299534599832
1682104748273559,-0.23993286030365457,0.6034637979705497,0.7752193484397649
1682104748289559,-0.24420538643472955,0.6033417257953761,0.763256275272755
1682104748305560,-0.2439612420843824,0.5956511787594412,0.7528801403830014
1682104748321560,-0.25006485084306096,0.5860074769207291,0.7439688715953308
1682104748337560,-0.26056305790798806,0.5718471046005948,0.7276112001220723
1682104748353561,-0.2670328831921873,0.5578088044556342,0.7036850537880524
1682104748369561,-0.27570000762951086,0.5523155565728235,0.6940413519493402
1682104748385561,-0.2973067826352329,0.5457236591134507,0.6905012588693067
1682104748401561,-0.3065842679484243,0.5499961852445256,0.7047837033646145
1682104748417562,-0.312077515831235,0.566964217593652,0.7320057984283208
1682104748433562,-0.31952391851682327,0.5905241474021512,0.7353017471580072
1682104748449562,-0.31122301060502,0.6218966964217589,0.719432364385443
1682104748465562,-0.31842526894026113,0.6298313878080419,0.7201647974364844
1682104748481563,-0.33087663080796537,0.6186007476920725,0.7287098496986344
1682104748497563,-0.3299000534065768,0.612497138933394,0.7267566948958573
1682104748513563,-0.318181124589914,0.6143282215609975,0.7099107347219045
1682104748529564,-0.3202563515678647,0.609079118028534,0.7055161364156559
1682104748545564,-0.3335622186617839,0.5993133440146483,0.7027084763866638
1682104748561564,-0.3390554665445946,0.5939421683070112,0.691844052796216
1682104748577564,-0.34027618829633033,0.6009002822919047,0.7196765087357901
1682104748593567,-0.33270771343556893,0.6023651483939876,0.7317616540779737
1682104748609567,-0.33344014648661036,0.6041962310215911,0.7310292210269322
1682104748625567,-0.32501716639963396,0.5980926222629126,0.7320057984283208
1682104748641567,-0.3303883421072711,0.6104219119554433,0.7366445410849165
1682104748657568,-0.3613946746013581,0.5880827038986798,0.7486076142519265
1682104748673568,-0.3689631494621195,0.5783169298847941,0.7587396047913328
1682104748689568,-0.3682307164110781,0.5675745784695199,0.7548332951857786
1682104748705568,-0.350896467536431,0.6162813763637747,0.7510490577553979
1682104748721569,-0.3865415426871137,0.5994354161898219,0.7394522011139086
1682104748737569,-0.391302357518883,0.5999237048905162,0.7423819333180743
1682104748753569,-0.38263523308155944,0.5947966735332262,0.7548332951857786
1682104748769569,-0.3749446860456245,0.5895475700007626,0.7720454718852521
1682104748785570,-0.3694514381628138,0.5839322499427784,0.7787594415197985
1682104748801570,-0.3591973754482338,0.5885709925993741,0.7849851224536506
1682104748817570,-0.3673762111848631,0.5882047760738534,0.7736324101625085
1682104748833571,-0.3883726253147173,0.5825894560158691,0.7716792553597314
1682104748849571,-0.40814831769283577,0.5684290836957349,0.7644769970244907
1682104748865571,-0.40863660639353006,0.5786831464103148,0.7416495002670329
1682104748881571,-0.41718165865568,0.5777065690089263,0.7133287556267645
1682104748897572,-0.38886091401541156,0.6029755092698554,0.6902571145189595
1682104748913604,-0.4097352559700922,0.5687953002212556,0.6830548561837189
1682104748929605,-0.3971618219272144,0.5723353933012891,0.6895246814679181
1682104748945605,-0.3770199130235752,0.5565880827038985,0.7053940642404823
1682104748961605,-0.36420233463035023,0.5507286182955671,0.7154039826047152
1682104748977605,-0.3572442206454567,0.5753871976806284,0.7475089646753643
1682104748993606,-0.3591973754482338,0.5751430533302813,0.758129243915465
1682104749009606,-0.3563897154192417,0.5752651255054548,0.74702067597467
1682104749025606,-0.34186312657358675,0.573800259403372,0.7447013046463722
1682104749041607,-0.39105821316853584,0.6485084306095983,0.7201647974364844
1682104749057607,-0.34271763179980175,0.5347371633478293,0.690135042343786
1682104749073607,-0.355168993667506,0.539375906004425,0.671335927367056
1682104749089607,-0.3673762111848631,0.5330281528953993,0.6680399786373696
1682104749105608,-0.38934920271610585,0.5468223086900128,0.6800030518043796
1682104749121608,-0.3862973983367666,0.5586633096818492,0.682444495307851
1682104749137608,-0.3764095521477073,0.5750209811551077,0.6840314335851074
1682104749153608,-0.3799496452277409,0.582345311665522,0.6879377431906617
1682104749169609,-0.3753109025711452,0.5863736934462498,0.6906233310444803
1682104749185609,-0.3732356755931945,0.5817349507896541,0.6962386511024645
1682104749201609,-0.36408026245517666,0.5769741359578848,0.6991683833066302
1682104749217610,-0.3646906233310445,0.5864957656214234,0.7106431677729459
1682104749233673,-0.3673762111848631,0.5960173952849619,0.716014343480583
1682104749249673,-0.36542305638208594,0.6017547875181197,0.7200427252613109
1682104749265674,-0.3696955825131609,0.6015106431677726,0.722850385290303
1682104749281675,-0.3659113450827802,0.6151827267872125,0.7166247043564509
1682104749297676,-0.36115053025101096,0.615060654612039,0.7085679407949952
1682104749313676,-0.3610284580758374,0.6100556954299226,0.7062485694666973
1682104749329677,-0.36078431372549025,0.593698023956664,0.7068589303425652
1682104749345678,-0.36029602502479596,0.5783169298847941,0.7034409094377052
1682104749361679,-0.3698176546883345,0.565255207141222,0.7018539711604488
1682104749377679,-0.3722590981918059,0.5646448462653542,0.6934309910734724
1682104749393680,-0.36420233463035023,0.569527733272297,0.6808575570305946
1682104749409681,-0.3621271076523995,0.5740444037537191,0.6660868238345925
1682104749425682,-0.3660334172579538,0.5611047531853206,0.6537575341420618
1682104749441682,-0.3701838712138552,0.5559777218280306,0.6382543678950183
1682104749457683,-0.384466315709163,0.5458457312886242,0.6216525520714118
1682104749473684,-0.4013122758831158,0.5531700617990385,0.6106660563057904
1682104749489685,-0.3954528114747844,0.5696498054474706,0.6040741588464176
1682104749505685,-0.392156862745098,0.5963836118104826,0.5995574883649955
1682104749521686,-0.40277714198519865,0.6276340886549177,0.5456015869382771
1682104749537687,-0.3975280384527351,0.6752422369726103,0.5448691538872357
1682104749553711,-0.4293888761730371,0.7295643549248494,0.5530479896238649
1682104749569711,-0.4451361867704282,0.7580071717402914,0.5681849393453877
1682104749585712,-0.45136186770428033,0.7943846799420156,0.5871061264972912
1682104749601713,-0.45539024948500817,0.8330815594720375,0.605661097123674
1682104749617714,-0.4549019607843139,0.8662851911192488,0.6134737163347825
1682104749633714,-0.4498970016021975,0.8861829556725418,0.6231174181734946
1682104749649715,-0.4414740215152211,0.8939955748836503,0.6371557183184562
1682104749665716,-0.4285343709468221,0.8703135728999767,0.645456626230259
1682104749681717,-0.4033875028610665,0.839795529106584,0.6406958113984897
1682104749697717,-0.3832455939574273,0.7918211642633706,0.6260471503776612
1682104749713718,-0.37714198519874875,0.7401846341649501,0.6303196765087362
1682104749729719,-0.3732356755931945,0.6856183718623639,0.6422827496757462
1682104749745720,-0.36408026245517666,0.6455786984054326,0.6518043793392847
1682104749761720,-0.33942168307011533,0.626413366903182,0.6344701304646376
1682104749777721,-0.30548561837186217,0.6189669642175932,0.6212863355458911
1682104749793722,-0.2842450598916608,0.6161593041886011,0.6210421911955439
1682104749809723,-0.2730144197756923,0.6079804684519718,0.6161593041886011
1682104749825723,-0.27826352330815585,0.6040741588464176,0.6203097581445025
1682104749841724,-0.281925688563363,0.596261539635309,0.6244602121004039
1682104749857725,-0.29547570000762935,0.593698023956664,0.6421606775005726
1682104749873748,-0.31293202105745044,0.6166475928892954,0.6662088960097661
1682104749889749,-0.3294117647058825,0.637766079194324,0.677317463950561
1682104749905750,-0.3476005188067446,0.6748760204470896,0.6718242160677503
1682104749921751,-0.357732509346151,0.7152819104295416,0.6681620508125432
1682104749937751,-0.3663996337834745,0.7460440985732815,0.6624246585793854
1682104749953752,-0.37091630426489663,0.7678950179293507,0.658274204623484
1682104749969753,-0.3663996337834745,0.7781490806439306,0.6511940184634168
1682104749985754,-0.36285954070344095,0.7755855649652856,0.6467994201571683
1682104750001754,-0.3579766536964981,0.7728999771114671,0.6547341115434504
1682104750017755,-0.356878004119936,0.7577630273899443,0.6419165331502255
1682104750033756,-0.3622491798275731,0.7455558098725872,0.6366674296177619
1682104750049757,-0.3689631494621195,0.7178454261081866,0.6199435416189818
1682104750065757,-0.37286945906767377,0.691844052796216,0.6001678492408633
1682104750081758,-0.37506675822079805,0.6706034943160146,0.5929655909056226
1682104750097759,-0.37848477912565803,0.655710688944839,0.5790493629358355
1682104750113760,-0.3877622644388494,0.639475089646754,0.566964217593652
1682104750129760,-0.39472037842374297,0.6342259861142905,0.5502403295948728
1682104750145761,-0.3992370489051651,0.6364232852674148,0.52997634851606
1682104750161762,-0.39740596627756153,0.6524147402151526,0.5029983978027008
1682104750177763,-0.42169832913710215,0.6939192797741667,0.468818188754101
1682104750193817,-0.38348973830777444,0.6590066376745254,0.3690852216372926
1682104750209818,-0.44574654764629607,0.6800030518043796,0.5309529259174486
1682104750225819,-0.46759746700236526,0.6415503166247047,0.5272907606622415
1682104750241820,-0.4552681773098346,0.6549782558937975,0.5576867322804606
1682104750257822,-0.4264591439688714,0.7038071259632259,0.5706263828488591
1682104750273823,-0.3963073167009994,0.693553063248646,0.5016556038757916
1682104750289824,-0.3911802853437094,0.6845197222858017,0.5186236362249179
1682104750305825,-0.39691767757686724,0.678171969176776,0.5543907835507742
1682104750321827,-0.39264515144579226,0.6863508049134053,0.5554894331273363
1682104750337828,-0.3925230792706187,0.7047837033646145,0.5719691767757684
1682104750353829,-0.38812848096437014,0.7244373235675594,0.5513389791714349
1682104750369830,-0.39520866712443725,0.7216296635385673,0.5399862668802928
1682104750385831,-0.4047302967879758,0.7121080338750287,0.5255817502098115
1682104750401833,-0.4058289463645379,0.7188220035095751,0.5167925535973144
1682104750417834,-0.4087586785687036,0.7112535286488137,0.5158159761959258
1682104750433835,-0.41242084382391075,0.7101548790722516,0.5335164415960936
1682104750449836,-0.4186465247577629,0.7089341573205159,0.5430380712596321
1682104750465838,-0.42133211261158143,0.7144274052033266,0.5587853818570228
1682104750481839,-0.4133974212252993,0.713450827801938,0.5485313191424428
1682104750497840,-0.41071183337148076,0.721141374837873,0.5454795147631035
1682104750513824,-0.40619516289005864,0.7208972304875259,0.5341268024719614
1682104750529825,-0.40827038986800934,0.7041733424887466,0.5249713893339436
1682104750545827,-0.41571679255359717,0.7041733424887466,0.5296101319905393
1682104750561828,-0.42328526741435857,0.7154039826047152,0.5371786068513007
1682104750577829,-0.43903257801174966,0.715159838254368,0.5373006790264743
1682104750593830,-0.4442816815442132,0.7232166018158237,0.5724574654764627
1682104750609831,-0.4480659189745939,0.7282215609979401,0.564400701915007
1682104750625833,-0.44379339284351893,0.7265125505455101,0.5396200503547721
1682104750641834,-0.4413519493400475,0.7354238193331808,0.5287556267643243
1682104750657835,-0.4434271763179982,0.7255359731441215,0.5304646372167543
1682104750673836,-0.4501411459525446,0.7130846112764173,0.5452353704127564
1682104750689838,-0.44794384679942034,0.7243152513923858,0.5545128557259478
1682104750705839,-0.4452582589456018,0.7141832608529795,0.5625696192874035
1682104750721840,-0.4409857328145268,0.7146715495536737,0.5540245670252535
1682104750737841,-0.4469672693980318,0.7122301060502023,0.5536583504997328
1682104750753842,-0.4564888990615703,0.7013656824597545,0.559273670557717
1682104750769844,-0.4569771877622646,0.7011215381094074,0.5571984435797663
1682104750785845,-0.4507515068284125,0.7094224460212102,0.5471885252155335
1682104750801846,-0.4489204242008089,0.717723353933013,0.546211947814145
1682104750817847,-0.4536812390325782,0.7112535286488137,0.54023041123064
1682104750833862,-0.4641794460975053,0.7073472190432595,0.5437705043106735
1682104750849863,-0.4729686427100024,0.7113756008239873,0.5488975356679635
1682104750865864,-0.4769970244907302,0.7095445181963838,0.5491416800183107
1682104750881866,-0.4800488288700695,0.7096665903715573,0.5503624017700464
1682104750897867,-0.4831006332494088,0.7099107347219045,0.54535744258793
1682104750913868,-0.4850537880521859,0.7105210955977723,0.52826733806363
1682104750929869,-0.47895017929350736,0.7295643549248494,0.5335164415960936
1682104750945871,-0.46857404440375383,0.7401846341649501,0.5125200274662394
1682104750961872,-0.4694285496299688,0.7364003967345694,0.5131303883421072
1682104750977873,-0.47565423056382095,0.7172350652323187,0.5153276874952315
1682104750993874,-0.4738231479362174,0.7172350652323187,0.5226520180056458
1682104751009875,-0.4664988174258031,0.7195544365606166,0.5059281300068665
1682104751025877,-0.4741893644617381,0.7116197451743345,0.5121538109407187
1682104751041878,-0.4926222629129473,0.7042954146639202,0.5081254291599908
1682104751057879,-0.48395513847562377,0.7130846112764173,0.5018997482261387
1682104751073880,-0.4843213550011445,0.6999008163576717,0.5054398413061723
1682104751089882,-0.4859082932784009,0.6845197222858017,0.47235828183413453
1682104751105883,-0.4889600976577402,0.6813458457312889,0.4707713435568781
1682104751121884,-0.4892042420080873,0.6717021438925768,0.4740672922865645
1682104751137885,-0.48957045853360803,0.6814679179064624,0.4641794460975053
1682104751153900,-0.49323262378881516,0.6796368352788589,0.4733348592355231
1682104751169901,-0.49323262378881516,0.6883039597161824,0.498970016021973
1682104751185902,-0.4883497367818723,0.687571526665141,0.4973830777447166
1682104751201903,-0.4841992828259709,0.6863508049134053,0.493842984664683
1682104751217905,-0.47943846799420164,0.6922102693217367,0.4859082932784009
1682104751233906,-0.47980468451972236,0.6951400015259024,0.4994583047226673
1682104751249907,-0.48273441672388806,0.6957503624017702,0.5110551613641565
1682104751265908,-0.47907225146868093,0.707469291218433,0.5175249866483558
1682104751281910,-0.4729686427100024,0.7163805600061037,0.5186236362249179
1682104751297911,-0.46808575570305955,0.7206530861371787,0.5254596780346379
1682104751313912,-0.4573434042877853,0.7278553444724194,0.5112993057145037
1682104751329913,-0.4426947432669568,0.7240711070420387,0.5115434500648508
1682104751345914,-0.4417181658655682,0.7206530861371787,0.5119096665903715
1682104751361916,-0.45172808422980104,0.7031967650873581,0.5452353704127564
1682104751377917,-0.45246051728084247,0.6945296406500345,0.5542687113756006
1682104751393918,-0.44782177462424677,0.6999008163576717,0.5541466392004271
1682104751409919,-0.43097581445029354,0.7141832608529795,0.5355916685740443
1682104751425921,-0.4218204013122757,0.7213855191882201,0.5174029144731822
1682104751441922,-0.4235294117647057,0.7116197451743345,0.5253376058594643
1682104751457923,-0.4240177004654,0.6968490119783324,0.5263141832608529
1682104751473968,-0.4276798657206071,0.6886701762417031,0.5379110399023421
1682104751489969,-0.43305104142824424,0.690135042343786,0.5506065461203935
1682104751505971,-0.4370794232089721,0.6974593728542002,0.5579308766308078
1682104751521972,-0.43634699015793066,0.7101548790722516,0.5424277103837642
1682104751537973,-0.43598077363240995,0.7169909208819716,0.53168535896849
1682104751553974,-0.44281681544213036,0.7182116426337073,0.5269245441367207
1682104751569975,-0.44965285725185034,0.7123521782253759,0.5416952773327228
1682104751585977,-0.4452582589456018,0.7114976729991609,0.5340047302967879
1682104751601978,-0.43781185626001395,0.7191882200350959,0.5167925535973144
1682104751617979,-0.4389105058365761,0.7229724574654766,0.5319295033188371
1682104751633980,-0.44000915541313823,0.7162584878309302,0.5424277103837642
1682104751649982,-0.4501411459525446,0.7090562294956895,0.5458457312886242
1682104751665983,-0.4545357442587932,0.7124742504005495,0.5481651026169221
1682104751681984,-0.4498970016021975,0.7140611886778059,0.5237506675822079
1682104751697985,-0.4566109712367439,0.7146715495536737,0.5277790493629357
1682104751713986,-0.4590524147402153,0.7129625391012437,0.5348592355230029
1682104751729988,-0.44672312504768463,0.7200427252613109,0.5279011215381093
1682104751745989,-0.43646906233310423,0.7232166018158237,0.5133745326924544
1682104751761990,-0.45160601205462747,0.7133287556267645,0.5525597009231706
1682104751777991,-0.4469672693980318,0.7093003738460366,0.546211947814145
1682104751794006,-0.4369573510337985,0.7111314564736402,0.5137407492179751
1682104751810007,-0.45038529030289176,0.7071030746929123,0.5287556267643243
1682104751826008,-0.4564888990615703,0.695262073701076,0.5416952773327228
1682104751842010,-0.4426947432669568,0.7023422598611431,0.5357137407492178
1682104751858011,-0.42877851529716926,0.7105210955977723,0.5094682230869001
1682104751874012,-0.45123979552910676,0.7009994659342338,0.5460898756389714
1682104751890013,-0.45807583733882673,0.7020981155107959,0.5559777218280306
1682104751906015,-0.44415960936903964,0.7140611886778059,0.5235065232318608
1682104751922016,-0.4365911345082778,0.721141374837873,0.504951552605478
1682104751938017,-0.44965285725185034,0.7062485694666973,0.5232623788815136
1682104751954018,-0.4544136720836196,0.7002670328831924,0.5366903181506064
1682104751970019,-0.44794384679942034,0.7013656824597545,0.525703822384985
1682104751986021,-0.44586861982146964,0.7118638895246816,0.5289997711146714
1682104752002022,-0.4430609597924775,0.7161364156557566,0.5365682459754328
1682104752018023,-0.4442816815442132,0.7141832608529795,0.5313191424429693
1682104752034024,-0.44245059891660965,0.716014343480583,0.5335164415960936
1682104752050026,-0.43781185626001395,0.7213855191882201,0.5347371633478293
1682104752066027,-0.4319523918516821,0.7176012817578394,0.5298542763408864
1682104752082028,-0.4315861753261614,0.7121080338750287,0.5276569771877622
1682104752098029,-0.43549248493171566,0.7051499198901352,0.5289997711146714
1682104752114074,-0.43817807278553467,0.6990463111314567,0.5349813076981764
1682104752130076,-0.4353704127565421,0.6966048676279852,0.5349813076981764
1682104752146078,-0.4285343709468221,0.6968490119783324,0.5255817502098115
1682104752162079,-0.42499427786678856,0.6924544136720838,0.5067826352330815
1682104752178081,-0.43085374227511997,0.6853742275120167,0.5343709468223086
1682104752194083,-0.43512626840619495,0.6922102693217367,0.5413290608072021
1682104752210085,-0.43183031967650853,0.7027084763866638,0.5387655451285571
1682104752226086,-0.43549248493171566,0.7140611886778059,0.5226520180056458
1682104752242088,-0.4414740215152211,0.7259021896696423,0.5293659876401922
1682104752258090,-0.4468451972228582,0.7182116426337073,0.5373006790264743
1682104752274091,-0.4463569085221639,0.7200427252613109,0.5348592355230029
1682104752290093,-0.4490424963759825,0.7239490348668651,0.54706645304036
1682104752306095,-0.44757763027389963,0.7298084992751965,0.5283894102388036
1682104752322096,-0.45539024948500817,0.732249942778668,0.525703822384985
1682104752338098,-0.4574654764629589,0.7316395819028001,0.5177691309987029
1682104752354100,-0.4561226825360496,0.729686427100023,0.5123979552910658
1682104752370102,-0.45917448691538887,0.7230945296406501,0.5150835431448844
1682104752386103,-0.4641794460975053,0.7157701991302359,0.5318074311436636
1682104752402105,-0.4657663843747617,0.7110093842984666,0.5235065232318608
1682104752418107,-0.4652780956740674,0.7154039826047152,0.5137407492179751
1682104752434112,-0.46674296177615027,0.7138170443274587,0.49909208819714657
1682104752450114,-0.47101548790722525,0.7060044251163502,0.5014114595254444
1682104752466116,-0.4771190966659038,0.697825589379721,0.5043411917296101
1682104752482117,-0.4804150453955902,0.6948958571755552,0.5165484092469672
1682104752498119,-0.4807812619211109,0.6996566720073245,0.5136186770428015
1682104752514121,-0.48236820019836735,0.7000228885328452,0.5029983978027008
1682104752530122,-0.48322270542458234,0.7055161364156559,0.4976272220950637
1682104752546124,-0.4741893644617381,0.7307850766765851,0.49408712901503016
1682104752562126,-0.4666208896009767,0.7459220263981079,0.49323262378881516
1682104752578127,-0.4716258487830931,0.7282215609979401,0.499824521248188
1682104752594129,-0.467963683527886,0.7147936217288473,0.5034866865033951
1682104752610131,-0.46210421911955457,0.7111314564736402,0.5084916456855115
1682104752626133,-0.46173800259403386,0.7044174868390938,0.5145952544441901
1682104752642134,-0.46051728084229815,0.7073472190432595,0.5133745326924544
1682104752658136,-0.46002899214160387,0.7090562294956895,0.510933089188983
1682104752674138,-0.45709925993743816,0.7145494773785002,0.5067826352330815
1682104752690139,-0.4603952086671246,0.7095445181963838,0.5047074082551308
1682104752706141,-0.46601052872510884,0.6972152285038531,0.5038529030289158
1682104752722143,-0.4616159304188603,0.6946517128252081,0.5095902952620737
1682104752738144,-0.45502403295948746,0.6989242389562831,0.4997024490730144
1682104752754150,-0.4578316929884796,0.7095445181963838,0.5087357900358587
1682104752770152,-0.4614938582436867,0.714305333028153,0.5138628213931486
1682104752786153,-0.4683299000534067,0.7147936217288473,0.5220416571297779
1682104752802155,-0.47345693141069667,0.7141832608529795,0.5188677805752651
1682104752818157,-0.4755321583886474,0.7102769512474252,0.5077592126344701
1682104752834159,-0.46967269398031597,0.7101548790722516,0.49445334554055087
1682104752850160,-0.4719920653086138,0.7003891050583659,0.49823758297093157
1682104752866162,-0.4733348592355231,0.6972152285038531,0.5038529030289158
1682104752882164,-0.4769970244907302,0.6995345998321509,0.49994659342336156
1682104752898165,-0.4813916227969788,0.7000228885328452,0.4993362325474937
1682104752914167,-0.4817578393224995,0.6956282902265967,0.49628442816815443
1682104752930169,-0.48480964370183877,0.6865949492637524,0.5016556038757916
1682104752946170,-0.48236820019836735,0.6864728770885788,0.48908216983291375
1682104752962172,-0.47895017929350736,0.6861066605630581,0.4900587472343023
1682104752978174,-0.4755321583886474,0.6936751354238195,0.49835965514610514
1682104752994176,-0.47101548790722525,0.7013656824597545,0.5102006561379415
1682104753010177,-0.461982146944381,0.7013656824597545,0.5059281300068665
1682104753026179,-0.4552681773098346,0.6995345998321509,0.4988479438467994
1682104753042181,-0.46478980697337313,0.686717021438926,0.5067826352330815
1682104753058182,-0.4702830548561838,0.6842755779354546,0.5082475013351644
1682104753074218,-0.47858396276798665,0.691844052796216,0.5158159761959258
1682104753090220,-0.48480964370183877,0.7016098268101016,0.5163042648966201
1682104753106222,-0.4862745098039216,0.7154039826047152,0.5264362554360265
1682104753122223,-0.4843213550011445,0.721141374837873,0.5196002136263065
1682104753138225,-0.48395513847562377,0.7265125505455101,0.5148393987945372
1682104753154227,-0.4821240558480202,0.7266346227206837,0.5188677805752651
1682104753170229,-0.4850537880521859,0.7166247043564509,0.5170366979476615
1682104753186230,-0.48236820019836735,0.7154039826047152,0.5219195849546043
1682104753202232,-0.47528801403830023,0.7200427252613109,0.5246051728084229
1682104753218234,-0.4686961165789274,0.715159838254368,0.5091020065613794
1682104753234235,-0.47186999313344025,0.706614785992218,0.5272907606622415
1682104753250237,-0.47431143663691167,0.7016098268101016,0.5264362554360265
1682104753266239,-0.46723125047684455,0.7033188372625316,0.5259479667353322
1682104753282240,-0.45624475471122317,0.7060044251163502,0.5114213778896772
1682104753298242,-0.4557564660105289,0.7017318989852752,0.5237506675822079
1682104753314244,-0.4549019607843139,0.6983138780804152,0.5401083390554664
1682104753330246,-0.4485542076752882,0.6986800946059359,0.5309529259174486
1682104753346247,-0.45160601205462747,0.694407568474861,0.5233844510566872
1682104753362249,-0.4632028686961167,0.6886701762417031,0.534248874647135
1682104753378251,-0.4578316929884796,0.6913557640955217,0.5337605859464407
1682104753394256,-0.44660105287251106,0.697825589379721,0.5204547188525215
1682104753410258,-0.4435492484931718,0.7044174868390938,0.5320515754940107
1682104753426260,-0.44782177462424677,0.7060044251163502,0.5463340199893185
1682104753442261,-0.4502632181277182,0.7072251468680859,0.559273670557717
1682104753458263,-0.4430609597924775,0.712596322575723,0.54193942168307
1682104753474265,-0.4417181658655682,0.712596322575723,0.5337605859464407
1682104753490266,-0.44196231021591537,0.7001449607080188,0.5269245441367207
1682104753506268,-0.44367132066834536,0.6992904554818038,0.5294880598153657
1682104753522270,-0.4404974441138325,0.6945296406500345,0.5321736476691843
1682104753538272,-0.4463569085221639,0.7042954146639202,0.5405966277561607
1682104753554273,-0.44623483634699035,0.7099107347219045,0.5496299687190049
1682104753570275,-0.4387884336614025,0.7128404669260702,0.5469443808651864
1682104753586277,-0.43671320668345137,0.7093003738460366,0.5338826581216143
1682104753602278,-0.4463569085221639,0.7191882200350959,0.5438925764858471
1682104753618280,-0.45624475471122317,0.7193102922102694,0.5473105973907071
1682104753634282,-0.45929655909056244,0.7122301060502023,0.5320515754940107
1682104753650283,-0.45624475471122317,0.7080796520943009,0.5165484092469672
1682104753666285,-0.4528267338063632,0.7060044251163502,0.5072709239337758
1682104753682287,-0.45758754863813245,0.7007553215838866,0.5260700389105057
1682104753698289,-0.458564126039521,0.6986800946059359,0.5266803997863736
1682104753714294,-0.46222629129472814,0.7025864042114902,0.527412832837415
1682104753730296,-0.46759746700236526,0.7011215381094074,0.5349813076981764
1682104753746297,-0.4673533226520181,0.6959945067521174,0.539375906004425
1682104753762299,-0.456855115587091,0.7001449607080188,0.5253376058594643
1682104753778301,-0.4539253833829253,0.6994125276569774,0.5249713893339436
1682104753794303,-0.45246051728084247,0.7019760433356224,0.5340047302967879
1682104753810304,-0.4473334859235525,0.7007553215838866,0.5362020294499121
1682104753826306,-0.44159609369039465,0.7035629816128788,0.5415732051575493
1682104753842308,-0.44574654764629607,0.7008773937590602,0.5467002365148392
1682104753858309,-0.4472114137483789,0.6983138780804152,0.5504844739452199
1682104753874311,-0.44586861982146964,0.6956282902265967,0.5388876173037307
1682104753890313,-0.4545357442587932,0.684153505760281,0.5371786068513007
1682104753906314,-0.46478980697337313,0.6723125047684446,0.54193942168307
1682104753922316,-0.4704051270313574,0.6771953917753875,0.5576867322804606
1682104753938318,-0.45624475471122317,0.7145494773785002,0.5409628442816814
1682104753954320,-0.4494087129015032,0.7417715724422065,0.5446250095368885
1682104753970321,-0.44953078507667676,0.7654535744258792,0.5536583504997328
1682104753986323,-0.46002899214160387,0.7527580682078279,0.5664759288929577
1682104754002325,-0.4606393530174717,0.7270008392462044,0.5493858243686578
1682104754018326,-0.46088349736781886,0.7128404669260702,0.5281452658884564
1682104754034362,-0.46137178606851315,0.7055161364156559,0.502388036926833
1682104754050364,-0.4644235904478524,0.6859845883878846,0.5008010986495766
1682104754066366,-0.4787060349431602,0.6680399786373696,0.5060502021820401
1682104754082368,-0.5029983978027008,0.6613260090028232,0.5485313191424428
1682104754098369,-0.504097047379263,0.6657206073090718,0.5370565346761271
1682104754114371,-0.48993667505912875,0.6742656595712218,0.5031204699778744
1682104754130373,-0.4829785610742352,0.671335927367056,0.48529793240253305
1682104754146374,-0.4834668497749295,0.6652323186083775,0.49286640726329445
1682104754162376,-0.48017090104524307,0.6710917830167089,0.5033646143282215
1682104754178378,-0.48664072632944233,0.6724345769436182,0.5219195849546043
1682104754194379,-0.4910353246356909,0.6847638666361489,0.5525597009231706
1682104754210381,-0.48029297322041664,0.6920881971465631,0.5288776989394979
1682104754226383,-0.47223620965896096,0.6939192797741667,0.5127641718165865
1682104754242385,-0.47650873579003594,0.6876935988403146,0.5142290379186694
1682104754258386,-0.4874952315556573,0.6842755779354546,0.5270466163118943
1682104754274388,-0.49323262378881516,0.6802471961547267,0.54706645304036
1682104754290390,-0.4879835202563516,0.7018539711604488,0.5534142061493856
1682104754306391,-0.47943846799420164,0.7101548790722516,0.5318074311436636
1682104754322393,-0.4755321583886474,0.717723353933013,0.5415732051575493
1682104754338395,-0.47235828183413453,0.710032806897078,0.537666895551995
1682104754354400,-0.4721141374837874,0.6964827954528117,0.539375906004425
1682104754370402,-0.4717479209582667,0.6834210727092396,0.5235065232318608
1682104754386404,-0.47431143663691167,0.6657206073090718,0.5070267795834287
1682104754402405,-0.4824902723735409,0.6549782558937975,0.5144731822690165
1682104754418407,-0.4838330663004502,0.6564431219958804,0.5159380483710994
1682104754434409,-0.4826123445487145,0.660837720302129,0.5165484092469672
1682104754450410,-0.4979934386205844,0.6746318760967425,0.5751430533302813
1682104754466412,-0.48102540627145807,0.6817120622568096,0.5408407721065078
1682104754482414,-0.48285648889906163,0.6786602578774703,0.5263141832608529
1682104754498416,-0.4831006332494088,0.6826886396581981,0.5227740901808193
1682104754514417,-0.4846875715266652,0.6791485465781646,0.5261921110856793
1682104754530419,-0.4918898298619059,0.6769512474250403,0.5456015869382771
1682104754546421,-0.4881055924315252,0.6857404440375374,0.5451132982375828
1682104754562422,-0.4813916227969788,0.6958724345769438,0.5412069886320285
1682104754578424,-0.4749217975127795,0.7078355077439538,0.5392538338292514
1682104754594426,-0.47443350881208524,0.7057602807660031,0.5498741130693521
1682104754610427,-0.47186999313344025,0.6957503624017702,0.5347371633478293
1682104754626429,-0.4779736018921188,0.6822003509575039,0.5330281528953993
1682104754642431,-0.4829785610742352,0.6729228656443125,0.5252155336842907
1682104754658433,-0.4826123445487145,0.6715800717174032,0.5210650797283893
1682104754674469,-0.47821774624246594,0.6757305256733046,0.5309529259174486
1682104754690471,-0.4721141374837874,0.6836652170595867,0.5407186999313343
1682104754706473,-0.4724803540093081,0.6864728770885788,0.556710154879072
1682104754722475,-0.4757763027389945,0.6878156710154881,0.5532921339742121
1682104754738477,-0.47638666361486237,0.6897688258182653,0.5353475242236971
1682104754754480,-0.4800488288700695,0.6880598153658353,0.5310749980926222
1682104754770482,-0.47907225146868093,0.6830548561837189,0.5281452658884564
1682104754786484,-0.47138170443274596,0.6839093614099339,0.5260700389105057
1682104754802486,-0.47602044708934166,0.679026474402991,0.5329060807202257
1682104754818488,-0.47565423056382095,0.6789044022278174,0.5313191424429693
1682104754834490,-0.4846875715266652,0.6748760204470896,0.5390096894789043
1682104754850493,-0.48407721065079734,0.6806134126802474,0.5474326695658807
1682104754866495,-0.4745555809872588,0.6831769283588924,0.5296101319905393
1682104754882497,-0.4762645914396888,0.6837872892347603,0.5319295033188371
1682104754898499,-0.4809033340962845,0.6775616083009082,0.54193942168307
1682104754914501,-0.4741893644617381,0.680735484855421,0.5386434729533836
1682104754930503,-0.46771953917753883,0.6836652170595867,0.5189898527504386
1682104754946506,-0.4716258487830931,0.6817120622568096,0.5296101319905393
1682104754962508,-0.46967269398031597,0.6731670099946596,0.5349813076981764
1682104754978510,-0.4716258487830931,0.671335927367056,0.541084916456855
1682104754994506,-0.47736324101625094,0.6759746700236517,0.5497520408941785
1682104755010509,-0.47260242618448167,0.6834210727092396,0.5408407721065078
1682104755026511,-0.4700389105058367,0.6825665674830246,0.5319295033188371
1682104755042513,-0.47821774624246594,0.6771953917753875,0.5454795147631035
1682104755058515,-0.47736324101625094,0.6804913405050739,0.542793926909285
1682104755074517,-0.47260242618448167,0.6826886396581981,0.52997634851606
1682104755090520,-0.4737010757610438,0.6852521553368431,0.5307087815671014
1682104755106522,-0.47724116884107737,0.6823224231326774,0.5365682459754328
1682104755122524,-0.47650873579003594,0.6814679179064624,0.5404745555809871
1682104755138526,-0.4719920653086138,0.6817120622568096,0.5387655451285571
1682104755154528,-0.4717479209582667,0.682444495307851,0.5387655451285571
1682104755170530,-0.4746776531624324,0.6852521553368431,0.5396200503547721
1682104755186533,-0.4767528801403831,0.684153505760281,0.5294880598153657
1682104755202535,-0.4813916227969788,0.6814679179064624,0.5297322041657129
1682104755218537,-0.4862745098039216,0.6751201647974368,0.541084916456855
1682104755234539,-0.4888380254825666,0.6740215152208746,0.5373006790264743
1682104755250541,-0.4901808194094759,0.6820782787823303,0.5501182574196992
1682104755266543,-0.48407721065079734,0.686717021438926,0.532539864194705
1682104755282546,-0.4767528801403831,0.6936751354238195,0.5269245441367207
1682104755298548,-0.47992675669489593,0.6973373006790267,0.53168535896849
1682104755314544,-0.4816357671473259,0.6951400015259024,0.5405966277561607
1682104755330546,-0.48114747844663164,0.6912336919203481,0.5375448233768214
1682104755346549,-0.48395513847562377,0.6859845883878846,0.54535744258793
1682104755362551,-0.4874952315556573,0.683299000534066,0.5495078965438314
1682104755378553,-0.4809033340962845,0.6840314335851074,0.5396200503547721
1682104755394555,-0.4778515297169452,0.6939192797741667,0.5452353704127564
1682104755410557,-0.4829785610742352,0.6719462882429239,0.5407186999313343
1682104755426560,-0.4829785610742352,0.6774395361257346,0.5382772564278628
1682104755442562,-0.4862745098039216,0.6749980926222632,0.5277790493629357
1682104755458564,-0.4900587472343023,0.6784161135271232,0.5296101319905393
1682104755474566,-0.48822766460669875,0.681589990081636,0.5371786068513007
1682104755490568,-0.48444342717631805,0.6862287327382317,0.5448691538872357
1682104755506570,-0.47943846799420164,0.6902571145189595,0.5493858243686578
1682104755522573,-0.47345693141069667,0.6907454032196538,0.5432822156099792
1682104755538575,-0.4750438696879531,0.6891584649423974,0.5437705043106735
1682104755554577,-0.4826123445487145,0.6898908979934388,0.5459678034637978
1682104755570579,-0.4809033340962845,0.687571526665141,0.5379110399023421
1682104755586581,-0.4784618905928131,0.6914778362706953,0.5363241016250857
1682104755602584,-0.47650873579003594,0.6900129701686124,0.537666895551995
1682104755618586,-0.47724116884107737,0.6873273823147938,0.5441367208361942
1682104755634613,-0.4733348592355231,0.6823224231326774,0.5457236591134507
1682104755650615,-0.468818188754101,0.6779278248264289,0.5294880598153657
1682104755666617,-0.47260242618448167,0.6714579995422296,0.5456015869382771
1682104755682619,-0.46845197222858026,0.6699931334401468,0.5435263599603264
1682104755698621,-0.466254673075456,0.6771953917753875,0.5311970702677957
1682104755714624,-0.46759746700236526,0.6831769283588924,0.534248874647135
1682104755730626,-0.46808575570305955,0.6734111543450068,0.5381551842526893
1682104755746628,-0.4708934157320517,0.6702372777904939,0.5586633096818492
1682104755762630,-0.46588845654993527,0.6818341344319832,0.5613488975356677
1682104755778632,-0.460273136491951,0.693553063248646,0.5396200503547721
1682104755794634,-0.46344701304646385,0.6984359502555888,0.5407186999313343
1682104755810637,-0.46759746700236526,0.6930647745479517,0.5327840085450521
1682104755826639,-0.4754100862134738,0.6822003509575039,0.5459678034637978
1682104755842641,-0.4712596322575724,0.6768291752498667,0.5431601434348057
1682104755858643,-0.46771953917753883,0.6746318760967425,0.5404745555809871
1682104755874645,-0.46381322957198456,0.6758525978484782,0.5388876173037307
1682104755890648,-0.46515602349889384,0.6813458457312889,0.5305867093919279
1682104755906650,-0.47309071488517596,0.6769512474250403,0.544502937361715
1682104755922652,-0.4711375600823988,0.6795147631036853,0.5413290608072021
1682104755938654,-0.4708934157320517,0.6786602578774703,0.555855649652857
1682104755954651,-0.46381322957198456,0.6797589074540324,0.5502403295948728
1682104755970653,-0.46430151827267885,0.6897688258182653,0.5485313191424428
1682104755986655,-0.4627145799954224,0.685008010986496,0.5493858243686578
1682104756002657,-0.46674296177615027,0.6789044022278174,0.5475547417410542
1682104756018659,-0.4673533226520181,0.6797589074540324,0.5409628442816814
1682104756034661,-0.46137178606851315,0.6873273823147938,0.53510337987335
1682104756050664,-0.46601052872510884,0.686717021438926,0.5430380712596321
1682104756066666,-0.46564431219958813,0.6897688258182653,0.5508506904707406
1682104756082668,-0.46686503395132384,0.6863508049134053,0.5550011444266421
1682104756098670,-0.4661326009002824,0.683299000534066,0.5528038452735178
1682104756114672,-0.4702830548561838,0.679026474402991,0.5451132982375828
1682104756130674,-0.47528801403830023,0.6734111543450068,0.5490196078431371
1682104756146677,-0.4669871061264974,0.6771953917753875,0.5337605859464407
1682104756162679,-0.46674296177615027,0.6767071030746932,0.5266803997863736
1682104756178681,-0.4712596322575724,0.6717021438925768,0.5243610284580758
1682104756194683,-0.48017090104524307,0.6655985351338982,0.5476768139162278
1682104756210685,-0.48065918974593735,0.6695048447394525,0.5467002365148392
1682104756226688,-0.47528801403830023,0.6754863813229575,0.541084916456855
1682104756242690,-0.47736324101625094,0.6753643091477839,0.5383993286030364
1682104756258692,-0.4800488288700695,0.676462958724346,0.5437705043106735
1682104756274719,-0.48102540627145807,0.6812237735561153,0.54535744258793
1682104756290721,-0.47443350881208524,0.6845197222858017,0.5377889677271686
1682104756306723,-0.47101548790722525,0.6828107118333717,0.5337605859464407
1682104756322725,-0.4767528801403831,0.6767071030746932,0.5374227512016478
1682104756338728,-0.48285648889906163,0.672190432593271,0.5458457312886242
1682104756354730,-0.47980468451972236,0.6682841229877168,0.53681239032578
1682104756370732,-0.47614251926451523,0.6717021438925768,0.52997634851606
1682104756386734,-0.4728465705348288,0.6780498970016025,0.5331502250705729
1682104756402736,-0.47443350881208524,0.6780498970016025,0.5377889677271686
1682104756418738,-0.47992675669489593,0.6742656595712218,0.5539024948500799
1682104756434741,-0.4838330663004502,0.6717021438925768,0.5553673609521628
1682104756450743,-0.47614251926451523,0.6804913405050739,0.5430380712596321
1682104756466745,-0.4691844052796217,0.6835431448844131,0.5265583276112
1682104756482747,-0.4669871061264974,0.6889143205920503,0.5305867093919279
1682104756498749,-0.46894026092927454,0.6913557640955217,0.5391317616540778
1682104756514752,-0.47064927138170454,0.6895246814679181,0.5451132982375828
1682104756530754,-0.4750438696879531,0.688426031891356,0.5507286182955671
1682104756546756,-0.48200198367284663,0.6823224231326774,0.5431601434348057
1682104756562758,-0.48151369497215235,0.6818341344319832,0.5440146486610207
1682104756578760,-0.4686961165789274,0.6851300831616696,0.5371786068513007
1682104756594757,-0.46015106431677744,0.6957503624017702,0.53168535896849
1682104756610759,-0.4632028686961167,0.6872053101396203,0.5512169069962614
1682104756626761,-0.45795376516365316,0.6908674753948274,0.5477988860914014
1682104756642763,-0.4652780956740674,0.6828107118333717,0.5457236591134507
1682104756658765,-0.47638666361486237,0.6803692683299003,0.5448691538872357
1682104756674768,-0.47516594186312666,0.6829327840085453,0.5292439154650186
1682104756690770,-0.4719920653086138,0.6900129701686124,0.5143511100938429
1682104756706772,-0.4678416113527124,0.6979476615548945,0.5104448004882887
1682104756722774,-0.47394522011139095,0.7020981155107959,0.5258258945601586
1682104756738776,-0.48578622110322733,0.7031967650873581,0.5514610513466085
1682104756754778,-0.49445334554055087,0.7029526207370109,0.5586633096818492
1682104756770781,-0.49115739681086446,0.7133287556267645,0.5434042877851528
1682104756786783,-0.4934767681391623,0.720286869611658,0.5296101319905393
1682104756802785,-0.5011673151750973,0.7240711070420387,0.5467002365148392
1682104756818787,-0.502388036926833,0.7217517357137408,0.54706645304036
1682104756834789,-0.4988479438467994,0.7190661478599223,0.560982681010147
1682104756850792,-0.4943312733653773,0.713450827801938,0.5784390020599677
1682104756866794,-0.4914015411612116,0.7075913633936066,0.580636301213092
1682104756882796,-0.4791943236438545,0.710887312123293,0.5491416800183107
1682104756898798,-0.48151369497215235,0.7106431677729459,0.5347371633478293
1682104756914795,-0.5018997482261387,0.685008010986496,0.535957885099565
1682104756930797,-0.5108110170138094,0.6718242160677503,0.5407186999313343
1682104756946799,-0.5038529030289158,0.6699931334401468,0.530830853742275
1682104756962801,-0.5014114595254444,0.6686503395132375,0.5326619363698786
1682104756978803,-0.5029983978027008,0.6670634012359811,0.5535362783245592
1682104756994805,-0.4939650568398566,0.6685282673380639,0.5548790722514685
1682104757010808,-0.48578622110322733,0.6811017013809417,0.5541466392004271
1682104757026810,-0.48651865415426876,0.6707255664911882,0.5650110627908749
1682104757042812,-0.4807812619211109,0.6610818646524761,0.5725795376516363
1682104757058814,-0.47357900358587024,0.6516823071641111,0.5740444037537191
1682104757074816,-0.4673533226520181,0.656565194171054,0.5944304570077055
1682104757090819,-0.46674296177615027,0.6500953688868547,0.6128633554589147
1682104757106821,-0.4650339513237203,0.6485084306095983,0.6233615625238418
1682104757122823,-0.4595407034409096,0.6685282673380639,0.5982146944380862
1682104757138825,-0.4650339513237203,0.6680399786373696,0.5852750438696877
1682104757154827,-0.47614251926451523,0.6561989776455333,0.6038300144960704
1682104757170829,-0.4783398184176395,0.6521705958648054,0.6170138094148161
1682104757186832,-0.4690623331044481,0.6465552758068212,0.6164034485389482
1682104757202834,-0.4545357442587932,0.6996566720073245,0.5784390020599677
1682104757218836,-0.4476997024490732,0.717723353933013,0.6308079652094305
1682104757234863,-0.4369573510337985,0.7139391165026323,0.6693827725642789
1682104757250865,-0.4238956282902264,0.683299000534066,0.6187228198672461
1682104757266867,-0.42755779354543355,0.6627908751049061,0.6874494544899674
1682104757282869,-0.4260929274433507,0.6140840772106504,0.5883268482490269
1682104757298872,-0.4273136491950864,0.591989013504234,0.6339818417639433
1682104757314874,-0.4456244754711225,0.5565880827038985,0.6173800259403368
1682104757330876,-0.45087357900358604,0.5392538338292514,0.6092011902037076
1682104757346878,-0.4422064545662625,0.5418173495078964,0.591989013504234
1682104757362880,-0.44708934157320535,0.542793926909285,0.572945754177157
1682104757378883,-0.46344701304646385,0.5569542992294192,0.5663538567177842
1682104757394885,-0.47101548790722525,0.5791714351110091,0.5597619592584113
1682104757410887,-0.46088349736781886,0.6432593270771347,0.5416952773327228
1682104757426889,-0.4402532997634854,0.6625467307545589,0.5676966506446934
1682104757442891,-0.4536812390325782,0.6649881742580304,0.6100556954299226
1682104757458893,-0.45123979552910676,0.6121309224078733,0.6292210269321741
1682104757474896,-0.4497749294270239,0.5210650797283893,0.6642557412069889
1682104757490898,-0.463691157396811,0.49115739681086446,0.648020141908904
1682104757506900,-0.4459906919966432,0.53852140077821,0.6327611200122076
1682104757522902,-0.4389105058365761,0.5608606088349735,0.5866178377965969
1682104757538904,-0.4459906919966432,0.5624475471122299,0.5791714351110091
1682104757554901,-0.44403753719386607,0.5702601663233384,0.5741664759288927
1682104757570903,-0.4401312275883118,0.5680628671702141,0.5641565575646599
1682104757586905,-0.4430609597924775,0.5529259174486914,0.5676966506446934
1682104757602907,-0.4547798886091403,0.565255207141222,0.5917448691538869
1682104757618909,-0.46686503395132384,0.5879606317235062,0.6078583962767983
1682104757634912,-0.4686961165789274,0.6198214694438082,0.6216525520714118
1682104757650914,-0.46137178606851315,0.6555886167696654,0.6120088502326997
1682104757666916,-0.4590524147402153,0.6648661020828568,0.6149385824368654
1682104757682918,-0.4574654764629589,0.6676737621118489,0.6161593041886011
1682104757698920,-0.457709620813306,0.6587624933241782,0.6406958113984897
1682104757714923,-0.4455024032959489,0.675608453498131,0.6376440070191505
1682104757730925,-0.42499427786678856,0.7056382085908295,0.6452124818799119
1682104757746927,-0.3980163271534294,0.7013656824597545,0.6222629129472796
1682104757762929,-0.3825131609063859,0.6811017013809417,0.6726787212939653
1682104757778931,-0.38800640878919657,0.6627908751049061,0.7362783245593958
1682104757794933,-0.3710383764400702,0.7025864042114902,0.7663080796520942
1682104757810936,-0.31537346456092186,0.7580071717402914,0.7162584878309302
1682104757826938,-0.3161058976119633,0.7306630045014115,0.75214770733196
1682104757842940,-0.3407644769970246,0.6775616083009082,0.7071030746929123
1682104757858942,-0.3698176546883345,0.6615701533531704,0.7191882200350959
1682104757874939,-0.3668879224841688,0.6741435873960482,0.6701152056153203
1682104757890941,-0.3682307164110781,0.6829327840085453,0.6502174410620283
1682104757906943,-0.37286945906767377,0.6980697337300681,0.6333714808880755
1682104757922945,-0.36542305638208594,0.671335927367056,0.6461890592813004
1682104757938947,-0.36798657206073093,0.6308079652094305,0.6425268940260933
1682104757954949,-0.38007171740291446,0.6113984893568318,0.6686503395132375
1682104757970952,-0.3689631494621195,0.6137178606851297,0.6503395132372018
1682104757986954,-0.3424734874494546,0.6089570458533604,0.6493629358358133
1682104758002956,-0.3295338368810561,0.6041962310215911,0.6409399557488369
1682104758018958,-0.32623788815136967,0.5968719005111769,0.6410620279240105
1682104758034960,-0.34357213702601674,0.604806591897459,0.6381322957198448
1682104758050963,-0.3546807049668117,0.597116044861524,0.6406958113984897
1682104758066965,-0.3476005188067446,0.6181124589913782,0.6303196765087362
1682104758082967,-0.3320973525597011,0.636911573968109,0.6010223544670783
1682104758098969,-0.32843518730449395,0.6372777904936298,0.5972381170366976
1682104758114971,-0.33807888914320605,0.6486305027847719,0.6145723659113447
1682104758130973,-0.34821087968261244,0.6684061951628903,0.6316624704356455
1682104758146976,-0.34686808575570316,0.6878156710154881,0.6243381399252304
1682104758162978,-0.34735637445639744,0.6830548561837189,0.6034637979705497
1682104758178980,-0.3591973754482338,0.6728007934691389,0.6135957885099561
1682104758195007,-0.37763027389944304,0.6624246585793854,0.6323949034866869
1682104758211009,-0.3877622644388494,0.6511940184634168,0.6560769054703597
1682104758227011,-0.3987487602044708,0.6457007705806062,0.6406958113984897
1682104758243013,-0.39765011062790867,0.6459449149309533,0.6168917372396425
1682104758259016,-0.4030212863355458,0.6460669871061269,0.5683070115205613
1682104758275018,-0.3954528114747844,0.6349584191653319,0.5788052185854884
1682104758291020,-0.39520866712443725,0.6452124818799119,0.5623254749370563
1682104758307022,-0.4105897611963072,0.6223849851224532,0.5838101777676048
1682104758323024,-0.42926680399786354,0.6293430991073476,0.5853971160448612
1682104758339027,-0.4352483405813685,0.6609597924773025,0.5868619821469441
1682104758355029,-0.4219424734874493,0.7011215381094074,0.591989013504234
1682104758371031,-0.4076600289921415,0.7079575799191273,0.6297093156328684
1682104758387033,-0.39472037842374297,0.695262073701076,0.6842755779354546
1682104758403035,-0.38519874876020443,0.6800030518043796,0.7017318989852752
1682104758419037,-0.38727397573815514,0.6870832379644467,0.6746318760967425
1682104758435040,-0.3915465018692301,0.6752422369726103,0.6438696879530026
1682104758451042,-0.39899290455481795,0.6612039368276497,0.6421606775005726
1682104758467044,-0.40827038986800934,0.6426489662012669,0.6503395132372018
1682104758483046,-0.4083924620431829,0.6339818417639433,0.6604715037766082
1682104758499048,-0.40570687418936435,0.6298313878080419,0.6635233081559475
1682104758515045,-0.40863660639353006,0.6319066147859926,0.6621805142290382
1682104758531047,-0.416327153429465,0.6327611200122076,0.6710917830167089
1682104758547049,-0.41120012207217504,0.6427710383764405,0.6436255436026554
1682104758563051,-0.40741588464179435,0.6361791409170676,0.6419165331502255
1682104758579054,-0.4038757915617608,0.6275120164797441,0.6516823071641111
1682104758595056,-0.3949645227740901,0.6277561608300912,0.6663309681849396
1682104758611058,-0.3908140688181887,0.6295872434576948,0.6618142977035175
1682104758627060,-0.3978942549782558,0.6311741817349512,0.6634012359807739
1682104758643062,-0.4047302967879758,0.6342259861142905,0.6637674525062947
1682104758659064,-0.4047302967879758,0.6367895017929355,0.6641336690318154
1682104758675067,-0.40619516289005864,0.6439917601281762,0.690135042343786
1682104758691069,-0.40778210116731506,0.6469214923323419,0.7079575799191273
1682104758707071,-0.40607309071488507,0.6648661020828568,0.721995880064088
1682104758723073,-0.40070191500724794,0.6765850308995196,0.7080796520943009
1682104758739075,-0.4013122758831158,0.7217517357137408,0.6708476386663618
1682104758755077,-0.41364156557564646,0.75043869687953,0.6499732967116811
1682104758771080,-0.3988708323796444,0.7670405127031357,0.6837872892347603
1682104758787082,-0.39740596627756153,0.7379873350118258,0.7487296864271
1682104758803084,-0.39435416189822226,0.7046616311894409,0.710887312123293
1682104758819086,-0.3787289234760052,0.6826886396581981,0.7155260547798887
1682104758835113,-0.3580987258716717,0.6614480811779968,0.6529030289158468
1682104758851115,-0.3563897154192417,0.6300755321583891,0.641184100099184
1682104758867118,-0.38300144960708016,0.5724574654764627,0.6637674525062947
1682104758883120,-0.39056992446784156,0.5573205157549399,0.6588845654993518
1682104758899122,-0.3925230792706187,0.5670862897688256,0.6758525978484782
1682104758915124,-0.4005798428320744,0.5496299687190049,0.6334935530632491
1682104758931126,-0.40070191500724794,0.5648889906157013,0.6092011902037076
1682104758947128,-0.3963073167009994,0.5913786526283662,0.6051728084229797
1682104758963131,-0.4087586785687036,0.582345311665522,0.6028534370946819
1682104758979133,-0.4064393072404058,0.5734340428778513,0.6139620050354768
1682104758995135,-0.39655146105134653,0.5862516212710762,0.6149385824368654
1682104759011137,-0.40326543068589293,0.5901579308766305,0.6181124589913782
1682104759027139,-0.41583886472877074,0.5875944151979855,0.6343480582894641
1682104759043141,-0.41364156557564646,0.6138399328603033,0.6397192339971012
1682104759059144,-0.40741588464179435,0.6232394903486682,0.6543678950179297
1682104759075146,-0.4068055237659265,0.6323949034866869,0.6518043793392847
1682104759091148,-0.41242084382391075,0.6427710383764405,0.6430151827267876
1682104759107150,-0.4140077821011672,0.643747615777829,0.6295872434576948
1682104759123152,-0.4186465247577629,0.6414282444495312,0.639475089646754
1682104759139155,-0.42084382391088715,0.6458228427557797,0.6621805142290382
1682104759155151,-0.41913481345845716,0.6416723887998783,0.6693827725642789
1682104759171153,-0.40399786373693436,0.6511940184634168,0.6568093385214011
1682104759187155,-0.3971618219272144,0.6570534828717483,0.659128709849699
1682104759203158,-0.39984740978103295,0.654001678492409,0.6665751125352868
1682104759219160,-0.3959411001754787,0.6498512245365076,0.6654764629587246
1682104759235162,-0.392156862745098,0.6425268940260933,0.6655985351338982
1682104759251164,-0.39362172884718083,0.6280003051804384,0.6702372777904939
1682104759267166,-0.39862668802929724,0.6232394903486682,0.6776836804760817
1682104759283168,-0.39349965667200726,0.6260471503776612,0.6709697108415353
1682104759299171,-0.39142442969405655,0.6220187685969325,0.659983215075914
1682104759315173,-0.3891050583657587,0.6189669642175932,0.6610818646524761
1682104759331175,-0.3906919966430151,0.613351644159609,0.6637674525062947
1682104759347177,-0.39557488364995796,0.6068818188754097,0.6605935759517818
1682104759363179,-0.3963073167009994,0.6178683146410311,0.6604715037766082
1682104759379181,-0.4025329976348515,0.6193331807431139,0.6570534828717483
1682104759395184,-0.40704966811627363,0.6206759746700232,0.6619363698786911
1682104759411186,-0.4043640802624551,0.6294651712825212,0.6585183489738311
1682104759427188,-0.40790417334248863,0.6293430991073476,0.6481422140840776
1682104759443190,-0.4138857099259936,0.6248264286259246,0.6459449149309533
1682104759459192,-0.4151064316777293,0.6338597695887698,0.6502174410620283
1682104759475189,-0.4186465247577629,0.6414282444495312,0.6568093385214011
1682104759491191,-0.42047760738536644,0.6421606775005726,0.6602273594262611
1682104759507193,-0.42255283436331714,0.6416723887998783,0.6516823071641111
1682104759523195,-0.42597085526817713,0.6344701304646376,0.649729152361334
1682104759539198,-0.423163195239185,0.6345922026398112,0.6325169756618605
1682104759555200,-0.42719157701991284,0.6327611200122076,0.6242160677500568
1682104759571202,-0.43341725795376496,0.637766079194324,0.6399633783474483
1682104759587204,-0.423163195239185,0.642038605325399,0.6382543678950183
1682104759603206,-0.41412985427634075,0.6371557183184562,0.6343480582894641
1682104759619208,-0.4177920195315479,0.6273899443045705,0.6353246356908526
1682104759635211,-0.42743572137026,0.612497138933394,0.6366674296177619
1682104759651213,-0.4286564431219957,0.6101777676050961,0.6359349965667205
1682104759667215,-0.42291905088883786,0.614206149385824,0.6229953459983211
1682104759683217,-0.4269474326695657,0.6121309224078733,0.6261692225528348
1682104759699219,-0.43378347447928567,0.6054169527733269,0.635202563515679
1682104759715222,-0.4319523918516821,0.6189669642175932,0.6371557183184562
1682104759731224,-0.42340733958953214,0.6315403982604719,0.6280003051804384
1682104759747226,-0.42584878309300356,0.6286106660563062,0.6253147173266198
1682104759763228,-0.42841229877164855,0.6260471503776612,0.6262912947280084
1682104759779230,-0.42804608224612783,0.6242160677500568,0.6350804913405055
1682104759795257,-0.42462806134126785,0.6282444495307855,0.6373998626688033
1682104759811259,-0.4306095979247728,0.6339818417639433,0.6375219348439769
1682104759827262,-0.4374456397344928,0.6312962539101248,0.640329594872969
1682104759843264,-0.4345159075303271,0.6269016556038762,0.6381322957198448
1682104759859266,-0.42743572137026,0.6234836346990154,0.6281223773556119
1682104759875268,-0.42755779354543355,0.6144502937361711,0.6355687800411998
1682104759891270,-0.43256275272754996,0.6046845197222854,0.6395971618219276
1682104759907272,-0.4352483405813685,0.6118867780575261,0.6453345540550854
1682104759923275,-0.4295109483482107,0.6250705729762727,0.6417944609750519
1682104759939277,-0.43183031967650853,0.6229953459983211,0.6444800488288704
1682104759955279,-0.4362249179827571,0.6157930876630804,0.652292668039979
1682104759971281,-0.4365911345082778,0.6083466849774926,0.6530251010910204
1682104759987283,-0.43720149538414566,0.6089570458533604,0.6551003280689711
1682104760003286,-0.4389105058365761,0.6113984893568318,0.644602121004044
1682104760019288,-0.4358587014572364,0.6220187685969325,0.6353246356908526
1682104760035290,-0.4352483405813685,0.6215304798962382,0.6317845426108191
1682104760051292,-0.4375677119096668,0.6126192111085675,0.6419165331502255
1682104760067294,-0.4375677119096668,0.5978484779125655,0.6605935759517818
1682104760083296,-0.4319523918516821,0.5873502708476384,0.6797589074540324
1682104760099299,-0.42047760738536644,0.5943083848325319,0.686717021438926
1682104760115295,-0.4096131837949186,0.6109102006561375,0.680735484855421
1682104760131297,-0.41083390554665433,0.6231174181734946,0.6648661020828568
1682104760147299,-0.41657129777981217,0.6359349965667205,0.6697489890897996
1682104760163302,-0.39691767757686724,0.6182345311665518,0.7110093842984666
1682104760179304,-0.3600518806744488,0.6240939955748832,0.7786373693446249
1682104760195306,-0.36163881895170524,0.6837872892347603,0.8104982070649269
1682104760211308,-0.344060425726711,0.6641336690318154,0.867383840695811
1682104760227310,-0.35114061188677814,0.7997558556496527,0.9284199282825973
1682104760243312,-0.3098802166781107,0.8437018387121382,0.9754177157244222
1682104760259315,-0.30267795834287003,0.9141374837872895,0.9875028610666057
1682104760275317,-0.3559014267185474,0.8485847257190811,0.9962920576791028
1682104760291319,-0.3925230792706187,0.8009765774013884,1.0168001831082627
1682104760307321,-0.380193789578088,0.7031967650873581,1.023270008392462
1682104760323323,-0.345769436179141,0.636911573968109,0.9818875410086214
1682104760339326,-0.3098802166781107,0.5431601434348057,0.9226825360494395
1682104760355328,-0.279362172884718,0.4673533226520181,0.8533455405508503
1682104760371330,-0.2225986114290075,0.35687800411993553,0.7713130388342107
1682104760387332,-0.2766765850308994,0.34332799267566916,0.7457999542229343
1682104760403334,-0.25775539787899593,0.32233157854581496,0.7079575799191273
1682104760419336,-0.238956282902266,0.306950484473945,0.6800030518043796
1682104760435363,-0.2153963530937668,0.30426489662012646,0.6504615854123754
1682104760451366,-0.201968413824674,0.3334401464866099,0.640329594872969
1682104760467368,-0.19391165026321833,0.3952086671244377,0.6779278248264289
1682104760483370,-0.17669947356374438,0.467963683527886,0.7551995117112993
1682104760499372,-0.17389181353475225,0.54535744258793,0.8262455176623176
1682104760515374,-0.1948882276646069,0.6070038910505833,0.8487067978942546
1682104760531376,-0.21393148699168396,0.6630350194552532,0.8358892195010297
1682104760547379,-0.19537651636530118,0.7113756008239873,0.8385748073548482
1682104760563381,-0.18683146410315077,0.696971084153506,0.8710460059510181
1682104760579383,-0.18829633020523406,0.6441138323033497,0.8919203479056996
1682104760595385,-0.18304722667277007,0.6511940184634168,0.8224612802319369
1682104760611387,-0.1417868314641031,0.6260471503776612,0.8294193942168304
1682104760627390,-0.12542915999084459,0.5532921339742121,0.7764400701915006
1682104760643392,-0.13141069657434956,0.5009231708247501,0.7539787899595636
1682104760659394,-0.1001602197299154,0.4540474555580989,0.6972152285038531
1682104760675396,-0.07940794995040834,0.4153505760280769,0.6831769283588924
1682104760691398,-0.038757915617608774,0.4002136263065541,0.6670634012359811
1682104760707400,-0.03155565728236809,0.459418631265736,0.6691386282139318
1682104760723403,-0.0394903486686502,0.4103456168459605,0.7476310368505379
1682104760739405,-0.05242999923704872,0.425848783093004,0.7890135042343784
1682104760755401,-0.03167772945754166,0.4531929503318839,0.7687495231555657
1682104760771403,-0.005920500495918191,0.5347371633478293,0.7357900358587015
1682104760787406,-0.03668268863965807,0.49286640726329445,0.692698558022431
1682104760803408,-0.06439307240405912,0.43353933012893897,0.6852521553368431
1682104760819410,-0.05877775234607441,0.42145418478675545,0.7234607461661708
1682104760835412,-0.07000839246204338,0.4120546272983905,0.7719233997100785
1682104760851414,-0.07476920729381265,0.4351262684061954,0.8185549706263826
1682104760867416,-0.06939803158617552,0.4640573739223317,0.8375982299534597
1682104760883419,-0.06720073243305125,0.492133974212253,0.8643320363164717
1682104760899421,-0.08050659952697048,0.4673533226520181,0.8888685435263604
1682104760915423,-0.092591744869154,0.5336385137712671,0.9102311741817353
1682104760931425,-0.10064850843060968,0.557564660105287,0.9164568551155874
1682104760947427,-0.08514534218356618,0.5957732509346148,0.9160906385900667
1682104760963430,-0.1077286945906768,0.5858854047455555,0.9784695201037614
1682104760979432,-0.12555123216601816,0.5477988860914014,0.9774929427023729
1682104760995434,-0.14947737850003806,0.5051956969558251,0.9258564126039524
1682104761011436,-0.1817044327458608,0.49323262378881516,0.9309834439612423
1682104761027438,-0.17560082398718224,0.47064927138170454,0.9192645151445795
1682104761043440,-0.15619134813458446,0.6164034485389482,0.8983901731898989
1682104761059443,-0.11090257114518964,0.6966048676279852,0.8084229800869762
1682104761075470,-0.1342183566033417,0.6332494087129019,0.7578850995651178
1682104761091472,-0.15948729686427088,0.684153505760281,0.5829556725413898
1682104761107475,-0.18646524757763006,0.610788128480964,0.7141832608529795
1682104761123478,-0.20904859998474112,0.5709925993743799,0.6041962310215911
1682104761139480,-0.22980086976424818,0.7233386739909973,0.461982146944381
1682104761155483,-0.16827649347676799,0.8578622110322724,0.39703974975204126
1682104761171486,-0.1471580071717402,1.1028610666056302,0.1868314641031512
1682104761187488,-0.18158236057068722,1.037796597238117,0.38568703746089916
1682104761203491,-0.269108110170138,0.9084000915541317,0.49994659342336156
1682104761219493,-0.29755092698558006,0.8874036774242775,0.5872281986724648
1682104761235496,-0.25897611963073164,0.8987563897154196,0.5676966506446934
1682104761251499,-0.2444495307850767,0.8897230487525754,0.5879606317235062
1682104761267501,-0.25311665522240023,0.8607919432364382,0.6177462424658575
1682104761283504,-0.2575112535286488,0.8810559243152518,0.6320286869611662
1682104761299507,-0.24335088120851456,0.8832532234683761,0.6399633783474483
1682104761315509,-0.23553826199740602,0.8366216525520711,0.6494850080109869
1682104761331512,-0.23834592202639815,0.7870603494316013,0.6502174410620283
1682104761347515,-0.2318760967421989,0.7628900587472343,0.6247043564507511
1682104761363517,-0.23089951934081032,0.7575188830395971,0.5680628671702141
1682104761379520,-0.21612878614480824,0.7628900587472343,0.47565423056382095
1682104761395507,-0.2301670862897689,0.7299305714503701,0.43732356755931967
1682104761411510,-0.2537270160982681,0.689280537117571,0.46381322957198456
1682104761427512,-0.2511635004196231,0.6641336690318154,0.47650873579003594
1682104761443514,-0.24811169604028382,0.6541237506675825,0.4879835202563516
1682104761459516,-0.25262836652170595,0.6771953917753875,0.4986037994964523
1682104761475518,-0.2630045014114595,0.7039291981383995,0.5150835431448844
1682104761491521,-0.2642252231631952,0.7471427481498436,0.4988479438467994
1682104761507523,-0.26642252231631947,0.7617914091706721,0.5073929961089494
1682104761523525,-0.2888838025482565,0.7519035629816129,0.5458457312886242
1682104761539527,-0.2952315556572822,0.7342030975814451,0.5836881055924312
1682104761555529,-0.2850995651178758,0.7345693141069658,0.6057831692988476
1682104761571531,-0.2796063172350651,0.7482413977264057,0.6009002822919047
1682104761587534,-0.2805828946364537,0.768383306630045,0.5872281986724648
1682104761603536,-0.281071183337148,0.7746089875638971,0.567818722819867
1682104761619538,-0.2907148851758601,0.7565423056382086,0.569527733272297
1682104761635540,-0.28619821469443796,0.7588616769665064,0.5883268482490269
1682104761651542,-0.28583199816891725,0.7722896162355992,0.5900358587014569
1682104761667544,-0.29669642175936506,0.7838864728770885,0.6121309224078733
1682104761683547,-0.3049973296711679,0.7990234225986113,0.609079118028534
1682104761699549,-0.30646219577325073,0.8142824444953076,0.5965056839856562
1682104761715545,-0.3019455252918286,0.802807660028992,0.5784390020599677
1682104761731547,-0.31012436102845786,0.7863279163805599,0.5653772793163956
1682104761747550,-0.31110093842984643,0.7584954604409857,0.555855649652857
1682104761763552,-0.3104905775539786,0.7475089646753643,0.5504844739452199
1682104761779554,-0.3131761654077976,0.7571526665140764,0.5593957427328906
1682104761795556,-0.3100022888532843,0.7719233997100785,0.5651331349660484
1682104761811558,-0.3119554436560614,0.7763179980163271,0.5757534142061491
1682104761827561,-0.315617608911269,0.7728999771114671,0.5725795376516363
1682104761843563,-0.313908598458839,0.76923781185626,0.571236743724727
1682104761859565,-0.3067063401235979,0.7586175326161593,0.5602502479591056
1682104761875567,-0.31110093842984643,0.7459220263981079,0.5493858243686578
1682104761891569,-0.3115892271305407,0.7603265430685893,0.5326619363698786
1682104761907571,-0.319890135042344,0.7726558327611199,0.5407186999313343
1682104761923574,-0.33295185778591607,0.7792477302204928,0.5175249866483558
1682104761939576,-0.3446707866025789,0.7786373693446249,0.523994811932555
1682104761955578,-0.33771267261768534,0.7597161821927214,0.5375448233768214
1682104761971580,-0.347478446631571,0.751293202105745,0.5508506904707406
1682104761987582,-0.344060425726711,0.7635004196231021,0.5556115053025099
1682104762003584,-0.33942168307011533,0.7913328755626763,0.5486533913176164
1682104762019587,-0.33722438391699106,0.8023193713282977,0.54535744258793
1682104762035614,-0.32758068207827895,0.8034180209048598,0.5452353704127564
1682104762051616,-0.3192797741664761,0.7912108033875027,0.5535362783245592
1682104762067619,-0.31122301060502,0.7790035858701456,0.5624475471122299
1682104762083622,-0.29633020523384435,0.7732661936369878,0.5600061036087585
1682104762099624,-0.2936446173800258,0.7676508735790035,0.5526817730983442
1682104762115627,-0.2902265964751658,0.7656977187762264,0.537666895551995
1682104762131630,-0.2881513694972151,0.7488517586022736,0.5136186770428015
1682104762147632,-0.2872968642710001,0.7543450064850843,0.5203326466773479
1682104762163635,-0.28168154421301583,0.7395742732890822,0.5181353475242236
1682104762179638,-0.2805828946364537,0.723704890516518,0.5182574196993972
1682104762195640,-0.2813153276874951,0.7241931792172123,0.5266803997863736
1682104762211643,-0.27618829633020514,0.730540932326238,0.5246051728084229
1682104762227645,-0.27447928587777515,0.7334706645304037,0.52997634851606
1682104762243648,-0.2775310902571144,0.7431143663691158,0.5354695963988707
1682104762259651,-0.2781414511329823,0.7587396047913328,0.5230182345311665
1682104762275653,-0.27533379110399014,0.7733882658121614,0.5106889448386358
1682104762291656,-0.28168154421301583,0.7703364614328221,0.5126420996414129
1682104762307659,-0.2969405661097122,0.76411078049897,0.5199664301518272
1682104762323661,-0.30939192797741644,0.7715571831845578,0.5287556267643243
1682104762339664,-0.32050049591821184,0.7855954833295185,0.5424277103837642
1682104762355651,-0.3152513923857483,0.7936522468909741,0.5600061036087585
1682104762371654,-0.30511940184634145,0.8015869382772562,0.5625696192874035
1682104762387657,-0.30255588616769646,0.815014877546349,0.5510948348210878
1682104762403659,-0.3036545357442586,0.8079346913862819,0.5424277103837642
1682104762419662,-0.29596398870832363,0.7791256580453192,0.5398641947051193
1682104762435665,-0.29584191653315006,0.7517814908064393,0.5233844510566872
1682104762451667,-0.2905928130006865,0.7531242847333486,0.5115434500648508
1682104762467670,-0.2890058747234301,0.7554436560616464,0.5110551613641565
1682104762483673,-0.2864423590447851,0.7627679865720607,0.5288776989394979
1682104762499675,-0.2783855954833294,0.76923781185626,0.5313191424429693
1682104762515678,-0.27692072938124657,0.7660639353017471,0.5415732051575493
1682104762531681,-0.28461127641718154,0.76240177004654,0.5496299687190049
1682104762547683,-0.2881513694972151,0.7680170901045242,0.5499961852445256
1682104762563686,-0.2952315556572822,0.7720454718852521,0.5612268253604942
1682104762579689,-0.2953536278324558,0.7724116884107728,0.566109712367437
1682104762595691,-0.29889372091248934,0.7765621423666742,0.560128175783932
1682104762611694,-0.3048752574959943,0.7924315251392384,0.5408407721065078
1682104762627697,-0.31024643320363143,0.7720454718852521,0.5133745326924544
1682104762643699,-0.3230640115968568,0.74360265506981,0.5296101319905393
1682104762659702,-0.32672617685206395,0.7411612115663386,0.5171587701228351
1682104762675720,-0.31964599069199684,0.753002212558175,0.508369573510338
1682104762691722,-0.31573968108644257,0.7582513160906386,0.5160601205462729
1682104762707725,-0.3117112993057143,0.7678950179293507,0.5147173266193636
1682104762723728,-0.31952391851682327,0.7704585336079957,0.5510948348210878
1682104762739730,-0.3185473411154347,0.7804684519722285,0.5365682459754328
1682104762755733,-0.3211108567940797,0.7818112458991378,0.5180132753490501
1682104762771736,-0.32220950637064183,0.7785152971694513,0.5183794918745708
1682104762787738,-0.3312428473334861,0.7702143892576485,0.522285801480125
1682104762803741,-0.3378347447928589,0.7577630273899443,0.5412069886320285
1682104762819744,-0.33258564126039536,0.784008545052262,0.5532921339742121
1682104762835746,-0.3290455481803618,0.7991454947737848,0.5431601434348057
1682104762851749,-0.3266041046768904,0.8095216296635384,0.5404745555809871
1682104762867752,-0.3236743724727247,0.7953612573434041,0.5435263599603264
1682104762883754,-0.32465094987411325,0.7775387197680628,0.5364461738002593
1682104762899757,-0.3314869916838332,0.7517814908064393,0.5250934615091172
1682104762915760,-0.32672617685206395,0.7484855420767529,0.5226520180056458
1682104762931762,-0.3172045471885254,0.7520256351567864,0.5156939040207522
1682104762947765,-0.3140306706340126,0.7626459143968871,0.5277790493629357
1682104762963768,-0.31415274280918615,0.7777828641184099,0.5434042877851528
1682104762979770,-0.3041428244449529,0.76752880140383,0.5390096894789043
1682104762995758,-0.30609597924773,0.7528801403830014,0.5529259174486914
1682104763011760,-0.2821698329137101,0.7334706645304037,0.5485313191424428
1682104763027763,-0.2586099031052109,0.7367666132600901,0.5122758831158922
1682104763043766,-0.23077744716563675,0.7442130159456779,0.5031204699778744
1682104763059768,-0.21661707484550252,0.7324940871290151,0.5276569771877622
1682104763075771,-0.21954680704966822,0.6856183718623639,0.5556115053025099
1682104763091774,-0.2246738384069582,0.6847638666361489,0.5564660105287249
1682104763107776,-0.23822384985122458,0.7064927138170445,0.5399862668802928
1682104763123779,-0.2704509040970473,0.7302967879758908,0.5475547417410542
1682104763139782,-0.2886396581979094,0.7350576028076601,0.5636682688639656
1682104763155784,-0.29962615396353076,0.7267566948958573,0.5821011673151748
1682104763171787,-0.2995040817883572,0.7307850766765851,0.6153047989623861
1682104763187790,-0.3048752574959943,0.7548332951857786,0.6188448920424197
1682104763203792,-0.3036545357442586,0.7926756694895856,0.6384985122453655
1682104763219795,-0.30438696879530003,0.8510261692225525,0.6358129243915469
1682104763235798,-0.31622796978713685,0.8887464713511868,0.6469214923323419
1682104763251800,-0.3268482490272375,0.8820325017166404,0.6631570916304268
1682104763267803,-0.3357595178149082,0.8671396963454638,0.7385976958876936
1682104763283805,-0.34186312657358675,0.8448004882887004,0.6680399786373696
1682104763299808,-0.3411306935225453,0.8450446326390475,0.6847638666361489
1682104763315796,-0.34149691004806604,0.8394293125810632,0.6760967421988253
1682104763331798,-0.3429617761501489,0.8384527351796747,0.6588845654993518
1682104763347801,-0.3319752803845275,0.8443121995880061,0.6144502937361711
1682104763363803,-0.3269703212024111,0.8364995803768975,0.5957732509346148
1682104763379806,-0.3264820325017168,0.7943846799420156,0.6310521095597776
1682104763395809,-0.3209887846189061,0.75898374914168,0.5401083390554664
1682104763411811,-0.318181124589914,0.7345693141069658,0.5105668726634622
1682104763427814,-0.3041428244449529,0.7299305714503701,0.49066910811017017
1682104763443817,-0.28375677119096654,0.7221179522392616,0.46564431219958813
1682104763459819,-0.26691081101701375,0.7102769512474252,0.4616159304188603
1682104763475822,-0.24176394293125814,0.6945296406500345,0.49152361333638517
1682104763491825,-0.22101167315175108,0.6966048676279852,0.49616235599298086
1682104763507827,-0.19671931029221046,0.7154039826047152,0.522285801480125
1682104763523830,-0.17169451438162797,0.7354238193331808,0.5536583504997328
1682104763539833,-0.1517967498283359,0.7578850995651178,0.5799038681620505
1682104763555835,-0.13031204699778742,0.7728999771114671,0.5884489204242005
1682104763571838,-0.12530708781567101,0.7914549477378499,0.5855191882200348
1682104763587841,-0.12359807736324102,0.7588616769665064,0.5831998168917369
1682104763603843,-0.12213321126115817,0.7451895933470665,0.5800259403372241
1682104763619846,-0.12225528343633174,0.7401846341649501,0.5839322499427784
1682104763635864,-0.1345845731288624,0.7404287785152972,0.5949187457083998
1682104763651867,-0.13385214007782098,0.7295643549248494,0.5681849393453877
1682104763667869,-0.1438620584420538,0.7459220263981079,0.600534065766384
1682104763683872,-0.13556115053025097,0.7648432135500114,0.5873502708476384
1682104763699875,-0.13446250095368883,0.7869382772564277,0.6106660563057904
1682104763715877,-0.1275043869687953,0.800244144350347,0.615060654612039
1682104763731880,-0.1152971694514382,0.8079346913862819,0.6093232623788811
1682104763747882,-0.10553139543755252,0.8047608148317691,0.6110322728313111
1682104763763885,-0.10565346761272609,0.7919432364385441,0.6226291294728004
1682104763779888,-0.10968184939345393,0.782299534599832,0.6415503166247047
1682104763795890,-0.11676203555352105,0.7750972762645914,0.6470435645075154
1682104763811893,-0.12982375829709314,0.7709468223086899,0.6478980697337304
1682104763827896,-0.13263141832608527,0.7724116884107728,0.6427710383764405
1682104763843898,-0.13153276874952313,0.7709468223086899,0.6345922026398112
1682104763859901,-0.14019989318684667,0.7617914091706721,0.6102998397802697
1682104763875904,-0.14984359502555877,0.7531242847333486,0.592843518730449
1682104763891906,-0.16253910124361015,0.7440909437705043,0.5899137865262833
1682104763907909,-0.165712977798123,0.7484855420767529,0.5835660334172577
1682104763923912,-0.1694972152285037,0.7543450064850843,0.5879606317235062
1682104763939914,-0.1799954222934308,0.7526359960326543,0.6126192111085675
1682104763955902,-0.1867093919279772,0.7597161821927214,0.6240939955748832
1682104763971904,-0.1931792172121769,0.7661860074769207,0.6209201190203704
1682104763987907,-0.19415579461356547,0.7686274509803921,0.6006561379415576
1682104764003910,-0.19354543373769761,0.7663080796520942,0.5827115281910427
1682104764019912,-0.19940489814602902,0.7617914091706721,0.5714808880750741
1682104764035915,-0.21173418783855968,0.7556878004119936,0.5764858472571905
1682104764051918,-0.21747158007171752,0.7536125734340429,0.5762417029068434
1682104764067920,-0.22772564278629748,0.76069275959411,0.5769741359578848
1682104764083923,-0.23956664377813386,0.7710688944838635,0.575509269855802
1682104764099926,-0.2523842221713588,0.7754634927901121,0.5773403524834055
1682104764115928,-0.2611734187838559,0.7757076371404592,0.5830777447165634
1682104764131931,-0.26263828488593877,0.7771725032425421,0.5784390020599677
1682104764147934,-0.26642252231631947,0.7810788128480963,0.5717250324254213
1682104764163936,-0.2789959563591973,0.7754634927901121,0.5648889906157013
1682104764179939,-0.28546578164339653,0.7758297093156328,0.562691691462577
1682104764195942,-0.2886396581979094,0.7866941329060806,0.569527733272297
1682104764211944,-0.28668650339513224,0.7798580910963606,0.5642786297398334
1682104764227947,-0.27826352330815585,0.7732661936369878,0.5501182574196992
1682104764243950,-0.27618829633020514,0.7676508735790035,0.5394979781795985
1682104764259952,-0.2747234302281223,0.7616693369954985,0.52997634851606
1682104764275970,-0.270817120622568,0.7545891508354314,0.5269245441367207
1682104764291973,-0.269962615396353,0.761547264820325,0.5377889677271686
1682104764307975,-0.2670328831921873,0.7732661936369878,0.5469443808651864
1682104764323978,-0.28363469901579297,0.7636224917982757,0.5663538567177842
1682104764339981,-0.2840009155413137,0.7553215838864729,0.5722133211261156
1682104764355983,-0.2688639658197909,0.7492179751277943,0.5551232166018156
1682104764371986,-0.26227206836041805,0.7407949950408179,0.5287556267643243
1682104764387989,-0.2525062943465324,0.7371328297856108,0.5123979552910658
1682104764403991,-0.2532387273975738,0.7337148088807508,0.5217975127794308
1682104764419994,-0.2592202639810788,0.7343251697566187,0.5493858243686578
1682104764435997,-0.2558022430762188,0.7544670786602579,0.5799038681620505
1682104764451999,-0.24713511863889526,0.7562981612878614,0.5625696192874035
1682104764468002,-0.2638590066376745,0.7726558327611199,0.6144502937361711
1682104764484005,-0.27020675974670016,0.7736324101625085,0.6128633554589147
1682104764500007,-0.28082703898680084,0.7687495231555657,0.6164034485389482
1682104764516010,-0.28876173037308295,0.76923781185626,0.6094453345540547
1682104764532013,-0.3029221026932172,0.7653315022507057,0.596261539635309
1682104764548015,-0.31464103150988043,0.7556878004119936,0.5757534142061491
1682104764564018,-0.32758068207827895,0.7445792324711986,0.5537804226749063
1682104764580021,-0.33978789959563604,0.7332265201800565,0.5407186999313343
1682104764596008,-0.3341725795376518,0.7310292210269322,0.5249713893339436
1682104764612011,-0.32550545510032824,0.7294422827496758,0.5244831006332493
1682104764628013,-0.3168383306630047,0.7350576028076601,0.5355916685740443
1682104764644016,-0.30951400015259,0.7443350881208515,0.5551232166018156
1682104764660019,-0.30438696879530003,0.7608148317692836,0.5735561150530248
1682104764676021,-0.29889372091248934,0.7744869153887235,0.5840543221179519
1682104764692024,-0.2973067826352329,0.7903562981612877,0.5878385595483326
1682104764708027,-0.30096894789044004,0.784008545052262,0.5960173952849619
1682104764724029,-0.310368505378805,0.7742427710383764,0.6024872205691612
1682104764740032,-0.317326619363699,0.7746089875638971,0.6067597467002361
1682104764756034,-0.32428473334859254,0.7799801632715342,0.6067597467002361
1682104764772037,-0.33551537346456106,0.7830319676508735,0.6059052414740211
1682104764788040,-0.34442664225223174,0.7833981841763942,0.5902800030518041
1682104764804042,-0.34821087968261244,0.7685053788052185,0.5785610742351412
1682104764820045,-0.3399099717708096,0.7472648203250172,0.5640344853894863
1682104764836048,-0.33600366216525535,0.7274891279468987,0.5546349279011213
1682104764852050,-0.33270771343556893,0.7230945296406501,0.5541466392004271
1682104764868053,-0.33270771343556893,0.7213855191882201,0.5585412375066756
1682104764884056,-0.32965590905622966,0.7239490348668651,0.5696498054474706
1682104764900058,-0.3226977950713361,0.7350576028076601,0.5740444037537191
1682104764916076,-0.31879148546578184,0.7354238193331808,0.5830777447165634
1682104764932079,-0.319035629816129,0.7390859845883879,0.5939421683070112
1682104764948082,-0.3090257114518957,0.7527580682078279,0.5915007248035398
1682104764964084,-0.3065842679484243,0.7539787899595636,0.5869840543221176
1682104764980087,-0.30170138094148147,0.749584191653315,0.5888151369497212
1682104764996090,-0.3037766079194322,0.74360265506981,0.5878385595483326
1682104765012092,-0.31671625848783114,0.7280994888227665,0.5805142290379184
1682104765028095,-0.3096360723277636,0.7384756237125201,0.580636301213092
1682104765044098,-0.31415274280918615,0.7401846341649501,0.5795376516365298
1682104765060100,-0.3218432898451211,0.7423819333180743,0.5801480125123977
1682104765076103,-0.32123292896925326,0.7443350881208515,0.5810025177386127
1682104765092105,-0.31842526894026113,0.7425040054932479,0.5880827038986798
1682104765108108,-0.31757076371404613,0.7400625619897765,0.5844205386434727
1682104765124111,-0.32294193942168326,0.7420157167925536,0.5842984664682991
1682104765140113,-0.32721446555275824,0.7384756237125201,0.5796597238117034
1682104765156116,-0.3268482490272375,0.7353017471580072,0.5764858472571905
1682104765172119,-0.32465094987411325,0.7379873350118258,0.5761196307316698
1682104765188121,-0.31964599069199684,0.7371328297856108,0.5735561150530248
1682104765204124,-0.31757076371404613,0.7353017471580072,0.5722133211261156
1682104765220127,-0.3201342793926911,0.7367666132600901,0.5687953002212556
1682104765236114,-0.33429465171282535,0.7355458915083544,0.5722133211261156
1682104765252117,-0.34564736400396745,0.7399404898146029,0.5803921568627448
1682104765268119,-0.3400320439459832,0.7471427481498436,0.5829556725413898
1682104765284122,-0.3295338368810561,0.7509269855802243,0.5696498054474706
1682104765300125,-0.32135500114442683,0.746166170748455,0.564400701915007
1682104765316127,-0.32587167162584896,0.7285877775234608,0.5672083619439992
1682104765332130,-0.32379644464789825,0.7261463340199894,0.5673304341191727
1682104765348133,-0.3206225680933854,0.7338368810559244,0.5681849393453877
1682104765364135,-0.32892347600518823,0.7381094071869994,0.5631799801632713
1682104765380138,-0.3285572594796675,0.7403067063401236,0.561837186236362
1682104765396141,-0.32037842374303827,0.7334706645304037,0.5571984435797663
1682104765412143,-0.31793698023956685,0.7422598611429008,0.559273670557717
1682104765428146,-0.31879148546578184,0.7473868925001907,0.5656214236667427
1682104765444149,-0.31964599069199684,0.7647211413748378,0.5857633325703819
1682104765460151,-0.3131761654077976,0.7562981612878614,0.6260471503776612
1682104765476154,-0.29803921568627434,0.749584191653315,0.5910124361028455
1682104765492157,-0.2981612878614479,0.7577630273899443,0.6055390249485004
1682104765508159,-0.2902265964751658,0.7488517586022736,0.6160372320134275
1682104765524162,-0.3031662470435643,0.7372549019607844,0.6096894789044018
1682104765540165,-0.2962081330586708,0.8487067978942546,0.5724574654764627
1682104765556182,-0.2692301823453116,0.8264896620126647,0.5600061036087585
1682104765572185,-0.28619821469443796,0.7735103379873349,0.5944304570077055
1682104765588188,-0.3031662470435643,0.7991454947737848,0.6561989776455333
1682104765604190,-0.2804608224612801,0.7519035629816129,0.652292668039979
1682104765620193,-0.28668650339513224,0.7089341573205159,0.6021210040436404
1682104765636196,-0.30389868009460574,0.7114976729991609,0.6590066376745254
1682104765652198,-0.31293202105745044,0.8189211871519033,0.652292668039979
1682104765668201,-0.31866941329060827,0.801953154802777,0.7711909666590371
1682104765684204,-0.34320592050049603,0.7818112458991378,0.7716792553597314
1682104765700206,-0.22882429236285962,0.7920653086137177,0.5465781643396657
1682104765716209,-0.16253910124361015,0.8410162508583197,0.4984817273212787
1682104765732212,-0.26605630579079875,0.8832532234683761,0.6009002822919047
1682104765748214,-0.3117112993057143,0.7700923170824749,0.7027084763866638
1682104765764217,-0.320744640268559,0.9439230945296408,0.6577859159227897
1682104765780220,-0.2296787975890746,0.7645990691996642,0.5825894560158691
1682104765796222,-0.26849774929427017,0.6920881971465631,0.6122529945830468
1682104765812225,-0.2746013580529487,0.8666514076447696,0.5421835660334171
1682104765828228,-0.27362478065156015,0.8262455176623176,0.591134508278019
1682104765844230,-0.18695353627832434,0.7971923399710077,0.5834439612420841
1682104765860233,-0.18072785534447222,0.7127183947508966,0.6227512016479739
1682104765876220,-0.1808499275196458,0.7948729686427098,0.5337605859464407
1682104765892223,-0.1749904631113144,0.7238269626916916,0.7029526207370109
1682104765908226,-0.14349584191653308,0.912306401159686,0.7918211642633706
1682104765924228,-0.17596704051270295,0.7940184634164948,0.779736018921187
1682104765940231,-0.06524757763027411,0.8125734340428776,0.650583657587549
1682104765956234,-0.08172732127870619,0.830395971618219,0.6217746242465854
1682104765972236,-0.07086289768825837,0.6240939955748832,0.6660868238345925
1682104765988239,-0.04888990615701516,0.9392843518730452,0.5302204928664072
1682104766004242,0.11688410772869418,0.6397192339971012,0.4728465705348288
1682104766020244,-0.019714656290531707,0.7293202105745022,0.4838330663004502
1682104766036247,-0.07794308384832549,0.6426489662012669,0.6238498512245361
1682104766052250,-0.10028229190508897,0.5800259403372241,0.7342030975814451
1682104766068252,-0.04632639047837017,0.6842755779354546,0.7644769970244907
1682104766084255,0.027649347676813818,0.6311741817349512,0.7637445639734493
1682104766100257,0.09271381704432713,0.5932097352559698,0.7379873350118258
1682104766116260,0.18377965972381194,0.43537041275654254,0.7801022354467078
1682104766132263,0.20550850690470757,0.5120317387655451,0.7350576028076601
1682104766148265,0.2418860151064317,0.5128862439917601,0.7270008392462044
1682104766164268,0.2225986114290075,0.46930647745479526,0.7189440756847487
1682104766180271,0.2162508583199818,0.421576256961929,0.7704585336079957
1682104766196258,0.2057526512550547,0.3757991912718399,0.6508278019378961
1682104766212261,0.20379949645227757,0.3612726024261841,0.6508278019378961
1682104766228263,0.21307698176546896,0.4237735561150533,0.6092011902037076
1682104766244266,0.21698329137102323,0.4484321355001146,0.5925993743801019
1682104766260269,0.19635309376668975,0.4805371175707638,0.6117647058823525
1682104766276271,0.18072785534447267,0.4784618905928131,0.593698023956664
1682104766292274,0.19122606240939977,0.47895017929350736,0.6044403753719383
1682104766308277,0.19757381551842546,0.46381322957198456,0.6388647287708862
1682104766324279,0.1432516975661864,0.4359807736324104,0.7099107347219045
1682104766340282,0.14044403753719426,0.4480659189745939,0.7937743190661477
1682104766356285,0.124330510414282,0.39630731670099983,0.8542000457770653
1682104766372287,0.135683222705425,0.38446631570916345,0.9121843289845124
1682104766388290,0.1267719539177543,0.3557793545433734,0.8552986953536275
1682104766404293,0.10638590066376707,0.3342946517128249,0.8187991149767297
1682104766420295,0.11895933470664488,0.3574883649958034,0.827832455939574
1682104766436298,0.12420843823910843,0.3640802624551762,0.8964370183871218
1682104766452301,0.09002822919050857,0.34003204394598274,0.9555199511711301
1682104766468303,0.006897077897306758,0.2091706721599147,1.0550087739375904
1682104766484306,-0.15777828641184088,0.16095216296635417,1.0916304264896617
1682104766500309,-0.19586480506599546,0.08465705348287145,1.210406652933547
1682104766516327,-0.164858472571908,0.031189440756847375,1.0401159685664148
1682104766532329,-0.08258182650492119,-0.04180971999694805,1.1046921492332338
1682104766548332,-0.05926604104676869,-0.03582818341344307,1.0270542458228427
1682104766564334,0.024597543297474544,0.053040360112916574,1.0694132906080718
1682104766580337,0.028625925078202386,0.10955977721827992,1.0413366903181505
1682104766596340,0.057312886243991557,0.11407644769970204,0.9655298695353629
1682104766612342,0.05487144274052014,0.170962081330587,0.9341573205157552
1682104766628345,0.06915388723582794,0.18207064927138195,0.9599145494773786
1682104766644348,-0.012512397955291021,0.0945448996719307,1.0648966201266497
1682104766660350,-0.09039444571602973,0.0319218738078888,1.148149843595026
1682104766676353,-0.1450827801937895,0.07281605249103507,1.221515220874342
1682104766692356,-0.07415884641794479,0.10748455024032921,1.162920576791028
1682104766708358,0.027038986800945963,0.12664988174258074,1.0572060730907147
1682104766724361,0.03216601815823594,0.21100175478751826,1.0761272602426182
1682104766740364,0.07537956816968006,0.2852216372930494,1.0496375982299533
1682104766756366,0.03717097734035235,0.2649576562142366,1.073075455863279
1682104766772369,-0.0567025253681237,0.25421530479896237,1.1127489127946895
1682104766788372,-0.10528725108720538,0.2520180056458381,1.0927290760662238
1682104766804374,-0.13763637750820168,0.23126573586633103,1.065384908827344
1682104766820377,-0.16583504997329657,0.2205233844510568,1.0678263523308154
1682104766836364,-0.16266117341878372,0.2234531166552225,1.1208056763561451
1682104766852367,-0.16815442130159441,0.19745174334325188,1.2973220416571296
1682104766868370,-0.16632333867399085,0.045349813076981604,1.4567483024338141
1682104766884372,-0.1636377508201723,0.06402685587853796,1.3698329137102307
1682104766900375,-0.11700617990386819,0.08453498130769788,1.358968490119783
1682104766916378,-0.03460746166170736,0.133974212252995,1.3007400625619896
1682104766932380,0.027527275501640247,0.1637598229953463,1.185992217898833
1682104766948383,0.10479896238651065,0.1768215457389184,1.1974670023651486
1682104766964386,0.10931563286793278,0.15094224460212136,1.2382391088731213
1682104766980388,0.12213321126115773,0.11651789120317346,1.247150377660792
1682104766996391,0.13092240787365572,0.10992599374380063,1.2571602960250248
1682104767012394,0.16192874036774274,0.09539940489814569,1.2301823453116656
1682104767028396,0.17328145265888484,0.12018005645838059,1.1928282597085529
1682104767044399,0.20123598077363258,0.13824673838406998,1.181719691767758
1682104767060402,0.21490806439307253,0.15130846112764207,1.1400930800335702
1682104767076404,0.24310673685816742,0.15106431677729493,1.1105516136415652
1682104767092407,0.25690089265278093,0.1608300907911806,1.0934615091172653
1682104767108410,0.23834592202639815,0.1856107423514155,1.139848935683223
1682104767124412,0.24591439688715955,0.15606927595941134,1.0324254215304798
1682104767140415,0.206240939955749,0.1532616159304192,1.034622720683604
1682104767156402,0.16742198825055343,0.1806057831692991,1.0205844205386434
1682104767172405,0.169253070878157,0.18927290760662263,0.988845654993515
1682104767188408,0.18927290760662263,0.18878461890592835,0.9053482871747924
1682104767204410,0.19745174334325188,0.21771572442206466,0.9285420004577709
1682104767220413,0.19269092851148262,0.22320897230487535,0.864820325017166
1682104767236415,0.21149004348821254,0.23907835507743957,0.7819333180743113
1682104767252418,0.22186617837796607,0.24042114900434886,0.816723887998779
1682104767268421,0.24847791256580454,0.25519188220035094,0.749584191653315
1682104767284423,0.23700312809948887,0.2726482032501716,0.8046387426565955
1682104767300426,0.22601663233386748,0.26556801709010447,0.8322270542458226
1682104767316429,0.239810788128481,0.27875181200885013,0.7909666590371556
1682104767332431,0.22955672541390104,0.3015793087663079,0.7686274509803921
1682104767348434,0.22198825055313964,0.3363698786907756,0.7255359731441215
1682104767364437,0.2246738384069582,0.34003204394598274,0.7873044937819484
1682104767380439,0.21722743572137038,0.3385671778438999,0.7383535515373465
1682104767396442,0.19122606240939977,0.37909514000152633,0.7520256351567864
1682104767412445,0.21747158007171752,0.3562676432440677,0.7489738307774472
1682104767428447,0.23675898374914173,0.3952086671244377,0.7516594186312657
1682104767444450,0.2603189135576409,0.3986266880292977,0.727122911421378
1682104767460453,0.28925001907377723,0.4174258030060276,0.6543678950179297
1682104767476471,0.31268787670710285,0.3936217288471813,0.6566872663462275
1682104767492473,0.31732661936369855,0.39545281147478484,0.6967269398031588
1682104767508476,0.3183031967650871,0.38495460440985774,0.6829327840085453
1682104767524479,0.3325856412603949,0.3830014496070806,0.7031967650873581
1682104767540481,0.36261539635309337,0.3855649652857256,0.7224841687647823
1682104767556484,0.3893492027161063,0.3867856870374613,0.7348134584573129
1682104767572487,0.39996948195620696,0.37946135652704704,0.7584954604409857
1682104767588489,0.4131532768749526,0.3666437781338212,0.7775387197680628
1682104767604492,0.421576256961929,0.3674982833600362,0.8018310826276034
1682104767620494,0.42694743266956614,0.3860532539864199,0.8335698481727318
1682104767636497,0.43915465018692323,0.4107118333714812,0.8313725490196076
1682104767652500,0.45343709468223103,0.4329289692530711,0.8103761348897534
1682104767668502,0.4473334859235525,0.4476997024490732,0.814160372320134
1682104767684505,0.42572671091783043,0.4607614251926453,0.826123445487144
1682104767700508,0.42267490653849116,0.47016098268101025,0.8206301976043333
1682104767716510,0.4270695048447397,0.48322270542458234,0.8075684748607612
1682104767732513,0.4166933699549862,0.4859082932784009,0.7693598840314335
1682104767748516,0.4064393072404062,0.48493171587701234,0.7580071717402914
1682104767764518,0.3969176775768677,0.4694285496299688,0.7616693369954985
1682104767780521,0.3838559548332956,0.4535591668574046,0.7676508735790035
1682104767796508,0.3834897383077749,0.45331502250705746,0.7669184405279621
1682104767812511,0.39923704890516554,0.46051728084229815,0.7698481727321278
1682104767828514,0.41681544213015975,0.4664988174258031,0.7482413977264057
1682104767844516,0.42902265964751685,0.47345693141069667,0.7571526665140764
1682104767860519,0.42401770046540044,0.4674753948271917,0.7537346456092164
1682104767876522,0.42609292744335114,0.461127641718166,0.75556572823682
1682104767892524,0.42902265964751685,0.4564888990615703,0.7531242847333486
1682104767908527,0.43732356755931967,0.4545357442587932,0.7582513160906386
1682104767924530,0.4406195162890061,0.43915465018692323,0.7588616769665064
1682104767940532,0.44745555809872606,0.4313420309758147,0.764965285725185
1682104767956535,0.44660105287251106,0.419867246509499,0.7739986266880292
1682104767972538,0.4385442893110554,0.4148622873273826,0.7914549477378499
1682104767988540,0.43915465018692323,0.40717174029144765,0.8024414435034712
1682104768004543,0.4597848477912567,0.35382619974059626,0.8136720836194398
1682104768020546,0.4492866407263296,0.39826047150377697,0.8103761348897534
1682104768036548,0.4485542076752882,0.38397802700846917,0.804516670481422
1682104768052551,0.4494087129015032,0.3872739757381556,0.8191653315022505
1682104768068554,0.4456244754711225,0.38825055313954415,0.8147707331960019
1682104768084556,0.4461127641718168,0.39411001754787556,0.8224612802319369
1682104768100559,0.4435492484931718,0.40961318379491907,0.8396734569314104
1682104768116577,0.45160601205462747,0.3981383993286034,0.8200198367284655
1682104768132579,0.4607614251926453,0.3821469443808656,0.8047608148317691
1682104768148582,0.4439154650186925,0.39667353322652055,0.7981689173723963
1682104768164585,0.43366140230411254,0.3881284809643706,0.7709468223086899
1682104768180587,0.4321965362020297,0.37909514000152633,0.7802243076218813
1682104768196590,0.4245059891660947,0.3721370260166319,0.7997558556496527
1682104768212593,0.42182040131227616,0.36444647898069693,0.7960936903944456
1682104768228595,0.426703288319219,0.35504692149233197,0.7798580910963606
1682104768244598,0.425848783093004,0.35431448844129054,0.7733882658121614
1682104768260601,0.4165712977798126,0.349065384908827,0.7785152971694513
1682104768276603,0.4165712977798126,0.34552529182879343,0.787426565957122
1682104768292606,0.43073167009994684,0.35883115892271267,0.7981689173723963
1682104768308609,0.44745555809872606,0.36932936598763977,0.8081788357366291
1682104768324611,0.44403753719386607,0.3783627069504849,0.7964599069199663
1682104768340614,0.43317311360341826,0.383733882658122,0.8024414435034712
1682104768356617,0.4165712977798126,0.3998474097810334,0.8214847028305483
1682104768372619,0.3976501106279091,0.41010147249561335,0.8247806515602347
1682104768388622,0.3859311818112463,0.4195010299839783,0.8089112687876705
1682104768404625,0.3927672236209663,0.42951094834821113,0.823559929808499
1682104768420627,0.3776302738994435,0.4469672693980318,0.8340581368734261
1682104768436615,0.3704280155642019,0.4545357442587932,0.8509040970473789
1682104768452617,0.346501869230182,0.4623483634699017,0.8627450980392153
1682104768468620,0.3297779812314028,0.47479972533760595,0.868238345922026
1682104768484623,0.3334401464866099,0.46686503395132384,0.9016861219195853
1682104768500625,0.32782482642862565,0.5022659647516594,0.8880140383001454
1682104768516628,0.33197528038452706,0.5320515754940107,0.8789806973373011
1682104768532631,0.32904554818036136,0.5473105973907071,0.8552986953536275
1682104768548633,0.31134508278019357,0.5415732051575493,0.8418707560845347
1682104768564636,0.29596398870832363,0.5354695963988707,0.8316166933699547
1682104768580639,0.29681849393453863,0.5369344625009536,0.816723887998779
1682104768596641,0.30255588616769646,0.5300984206912336,0.786572060730907
1682104768612644,0.3098802166781107,0.5241168841077286,0.7633783474479285
1682104768628646,0.3075608453498129,0.5114213778896772,0.7582513160906386
1682104768644649,0.30951400015259,0.49628442816815443,0.7689936675059128
1682104768660652,0.31805905241474,0.4909132524605173,0.7829098954756999
1682104768676654,0.32318608377202995,0.48993667505912875,0.8281986724650947
1682104768692657,0.3392996108949413,0.47821774624246594,0.7923094529640649
1682104768708660,0.3397878995956356,0.4623483634699017,0.7860837720302127
1682104768724662,0.3351491569390399,0.4452582589456018,0.7633783474479285
1682104768740665,0.32281986724650924,0.4221866178377969,0.7642328526741435
1682104768756683,0.32440680552376566,0.41974517433432545,0.7503166247043564
1682104768772686,0.3392996108949413,0.4112001220721755,0.768383306630045
1682104768788688,0.3461356527046613,0.41522850385290333,0.7770504310673685
1682104768804691,0.35138475623712484,0.4053406576638441,0.7816891737239642
1682104768820694,0.345647364003967,0.395696955825132,0.7980468451972227
1682104768836696,0.3338063630121306,0.3927672236209663,0.8196536202029447
1682104768852699,0.31854734111543426,0.393987945372702,0.8366216525520711
1682104768868702,0.30646219577325073,0.40009155413138053,0.852002746623941
1682104768884704,0.29889372091248934,0.4043640802624555,0.8686045624475467
1682104768900707,0.29291218432898436,0.40851453421835693,0.8744640268558781
1682104768916710,0.2914473182269015,0.42230869001297044,0.8917982757305261
1682104768932712,0.2833905546654458,0.4379339284351875,0.9127946898603803
1682104768948715,0.28082703898680084,0.4501411459525446,0.9230487525749602
1682104768964717,0.2730144197756923,0.46381322957198456,0.9051041428244453
1682104768980720,0.2713054093232623,0.4652780956740674,0.8794689860379954
1682104768996723,0.27362478065156015,0.4597848477912567,0.8429694056610968
1682104769012725,0.2796063172350651,0.47650873579003594,0.8335698481727318
1682104769028728,0.2852216372930494,0.4749217975127795,0.8234378576333254
1682104769044731,0.2843671320668344,0.457709620813306,0.8402838178072782
1682104769060733,0.28412298771648725,0.4418402380407418,0.8482185091935603
1682104769076721,0.2914473182269015,0.4364690623331047,0.8480964370183868
1682104769092723,0.2957198443579765,0.4337834744792861,0.8429694056610968
1682104769108726,0.2990157930876629,0.4317082475013354,0.8560311284046689
1682104769124729,0.30170138094148147,0.43439383535515397,0.8667734798199431
1682104769140731,0.31219958800640857,0.4431830319676511,0.862256809338521
1682104769156734,0.3297779812314028,0.4461127641718168,0.8721446555275802
1682104769172737,0.33075455863279135,0.4539253833829253,0.8589608606088346
1682104769188739,0.32452887769893923,0.46601052872510884,0.8517586022735939
1682104769204742,0.3275806820782785,0.47052719920653097,0.8582284275577932
1682104769220745,0.3205004959182114,0.47223620965896096,0.883009079118029
1682104769236747,0.31403067063401213,0.4711375600823988,0.897779812314031
1682104769252750,0.32062256809338496,0.4557564660105289,0.8729991607537952
1682104769268753,0.32147707331959996,0.4452582589456018,0.8555428397039746
1682104769284755,0.32318608377202995,0.42487220569161543,0.8457770656900889
1682104769300758,0.32697032120241065,0.423285267414359,0.8578622110322724
1682104769316761,0.33282978561074206,0.4107118333714812,0.8582284275577932
1682104769332763,0.33246356908522134,0.3872739757381556,0.8704356450751503
1682104769348766,0.3356374456397342,0.3690852216372926,0.8797131303883425
1682104769364769,0.3306324864576178,0.3565117875944148,0.8734874494544895
1682104769380771,0.3346608682383456,0.33209735255970063,0.8701915007248031
1682104769396789,0.3346608682383456,0.3452811474784463,0.8709239337758445
1682104769412792,0.34088654917219774,0.3389333943694206,0.877027542534524
1682104769428794,0.3401541161211563,0.33588158999008133,0.8852063782711532
1682104769444797,0.3259937438010221,0.33966582742046203,0.8924086366063939
1682104769460800,0.32489509422445995,0.3313649195086592,0.8988784618905932
1682104769476802,0.31769283588921926,0.32733653772793136,0.8987563897154196
1682104769492805,0.31232166018158214,0.32404058899824495,0.8972915236133368
1682104769508808,0.30841535057602787,0.32489509422445995,0.8880140383001454
1682104769524810,0.31525139238574784,0.3234302281223771,0.8823987182421611
1682104769540813,0.31110093842984643,0.3292896925307085,0.9022964827954532
1682104769556816,0.306950484473945,0.32440680552376566,0.8810559243152518
1682104769572818,0.3057297627222093,0.31476310368505356,0.8653086137178603
1682104769588821,0.3124437323567557,0.3142748149843593,0.8615243762874796
1682104769604824,0.3115892271305407,0.3175707637140457,0.8606698710612646
1682104769620826,0.3141527428091857,0.32782482642862565,0.8644541084916453
1682104769636829,0.317204547188525,0.34259555962462773,0.8555428397039746
1682104769652832,0.32269779507133567,0.3582207980468448,0.8576180666819253
1682104769668834,0.3162279697871364,0.3602960250247955,0.8567635614557103
1682104769684837,0.3065842679484243,0.36395819028000265,0.8589608606088346
1682104769700840,0.29291218432898436,0.36823071641107763,0.856275272755016
1682104769716827,0.28326848249027226,0.37616540779736063,0.849439230945296
1682104769732830,0.2838788433661401,0.38788433661402344,0.8262455176623176
1682104769748832,0.2850995651178758,0.4007019150072484,0.8091554131380176
1682104769764835,0.2813153276874951,0.4024109254596784,0.8054932478828105
1682104769780838,0.27948424505989156,0.4015564202334634,0.8031738765545127
1682104769796840,0.27618829633020514,0.40204470893415767,0.8187991149767297
1682104769812843,0.27069504844739445,0.39911497672999197,0.8364995803768975
1682104769828846,0.2687418936446173,0.40082398718242196,0.8510261692225525
1682104769844848,0.2647135118638895,0.3980163271534298,0.8513923857480732
1682104769860851,0.2642252231631952,0.4022888532845048,0.8419928282597082
1682104769876854,0.26642252231631947,0.40766002899214193,0.8469977874418246
1682104769892856,0.26520180056458376,0.41632715342946547,0.8417486839093611
1682104769908859,0.2687418936446173,0.41303120469977905,0.8448004882887004
1682104769924862,0.27118333714808873,0.4175478751812012,0.8384527351796747
1682104769940864,0.2780193789578087,0.42682536049439257,0.8421149004348818
1682104769956867,0.28155947203784226,0.42731364919508685,0.8438239108873118
1682104769972869,0.2822919050888837,0.4204776073853669,0.8634775310902567
1682104769988872,0.28033875028610655,0.4165712977798126,0.8891126878767075
1682104770004875,0.27875181200885013,0.40668345159075336,0.9134050507362481
1682104770020877,0.2735027084763866,0.3927672236209663,0.9429465171282523
1682104770036895,0.2780193789578087,0.40473029678797623,0.9411154345006487
1682104770052898,0.2938887617303729,0.38190280003051846,0.9303730830853745
1682104770068901,0.2885175860227358,0.4169375143053333,0.9240253299763488
1682104770084903,0.2944991226062408,0.4389105058365761,0.9101091020065617
1682104770100906,0.2982833600366215,0.4489204242008089,0.9156023498893724
1682104770116909,0.2915693904020751,0.4528267338063632,0.9145037003128103
1682104770132911,0.2800946059357594,0.45795376516365316,0.9060807202258339
1682104770148914,0.271671625848783,0.4569771877622646,0.9069352254520489
1682104770164917,0.2633707179369802,0.4612497138933396,0.911451895933471
1682104770180919,0.26068513008316163,0.45673304341191745,0.9090104524299996
1682104770196922,0.2611734187838559,0.4566109712367439,0.9149919890135045
1682104770212925,0.2532387273975738,0.4507515068284125,0.9214618142977038
1682104770228927,0.2516517891203174,0.44965285725185034,0.9210955977721831
1682104770244930,0.24969863431754025,0.4557564660105289,0.8881361104753189
1682104770260933,0.26727702754253446,0.4347600518806747,0.8653086137178603
1682104770276935,0.2578774700541695,0.4750438696879531,0.8572518501564046
1682104770292938,0.26068513008316163,0.4784618905928131,0.8451667048142211
1682104770308941,0.2590981918059052,0.46967269398031597,0.8435797665369646
1682104770324943,0.25397116044861523,0.4595407034409096,0.8501716639963375
1682104770340946,0.24872205691615168,0.4552681773098346,0.8593270771343553
1682104770356933,0.24554818036163883,0.44916456855115605,0.8723887998779274
1682104770372936,0.23675898374914173,0.4363469901579311,0.8789806973373011
1682104770388939,0.22626077668421463,0.4280460822461283,0.8809338521400782
1682104770404941,0.2191805905241475,0.4165712977798126,0.8874036774242775
1682104770420944,0.2124666208896011,0.4093690394445719,0.8894789044022282
1682104770436946,0.19964904249637616,0.40680552376592694,0.8751964599069204
1682104770452949,0.19049362935835834,0.40766002899214193,0.8667734798199431
1682104770468952,0.1826810101472498,0.41144426642252263,0.8621347371633474
1682104770484954,0.18158236057068766,0.41437399862668833,0.8646982528419924
1682104770500957,0.18585488670176264,0.42304112306401187,0.8720225833524067
1682104770516960,0.17938506141756339,0.4379339284351875,0.8976577401388575
1682104770532962,0.1826810101472498,0.4484321355001146,0.9051041428244453
1682104770548965,0.17901884489204267,0.460273136491951,0.9018081940947589
1682104770564968,0.18072785534447267,0.4661326009002824,0.898634317540246
1682104770580970,0.17987335011825767,0.4783398184176395,0.8974135957885103
1682104770596973,0.17694361791409197,0.47943846799420164,0.8802014190890368
1682104770612976,0.18451209277485336,0.4829785610742352,0.8533455405508503
1682104770628978,0.19745174334325188,0.48200198367284663,0.8179446097505148
1682104770644981,0.2103913939116504,0.491279468986038,0.7868162050812542
1682104770660984,0.23150988021667818,0.5061722743572137,0.7638666361486228
1682104770676971,0.25555809872587165,0.5086137178606851,0.7440909437705043
1682104770692974,0.2730144197756923,0.5047074082551308,0.7343251697566187
1682104770708976,0.2822919050888837,0.5033646143282215,0.7372549019607844
1682104770724979,0.2905928130006865,0.5065384908827344,0.7350576028076601
1682104770740982,0.2977950713359272,0.4997024490730144,0.753002212558175
1682104770756984,0.30463111314564717,0.48944838635843446,0.7620355535210193
1682104770772987,0.3082932784008543,0.48017090104524307,0.7763179980163271
1682104770788990,0.31097886625467286,0.47150377660791953,0.7816891737239642
1682104770804992,0.31512932021057427,0.46930647745479526,0.7958495460440984
1682104770820995,0.31781490806439283,0.47565423056382095,0.8024414435034712
1682104770836998,0.3150072480354007,0.48017090104524307,0.818432898451209
1682104770853000,0.31390859845883856,0.4988479438467994,0.8314946211947811
1682104770869003,0.30939192797741644,0.5039749752040894,0.832104982070649
1682104770885006,0.30646219577325073,0.5095902952620737,0.826977950713359
1682104770901008,0.3010910200656136,0.504097047379263,0.8164797436484319
1682104770917011,0.2952315556572822,0.5020218204013123,0.8267338063630119
1682104770933014,0.30060273136491933,0.4959182116426337,0.8190432593270769
1682104770949016,0.3010910200656136,0.48737315938048376,0.8356450751506825
1682104770965019,0.30304417486839075,0.4774853131914245,0.8469977874418246
1682104770981022,0.30182345311665504,0.46478980697337313,0.8400396734569311
1682104770997039,0.3045090409704736,0.4641794460975053,0.8236820019836726
1682104771013042,0.30841535057602787,0.46466773479819956,0.818432898451209
1682104771029045,0.3040207522697793,0.46845197222858026,0.8129396505683983
1682104771045047,0.2995040817883572,0.46308079652094314,0.8125734340428776
1682104771061050,0.29083695735103365,0.4657663843747617,0.8174563210498205
1682104771077053,0.28912794689860366,0.46430151827267885,0.8124513618677041
1682104771093055,0.29205767910276936,0.4624704356450753,0.8050049591821162
1682104771109058,0.30255588616769646,0.46173800259403386,0.8059815365835048
1682104771125061,0.3141527428091857,0.45807583733882673,0.791699092088197
1682104771141063,0.3242847333485921,0.4603952086671246,0.7801022354467078
1682104771157066,0.32941176470588207,0.4614938582436867,0.76411078049897
1682104771173069,0.33026626993209707,0.462836652170596,0.7543450064850843
1682104771189071,0.3342946517128249,0.4674753948271917,0.7700923170824749
1682104771205074,0.3367360952162963,0.4758983749141681,0.7851071946288242
1682104771221077,0.33746852826733775,0.4732127870603495,0.7958495460440984
1682104771237079,0.3468680857557027,0.4788281071183338,0.818432898451209
1682104771253082,0.34296177615014845,0.48773937590600447,0.837232013427939
1682104771269085,0.3414969100480656,0.4881055924315252,0.8446784161135268
1682104771285087,0.342229343099107,0.48871595330739304,0.8402838178072782
1682104771301090,0.35089646753643056,0.49835965514610514,0.8253910124361026
1682104771317077,0.3562676432440677,0.5047074082551308,0.8151369497215226
1682104771333080,0.3640802624551762,0.5067826352330815,0.8001220721751734
1682104771349083,0.36981765468833405,0.5059281300068665,0.7932860303654534
1682104771365085,0.3709163042648962,0.5044632639047837,0.7953612573434041
1682104771381088,0.36932936598763977,0.5042191195544365,0.793408102540627
1682104771397091,0.36688792248416835,0.49701686121919586,0.798535133897917
1682104771413093,0.3595635919737541,0.4889600976577402,0.8014648661020827
1682104771429096,0.3466239414053556,0.47394522011139095,0.8012207217517355
1682104771445099,0.3285572594796671,0.4633249408712903,0.7969481956206605
1682104771461101,0.3179369802395664,0.45209430075532175,0.7932860303654534
1682104771477104,0.3090257114518957,0.4564888990615703,0.8131837949187455
1682104771493106,0.3082932784008543,0.4578316929884796,0.837232013427939
1682104771509109,0.30841535057602787,0.4566109712367439,0.8565194171053632
1682104771525112,0.30682841229877145,0.4535591668574046,0.8601815823605703
1682104771541114,0.29547570000762935,0.4603952086671246,0.8517586022735939
1682104771557117,0.2886396581979094,0.46564431219958813,0.8291752498664833
1682104771573120,0.28876173037308295,0.46344701304646385,0.7971923399710077
1682104771589122,0.2944991226062408,0.4699168383306631,0.7769283588921949
1682104771605125,0.2897383077744715,0.47943846799420164,0.7578850995651178
1682104771621128,0.2947432669565879,0.4809033340962845,0.756420233463035
1682104771637146,0.29205767910276936,0.4816357671473259,0.76923781185626
1682104771653148,0.2857099259937437,0.4779736018921188,0.7932860303654534
1682104771669151,0.2714274814984359,0.47016098268101025,0.8083009079118026
1682104771685154,0.25555809872587165,0.4644235904478524,0.8247806515602347
1682104771701156,0.24225223163195242,0.45380331120775175,0.8360112916762032
1682104771717159,0.23041123064011604,0.45087357900358604,0.8516365300984203
1682104771733162,0.23175402456702532,0.4502632181277182,0.8684824902723731
1682104771749164,0.2377355611505303,0.4518501564049746,0.8683604180971995
1682104771765167,0.24786755168993668,0.4557564660105289,0.8675059128709846
1682104771781170,0.2578774700541695,0.46686503395132384,0.8638437476157774
1682104771797172,0.2632486457618066,0.46930647745479526,0.8675059128709846
1682104771813175,0.2705729762722209,0.4784618905928131,0.8653086137178603
1682104771829177,0.2847333485923551,0.4805371175707638,0.8385748073548482
1682104771845180,0.28839551384756223,0.48273441672388806,0.8362554360265504
1682104771861183,0.28241397726405726,0.4813916227969788,0.8421149004348818
1682104771877185,0.2692301823453116,0.4754100862134738,0.8451667048142211
1682104771893188,0.2632486457618066,0.460273136491951,0.859693293659876
1682104771909191,0.25677882047760736,0.4461127641718168,0.8769054703593504
1682104771925193,0.2566567483024338,0.4379339284351875,0.8883802548256661
1682104771941196,0.2553139543755245,0.43329518577859183,0.8893568322270546
1682104771957183,0.25384908827344166,0.4359807736324104,0.8910658426794846
1682104771973186,0.25311665522240023,0.43622491798275753,0.8869153887235832
1682104771989189,0.25177386129549095,0.43866636148622895,0.8816662851911197
1682104772005191,0.2453040360112917,0.43707942320897253,0.8896009765774018
1682104772021194,0.24591439688715955,0.43817807278553467,0.8847180895704589
1682104772037197,0.24628061341268026,0.4393987945372704,0.883863584344244
1682104772053199,0.2453040360112917,0.4375677119096668,0.8786144808117804
1682104772069202,0.24835584039063097,0.4434271763179982,0.8843518730449382
1682104772085205,0.24505989166094455,0.4476997024490732,0.8898451209277489
1682104772101207,0.2448157473105974,0.4452582589456018,0.8893568322270546
1682104772117210,0.24628061341268026,0.44403753719386607,0.8806897077897311
1682104772133213,0.24408331425955598,0.44293888761730393,0.882154573891814
1682104772149215,0.2401770046540017,0.4413519493400475,0.8881361104753189
1682104772165218,0.2410315098802167,0.4417181658655682,0.8806897077897311
1682104772181221,0.24249637598229956,0.4406195162890061,0.8777599755855654
1682104772197223,0.24029907682917528,0.4442816815442132,0.8806897077897311
1682104772213226,0.24225223163195242,0.44660105287251106,0.8758068207827883
1682104772229229,0.24029907682917528,0.4434271763179982,0.8728770885786217
1682104772245231,0.2418860151064317,0.4425726710917832,0.8703135728999767
1682104772261234,0.24225223163195242,0.43817807278553467,0.8626230258640417
1682104772277252,0.240665293354696,0.43353933012893897,0.8585946440833139
1682104772293254,0.2360265506981003,0.4303654535744261,0.8566414892805367
1682104772309257,0.23785763332570387,0.428412298771649,0.852002746623941
1682104772325260,0.23651483939879459,0.4274357213702604,0.8499275196459903
1682104772341262,0.238956282902266,0.4280460822461283,0.8493171587701225
1682104772357265,0.23334096284428174,0.4274357213702604,0.8577401388570989
1682104772373268,0.22748149843595034,0.4263370717936983,0.8582284275577932
1682104772389270,0.22394140535591678,0.4203555352101933,0.8527351796749825
1682104772405273,0.22333104448004892,0.42023346303501974,0.8474860761425189
1682104772421276,0.21844815747310609,0.430121309224079,0.8478522926680396
1682104772437278,0.20965896086060898,0.4289005874723433,0.8444342717631796
1682104772453281,0.21551842526894038,0.4313420309758147,0.8371099412527654
1682104772469284,0.2153963530937668,0.43402761882963325,0.8405279621576254
1682104772485286,0.22235446707866036,0.4372014953841461,0.8543221179522389
1682104772501289,0.2243076218814375,0.4367132066834518,0.8604257267109174
1682104772517292,0.22711528191042962,0.4404974441138325,0.8653086137178603
1682104772533294,0.22284275577935464,0.4452582589456018,0.8529793240253296
1682104772549297,0.22357518883039607,0.44745555809872606,0.8546883344777596
1682104772565300,0.22223239490348679,0.44867627985046177,0.8549324788281067
1682104772581302,0.22284275577935464,0.4531929503318839,0.8618905928130003
1682104772597290,0.2205233844510568,0.45587853818570245,0.8646982528419924
1682104772613292,0.2234531166552225,0.4633249408712903,0.8731212329289688
1682104772629295,0.22320897230487535,0.46564431219958813,0.869947356374456
1682104772645298,0.2554360265506981,0.48358892195010306,0.8731212329289688
1682104772661300,0.22064545662623036,0.4708934157320517,0.9193865873197531
1682104772677303,0.20819409475852613,0.46393530174715814,0.8510261692225525
1682104772693306,0.21344319829098968,0.46552224002441456,0.8485847257190811
1682104772709308,0.2208896009765775,0.47223620965896096,0.8485847257190811
1682104772725311,0.22418554970626392,0.48065918974593735,0.8479743648432132
1682104772741314,0.22980086976424818,0.4834668497749295,0.8551766231784539
1682104772757316,0.23443961242084388,0.4845654993514916,0.8539559014267182
1682104772773319,0.2377355611505303,0.48187991149767306,0.8445563439383532
1682104772789322,0.23712520027466244,0.4833447775997559,0.8441901274128325
1682104772805324,0.238101777676051,0.4854200045777066,0.8440680552376589
1682104772821327,0.23749141680018315,0.48859388113221947,0.8385748073548482
1682104772837329,0.23590447852292673,0.4867627985046159,0.840650034332799
1682104772853332,0.23443961242084388,0.4898146028839552,0.8427252613107497
1682104772869335,0.23260852979324032,0.4888380254825666,0.8410162508583197
1682104772885337,0.23065537499046318,0.49616235599298086,0.8319829098954754
1682104772901340,0.22504005493247892,0.4900587472343023,0.8300297550926983
1682104772917358,0.22308690012970178,0.492988479438468,0.8448004882887004
1682104772933361,0.21734950789654395,0.49066910811017017,0.8382085908293275
1682104772949363,0.21954680704966822,0.4845654993514916,0.8335698481727318
1682104772965366,0.21564049744411395,0.48395513847562377,0.8327153429465168
1682104772981369,0.21271076523994825,0.48114747844663164,0.8386968795300218
1682104772997371,0.21112382696269183,0.48029297322041664,0.8438239108873118
1682104773013374,0.21527428091859324,0.48358892195010306,0.8415045395590139
1682104773029377,0.21454184786755182,0.48285648889906163,0.838086518654154
1682104773045379,0.20770580605783184,0.47687495231555665,0.8351567864499883
1682104773061382,0.19720759899290474,0.4686961165789274,0.8340581368734261
1682104773077385,0.1978179598687726,0.4574654764629589,0.8349126420996411
1682104773093387,0.20392156862745114,0.4623483634699017,0.8384527351796747
1682104773109390,0.21319905394064254,0.4607614251926453,0.8383306630045011
1682104773125393,0.22064545662623036,0.464545662623026,0.8343022812237733
1682104773141395,0.22796978713664462,0.47223620965896096,0.8333257038223847
1682104773157398,0.2305333028152896,0.47565423056382095,0.838941023880369
1682104773173401,0.22735942626077676,0.4754100862134738,0.8418707560845347
1682104773189403,0.2267490653849089,0.4762645914396888,0.8422369726100554
1682104773205406,0.22943465323872747,0.47907225146868093,0.8344243533989468
1682104773221408,0.23553826199740602,0.4788281071183338,0.8339360646982525
1682104773237396,0.23736934462500958,0.48236820019836735,0.8422369726100554
1682104773253399,0.23456168459601745,0.4860303654535745,0.8529793240253296
1682104773269401,0.237247272449836,0.4883497367818723,0.8612802319371324
1682104773285404,0.2394445716029603,0.49579613946746015,0.862256809338521
1682104773301406,0.24078736552986957,0.4943312733653773,0.8615243762874796
1682104773317409,0.2360265506981003,0.4986037994964523,0.8654306858930338
1682104773333412,0.23663691157396816,0.5029983978027008,0.8570077058060575
1682104773349414,0.23749141680018315,0.5034866865033951,0.8500495918211639
1682104773365417,0.23492790112153816,0.508369573510338,0.8587167162584874
1682104773381420,0.23639276722362101,0.5077592126344701,0.8635996032654303
1682104773397422,0.23736934462500958,0.502388036926833,0.8582284275577932
1682104773413425,0.241519798580911,0.499824521248188,0.8509040970473789
1682104773429428,0.24750133516441597,0.4931105516136416,0.8484626535439075
1682104773445430,0.25091935606927596,0.4863965819790952,0.8416266117341875
1682104773461433,0.2566567483024338,0.4843213550011445,0.8405279621576254
1682104773477436,0.2553139543755245,0.47638666361486237,0.8440680552376589
1682104773493438,0.2566567483024338,0.4704051270313574,0.8513923857480732
