Timestamp (microseconds),Gyro X (°/s),Gyro Y (°/s),Gyro Z (°/s)
1682104747953521,-7.766842145418423,15.701533531700534,17.624170290684333
1682104747969522,-10.025177386129485,15.548943312733627,16.830701152056122
1682104747985522,-9.903105210955914,15.396353093766606,16.067750057221247
1682104748001522,-8.163576714732585,15.182726787212914,15.060654612039343
1682104748017522,-6.1493858243686645,14.847028305485537,14.236667429617683
1682104748033523,-5.2338445105668825,15.426871137560056,13.046463721675423
1682104748049523,-4.074158846417959,16.403448538948624,11.673151750972693
1682104748065523,-3.3112077515830833,16.861219195849458,9.140154116121153
1682104748081524,-2.334630350194516,17.1053635461966,6.668192568856284
1682104748097524,0.2594033722438098,16.617074845502316,4.623483634699028
1682104748113524,1.4801251239795192,16.830701152056122,2.883955138475585
1682104748129524,-0.015259021896667946,17.532616159304098,0.8392462043183286
1682104748145525,-0.38147554741738077,17.01380941481648,-0.6256198977645226
1682104748161525,-0.5035477225909517,16.495002670328745,-2.1515220874341594
1682104748177525,-1.3580529488059483,15.609979400320412,-3.0670634012359415
1682104748193525,-3.5248340581368893,14.938582436865772,-4.1962310215915295
1682104748209526,-2.6092927443351073,13.504234378576257,-5.630579079880931
1682104748225526,2.0294499122605885,10.269321736476627,-4.959182116426291
1682104748241526,6.88181887541009,7.858396276798658,-2.090485999847374
1682104748257526,9.658960860608772,5.630579079880931,-0.7171740291447577
1682104748273559,7.644769970244852,4.135194934004744,-1.6632333867398756
1682104748289559,6.637674525062948,2.9449912260623705,-2.853437094682249
1682104748305560,8.1025406271458,1.846341649500232,-3.555352101930225
1682104748321560,11.581597619592571,0.8087281605248791,-4.074158846417959
1682104748337560,15.030136568245894,0.07629510948345342,-5.050736247806526
1682104748353561,17.77676050965124,-0.07629510948345342,-7.034409094376997
1682104748369561,20.950637064164084,0.9613183794918996,-9.56740672922865
1682104748385561,22.201876859693243,2.426184481574751,-11.367971313038765
1682104748401561,18.417639429312544,4.745555809872599,-13.717860685130063
1682104748417562,10.696574349584125,7.370107576104374,-15.976195925841239
1682104748433562,2.30411230640118,8.77393759060044,-17.257953765163734
1682104748449562,-3.463797970550104,8.07202258335235,-17.502098115510876
1682104748465562,-1.4496070801861833,6.1493858243686645,-15.030136568245894
1682104748481563,1.144426642252256,4.623483634699028,-11.886778057526499
1682104748497563,-2.3956664377813013,4.898146028839506,-11.245899137865194
1682104748513563,-4.959182116426291,5.2338445105668825,-11.184863050278409
1682104748529564,-1.3275349050126124,5.142290379186647,-9.628442816815436
1682104748545564,1.6021972991530902,5.53902494850081,-8.438239108873063
1682104748561564,0.9918364232852355,7.125963225757232,-8.62134737163342
1682104748577564,-0.16784924086368846,9.628442816815436,-8.987563897154132
1682104748593567,-3.372243839169869,11.795223926146264,-8.560311284046634
1682104748609567,-8.1025406271458,13.717860685130063,-8.194094758525921
1682104748625567,-15.396353093766606,14.236667429617683,-7.919432364385443
1682104748641567,-15.426871137560056,14.908064393072323,-7.675288014038301
1682104748657568,-7.583733882658066,13.90096894789042,-4.83710994125272
1682104748673568,-6.1493858243686645,13.778896772716848,-4.531929503318793
1682104748689568,-9.506370641641865,12.466620889600904,-4.83710994125272
1682104748705568,-4.959182116426291,10.63553826199734,-5.630579079880931
1682104748721569,6.576638437476163,8.499275196459848,-3.341725795376533
1682104748737569,8.77393759060044,7.797360189211872,-4.83710994125272
1682104748753569,8.529793240253298,8.041504539559014,-7.1869993133440175
1682104748769569,6.118867780575215,8.957045853360796,-8.62134737163342
1682104748785570,-1.2970168612191628,9.353780422674845,-9.170672159914488
1682104748801570,-2.3956664377813013,8.926527809567347,-7.064927138170447
1682104748817570,5.1117723353933116,7.492179751277945,-3.250171663996298
1682104748833571,10.849164568551146,6.2714579995422355,0.38147554741738077
1682104748849571,11.062790875104838,6.301976043335571,2.731364919508678
1682104748865571,4.562447547112242,6.790264744029855,3.1586175326161765
1682104748881571,-3.1891355764095124,6.332494087129021,3.799496452277367
1682104748897572,-6.179903868162,5.172808422980097,4.745555809872599
1682104748913604,0.6866559853513081,4.1046768902112944,7.797360189211872
1682104748929605,-1.8158236057068962,1.8158236057068962,8.89600976577401
1682104748945605,-2.853437094682249,-1.3275349050126124,10.238803692683291
1682104748961605,-4.776073853665935,-1.846341649500232,9.811551079575793
1682104748977605,-4.501411459525457,-0.2594033722438098,8.407721065079727
1682104748993606,-6.637674525062948,-1.846341649500232,9.140154116121153
1682104749009606,-8.407721065079727,-3.799496452277367,11.184863050278409
1682104749025606,-10.78812848096436,-5.386434729533789,12.13092240787364
1682104749041607,-12.222476539253762,-7.064927138170447,13.290608072022565
1682104749057607,-9.323262378881509,-7.827878233005208,14.480811779964824
1682104749073607,2.7008468757152286,-4.409857328145222,11.795223926146264
1682104749089607,8.133058670939135,-2.334630350194516,9.597924773021987
1682104749105608,9.29274433508806,1.3275349050126124,7.278553444724139
1682104749121608,4.16571297779808,3.7079423208972457,5.691615167467717
1682104749137608,0.22888532845047393,4.959182116426291,5.294880598153668
1682104749153608,-0.045777065690117524,5.661097123674381,5.416952773327239
1682104749169609,-1.937895780880467,6.0578316929884295,4.86762798504617
1682104749185609,-3.4332799267566543,6.088349736781879,3.9826047150377235
1682104749201609,-3.4027618829633184,5.630579079880931,3.1891355764095124
1682104749217610,1.052872510872021,5.966277561608308,2.4567025253680868
1682104749233673,4.745555809872599,5.386434729533789,1.6937514305333252
1682104749249673,5.081254291599862,4.623483634699028,0.6866559853513081
1682104749265674,3.921568627450938,5.050736247806526,0.045777065690117524
1682104749281675,0.93080033569845,5.172808422980097,-0.5951018539711868
1682104749297676,0.2899214160372594,3.8300144960708167,0.3509575036240449
1682104749313676,2.731364919508678,2.2735942626077303,1.8768596932936816
1682104749329677,6.118867780575215,1.4496070801861833,2.7924010070954637
1682104749345678,8.62134737163342,1.1139085984588064,2.7924010070954637
1682104749361679,10.055695429922935,1.144426642252256,2.212558175020945
1682104749377679,8.712901503013654,1.4190890363927338,0.38147554741738077
1682104749393680,8.041504539559014,1.4496070801861833,-1.1749446860455919
1682104749409681,11.245899137865194,1.2359807736323773,-1.6632333867398756
1682104749425682,16.861219195849458,0.5035477225909517,-1.144426642252256
1682104749441682,24.277103837643836,-0.6561379415579722,-1.2054627298390415
1682104749457683,32.54749370565355,-1.9989318684672526,-2.426184481574751
1682104749473684,36.7895017929352,-2.853437094682249,-4.501411459525457
1682104749489685,32.42542153047998,-3.250171663996298,-6.332494087129021
1682104749505685,27.63408865491715,-1.5411612115663047,-5.874723430228073
1682104749521686,23.02586404211479,-0.6561379415579722,-4.592965590905578
1682104749537687,16.31189440756839,2.6092927443351073,-4.287785152971651
1682104749553711,16.098268101014696,6.393530174715806,-1.1749446860455919
1682104749569711,8.194094758525921,9.689478904402222,2.30411230640118
1682104749585712,2.1210040436408235,12.771801327534831,5.9357595178148586
1682104749601713,-1.7242694743266611,15.091172655832679,10.513466086823769
1682104749617714,-5.905241474021523,18.57022964827945,14.877546349278987
1682104749633714,-9.323262378881509,22.995345998321454,18.814373998626593
1682104749649715,-10.330357824063412,26.87113756008239,22.35446707866015
1682104749665716,-10.879682612344482,29.312581063553807,25.58937972075978
1682104749681717,-11.703669794766142,30.59433890287619,27.817196917677393
1682104749697717,-10.910200656137931,31.296253910124506,29.861905851834763
1682104749713718,-7.736324101625087,31.84557869840546,30.045014114595233
1682104749729719,-4.1046768902112944,31.66247043564522,28.244449530785005
1682104749745720,-2.212558175020945,31.876096742199024,24.063477531090257
1682104749761720,-1.8768596932936816,31.998168917372595,18.936446173800164
1682104749777721,-3.585870145723675,32.516975661860215,14.389257648584703
1682104749793722,-3.891050583657602,32.79163805600069,11.97833218890662
1682104749809723,-3.341725795376533,32.02868696116593,11.123826962691624
1682104749825723,-0.38147554741738077,30.472266727702618,10.269321736476627
1682104749841724,3.341725795376533,28.27496757457834,9.536888685435201
1682104749857725,7.034409094376997,25.925078202487157,8.07202258335235
1682104749873748,9.109636072327703,23.72777904936288,5.752651255054502
1682104749889749,10.421911955443647,20.8896009765773,3.555352101930225
1682104749905750,11.276417181658644,18.081940947585167,0.5340657663844013
1682104749921751,13.015945677881973,14.969100480659108,-2.090485999847374
1682104749937751,15.21324483100625,11.825741969939713,-3.3112077515830833
1682104749953752,16.220340276188267,8.62134737163342,-4.043640802624509
1682104749969753,17.22743572137017,5.142290379186647,-4.3183031967651
1682104749985754,18.417639429312544,1.937895780880467,-4.654001678492364
1682104750001754,17.471580071717312,-0.5645838101777372,-5.081254291599862
1682104750017755,18.753337911039807,-3.8300144960708167,-4.623483634699028
1682104750033756,20.828564888990513,-7.217517357137353,-3.7079423208972457
1682104750049757,21.13374532692444,-9.56740672922865,-2.059967956054038
1682104750065757,21.347371633478247,-11.093308918898288,-0.93080033569845
1682104750081758,22.140840772106458,-11.947814145113284,-0.1373311970702389
1682104750097759,23.758297093156216,-12.863355458915066,0.3204394598305953
1682104750113760,25.741969939726687,-13.504234378576257,0.6866559853513081
1682104750129760,27.725642786297385,-13.99252307927054,0.41199359121083035
1682104750145761,29.49568932631405,-14.267185473411132,-0.2899214160372594
1682104750161762,32.394903486686644,-14.358739604791253,-0.6866559853513081
1682104750177763,36.60639353017473,-15.609979400320412,0.3204394598305953
1682104750193817,33.24940871290164,-17.715724422064568,1.5106431677729688
1682104750209818,37.55245288776996,-7.583733882658066,-3.4027618829633184
1682104750225819,37.064164187075676,-11.42900740062555,-5.294880598153668
1682104750241820,22.171358815899794,-7.583733882658066,-15.152208743419465
1682104750257822,9.353780422674845,-4.226749065384865,-20.889600976577412
1682104750273823,4.715037766079149,-6.0578316929884295,-17.471580071717426
1682104750289824,4.1962310215915295,-2.2735942626077303,-15.030136568245894
1682104750305825,7.125963225757232,-1.266498817425827,-13.3211261158159
1682104750321827,7.888914320591994,-3.097581445029391,-11.398489356832215
1682104750337828,4.1962310215915295,-2.853437094682249,-10.391393911650198
1682104750353829,0.5951018539711868,-4.135194934004744,-9.018081940947582
1682104750369830,-2.212558175020945,-3.9826047150377235,-7.125963225757232
1682104750385831,-3.7079423208972457,-3.9520866712443876,-6.301976043335571
1682104750401833,-3.6469062333104603,-3.219653620202962,-5.9357595178148586
1682104750417834,-1.8158236057068962,-2.182040131227609,-4.928664072632955
1682104750433835,0.2899214160372594,-0.7476920729380936,-5.416952773327239
1682104750449836,1.8158236057068962,-1.022354467078685,-6.851300831616641
1682104750465838,1.6021972991530902,-1.8158236057068962,-9.597924773021987
1682104750481839,0.8697642481116645,-3.8605325398641526,-11.85626001373305
1682104750497840,1.5411612115663047,-5.416952773327239,-14.145113298237561
1682104750513824,4.074158846417959,-6.942854962996876,-14.419775692378039
1682104750529825,8.22461280231937,-8.651865415426869,-14.328221560997918
1682104750545827,12.80231937132828,-9.41481651026163,-15.274280918593035
1682104750561828,14.419775692378039,-8.926527809567347,-15.579461356526963
1682104750577829,13.015945677881973,-8.010986495765565,-14.511329823758274
1682104750593830,8.010986495765565,-4.776073853665935,-14.267185473411132
1682104750609831,3.006027313649156,-5.813687342641288,-14.69443808651863
1682104750625833,-0.07629510948345342,-6.851300831616641,-14.66392004272518
1682104750641834,-1.2054627298390415,-6.179903868162,-14.297703517204468
1682104750657835,0.106813153276903,-5.325398641947004,-11.825741969939713
1682104750673836,1.968413824673803,-4.83710994125272,-11.673151750972693
1682104750689838,3.891050583657602,-5.844205386434737,-12.252994583047212
1682104750705839,4.1046768902112944,-6.546120393682713,-11.673151750972693
1682104750721840,3.463797970550104,-7.949950408178779,-11.154345006485073
1682104750737841,3.219653620202962,-8.712901503013654,-10.66605630579079
1682104750753842,2.548256656748322,-8.590829327840083,-11.123826962691624
1682104750769844,2.059967956054038,-8.77393759060044,-12.741283283741495
1682104750785845,2.9449912260623705,-9.475852597848416,-13.87045090409697
1682104750801846,6.759746700236519,-10.208285648889841,-12.64972915236126
1682104750817847,11.215381094071859,-11.062790875104838,-10.421911955443647
1682104750833862,15.732051575493983,-11.520561532005786,-9.018081940947582
1682104750849863,18.72281986724647,-12.100404364080191,-8.77393759060044
1682104750865864,20.4623483634698,-12.954909590295188,-8.89600976577401
1682104750881866,22.3849851224536,-14.053559166857326,-8.865491721980561
1682104750897867,23.69726100556943,-15.426871137560056,-8.590829327840083
1682104750913868,23.45311665522229,-15.823605706874218,-9.140154116121153
1682104750929869,21.71358815899896,-14.511329823758274,-10.574502174410554
1682104750945871,20.21820401312266,-14.419775692378039,-10.11673151750972
1682104750961872,18.204013122758738,-12.710765239948046,-8.804455634393776
1682104750977873,16.250858319981603,-11.764705882352928,-7.888914320591994
1682104750993874,14.602883955138395,-11.459525444419,-8.651865415426869
1682104751009875,13.931486991683755,-11.97833218890662,-8.1025406271458
1682104751025877,13.565270466163042,-10.696574349584125,-5.996795605401644
1682104751041878,13.778896772716848,-7.217517357137353,-5.081254291599862
1682104751057879,8.010986495765565,-10.177767605096506,-3.7384603646905816
1682104751073880,2.426184481574751,-9.41481651026163,-2.4567025253680868
1682104751089882,2.9144731822690346,-9.262226291294724,-1.2359807736323773
1682104751105883,3.9520866712443876,-7.339589532310924,-0.7782101167315432
1682104751121884,4.287785152971651,-5.203326466773433,-0.5951018539711868
1682104751137885,3.0670634012359415,-3.372243839169869,-0.5645838101777372
1682104751153900,0.8392462043183286,-1.8768596932936816,-0.106813153276903
1682104751169901,1.3275349050126124,-0.22888532845047393,0.22888532845047393
1682104751185902,0.7476920729380936,-0.22888532845047393,0.93080033569845
1682104751201903,-0.22888532845047393,1.022354467078685,1.4190890363927338
1682104751217905,-0.5035477225909517,2.97550926985582,2.1515220874341594
1682104751233906,-1.3275349050126124,5.752651255054502,2.9449912260623705
1682104751249907,-1.4190890363927338,6.912336919203426,3.463797970550104
1682104751265908,-2.2735942626077303,7.431143663691159,2.97550926985582
1682104751281910,-4.1046768902112944,7.705806057831637,2.761882963302014
1682104751297911,-6.0578316929884295,8.407721065079727,2.7924010070954637
1682104751313912,-6.942854962996876,8.133058670939135,3.585870145723675
1682104751329913,-6.759746700236519,8.590829327840083,5.355916685740453
1682104751345914,-3.9520866712443876,9.048599984740918,7.522697795071281
1682104751361916,-3.250171663996298,10.238803692683291,8.468757152666512
1682104751377917,-4.1962310215915295,9.353780422674845,7.370107576104374
1682104751393918,-5.966277561608308,8.255130846112706,5.325398641947004
1682104751409919,-7.858396276798658,6.851300831616641,3.921568627450938
1682104751425921,-8.07202258335235,6.21042191195545,4.592965590905578
1682104751441922,-7.034409094376997,6.851300831616641,6.0578316929884295
1682104751457923,-4.806591897459384,6.424048218509142,6.942854962996876
1682104751473968,-2.30411230640118,6.454566262302592,6.546120393682713
1682104751489969,0.5951018539711868,5.905241474021523,5.264362554360218
1682104751505971,2.0294499122605885,5.081254291599862,3.9826047150377235
1682104751521972,1.846341649500232,3.677424277103796,3.128099488822727
1682104751537973,0.9613183794918996,3.0365453574426056,2.7924010070954637
1682104751553974,1.3580529488059483,2.9144731822690346,2.7924010070954637
1682104751569975,0.9002822919051141,3.006027313649156,2.6092927443351073
1682104751585977,-0.5340657663844013,2.30411230640118,1.5106431677729688
1682104751601978,0.3204394598305953,1.8768596932936816,0.9613183794918996
1682104751617979,2.6092927443351073,2.1210040436408235,1.5106431677729688
1682104751633980,3.8605325398641526,1.7242694743266611,2.212558175020945
1682104751649982,3.4943160143434397,1.3885709925993979,2.5787747005416577
1682104751665983,1.3580529488059483,1.0833905546654705,1.8158236057068962
1682104751681984,-0.4730296787976158,0.2899214160372594,1.2054627298390415
1682104751697985,-0.1373311970702389,0.8392462043183286,1.1749446860455919
1682104751713986,0.22888532845047393,0.9918364232852355,0.7782101167315432
1682104751729988,0.2594033722438098,0.7782101167315432,0.015259021896667946
1682104751745989,1.937895780880467,0.6866559853513081,0.5645838101777372
1682104751761990,2.4567025253680868,1.937895780880467,0.9002822919051141
1682104751777991,1.2054627298390415,0.5645838101777372,0.22888532845047393
1682104751794006,1.1749446860455919,-0.6561379415579722,0.38147554741738077
1682104751810007,2.548256656748322,0.5340657663844013,1.1139085984588064
1682104751826008,2.3651483939879654,0.4730296787976158,0.9918364232852355
1682104751842010,0.9918364232852355,-0.106813153276903,-0.5035477225909517
1682104751858011,2.6703288319218927,-1.052872510872021,-0.3509575036240449
1682104751874012,3.9520866712443876,0.7476920729380936,0.3204394598305953
1682104751890013,2.9144731822690346,0.19836728465702436,-0.5645838101777372
1682104751906015,0.6561379415579722,-1.2359807736323773,-1.6632333867398756
1682104751922016,1.4496070801861833,-1.2970168612191628,-1.0833905546654705
1682104751938017,3.768978408484031,-0.16784924086368846,0.22888532845047393
1682104751954018,4.440375371938671,0.015259021896667946,-0.07629510948345342
1682104751970019,4.226749065384865,-0.5035477225909517,-0.93080033569845
1682104751986021,4.654001678492364,-0.16784924086368846,-1.5106431677729688
1682104752002022,4.531929503318793,0.015259021896667946,-1.2970168612191628
1682104752018023,4.1046768902112944,-0.045777065690117524,-0.5951018539711868
1682104752034024,4.1962310215915295,0.015259021896667946,-0.5035477225909517
1682104752050026,4.074158846417959,-0.2594033722438098,-0.5340657663844013
1682104752066027,4.409857328145222,-0.5951018539711868,-0.07629510948345342
1682104752082028,5.752651255054502,-1.052872510872021,0.44251163500416624
1682104752098029,6.912336919203426,-1.5411612115663047,0.6866559853513081
1682104752114074,6.607156481269499,-1.8158236057068962,-0.015259021896667946
1682104752130076,4.745555809872599,-2.3651483939879654,-1.4801251239795192
1682104752146078,3.768978408484031,-3.1891355764095124,-2.6092927443351073
1682104752162079,4.898146028839506,-4.654001678492364,-3.799496452277367
1682104752178081,4.898146028839506,-4.470893415732007,-5.416952773327239
1682104752194083,5.752651255054502,-4.654001678492364,-6.393530174715806
1682104752210085,4.86762798504617,-4.379339284351886,-7.370107576104374
1682104752226086,5.53902494850081,-5.142290379186647,-7.0954451819637825
1682104752242088,6.790264744029855,-4.83710994125272,-6.759746700236519
1682104752258090,6.607156481269499,-5.142290379186647,-6.424048218509142
1682104752274091,7.248035400930803,-5.9357595178148586,-6.363012130922357
1682104752290093,7.522697795071281,-6.1493858243686645,-6.88181887541009
1682104752306095,8.041504539559014,-7.55321583886473,-7.1869993133440175
1682104752322096,8.407721065079727,-7.675288014038301,-7.248035400930803
1682104752338098,8.62134737163342,-8.255130846112706,-6.912336919203426
1682104752354100,9.231708247501274,-8.133058670939135,-6.027313649195094
1682104752370102,9.903105210955914,-7.736324101625087,-5.142290379186647
1682104752386103,9.323262378881509,-7.217517357137353,-4.745555809872599
1682104752402105,7.949950408178779,-7.705806057831637,-4.776073853665935
1682104752418107,6.2714579995422355,-7.583733882658066,-5.325398641947004
1682104752434112,6.088349736781879,-7.644769970244852,-5.142290379186647
1682104752450114,7.217517357137353,-6.912336919203426,-5.050736247806526
1682104752466116,9.56740672922865,-6.546120393682713,-5.2338445105668825
1682104752482117,11.42900740062555,-6.1493858243686645,-5.9357595178148586
1682104752498119,12.069886320286855,-6.668192568856284,-6.332494087129021
1682104752514121,11.215381094071859,-6.515602349889377,-6.546120393682713
1682104752530122,10.238803692683291,-6.118867780575215,-7.797360189211872
1682104752546124,10.025177386129485,-5.569542992294146,-8.682383459220205
1682104752562126,7.40062561989771,-4.409857328145222,-6.790264744029855
1682104752578127,3.006027313649156,-2.9449912260623705,-3.341725795376533
1682104752594129,1.6021972991530902,-2.4567025253680868,-1.968413824673803
1682104752610131,1.8768596932936816,-2.0294499122605885,-1.7242694743266611
1682104752626133,2.090485999847374,-1.6021972991530902,-1.1749446860455919
1682104752642134,2.1515220874341594,-1.6937514305333252,-0.9002822919051141
1682104752658136,1.4801251239795192,-1.7242694743266611,-1.052872510872021
1682104752674138,1.1749446860455919,-1.846341649500232,-0.8087281605248791
1682104752690139,0.9613183794918996,-1.9073777370870175,-0.015259021896667946
1682104752706141,0.8392462043183286,-1.9073777370870175,0.2594033722438098
1682104752722143,0.8697642481116645,-1.6937514305333252,-0.7171740291447577
1682104752738144,2.5177386129548722,-2.0294499122605885,-1.4496070801861833
1682104752754150,4.715037766079149,-1.4801251239795192,-1.6021972991530902
1682104752770152,5.996795605401644,-1.7547875181201107,-1.022354467078685
1682104752786153,5.386434729533789,-1.8158236057068962,-0.41199359121083035
1682104752802155,3.7384603646905816,-2.30411230640118,0.19836728465702436
1682104752818157,1.8768596932936816,-2.212558175020945,0.16784924086368846
1682104752834159,1.5716792553597543,-2.212558175020945,0.16784924086368846
1682104752850160,2.7008468757152286,-1.4801251239795192,0.6866559853513081
1682104752866162,3.8605325398641526,-1.052872510872021,1.052872510872021
1682104752882164,3.6469062333104603,-0.7782101167315432,1.3580529488059483
1682104752898165,2.1515220874341594,-0.19836728465702436,1.7547875181201107
1682104752914167,0.6256198977645226,0.2899214160372594,1.937895780880467
1682104752930169,-1.1139085984588064,1.3885709925993979,1.7853055619134466
1682104752946170,-2.182040131227609,1.7853055619134466,1.2970168612191628
1682104752962172,-2.1515220874341594,2.9144731822690346,0.38147554741738077
1682104752978174,-1.3580529488059483,3.8605325398641526,-0.19836728465702436
1682104752994176,-1.052872510872021,4.409857328145222,-0.19836728465702436
1682104753010177,-1.7853055619134466,4.1962310215915295,0.5951018539711868
1682104753026179,-1.6021972991530902,4.013122758831173,1.5106431677729688
1682104753042181,-0.5035477225909517,4.1046768902112944,2.2430762188143945
1682104753058182,0.6866559853513081,3.799496452277367,1.8768596932936816
1682104753074218,1.2054627298390415,4.1046768902112944,1.3275349050126124
1682104753090220,0.5340657663844013,4.379339284351886,0.7476920729380936
1682104753106222,-2.426184481574751,5.325398641947004,-0.045777065690117524
1682104753122223,-5.53902494850081,5.050736247806526,-0.045777065690117524
1682104753138225,-7.797360189211872,4.715037766079149,0.015259021896667946
1682104753154227,-8.529793240253298,4.83710994125272,0.7476920729380936
1682104753170229,-8.255130846112706,4.928664072632955,1.8768596932936816
1682104753186230,-7.888914320591994,5.386434729533789,2.4872205691615363
1682104753202232,-7.614251926451516,5.783169298847952,2.9449912260623705
1682104753218234,-6.027313649195094,5.691615167467717,4.287785152971651
1682104753234235,-5.661097123674381,7.125963225757232,5.386434729533789
1682104753250237,-5.813687342641288,7.064927138170447,5.661097123674381
1682104753266239,-6.637674525062948,6.820782787823305,5.50850690470736
1682104753282240,-5.9357595178148586,6.668192568856284,5.9357595178148586
1682104753298242,-4.592965590905578,7.736324101625087,6.698710612649734
1682104753314244,-3.9520866712443876,7.797360189211872,6.851300831616641
1682104753330246,-3.4027618829633184,6.607156481269499,6.9733730067902115
1682104753346247,-2.3651483939879654,6.393530174715806,7.736324101625087
1682104753362249,-1.937895780880467,6.851300831616641,7.858396276798658
1682104753378251,-2.6703288319218927,6.607156481269499,6.668192568856284
1682104753394256,-2.7008468757152286,5.996795605401644,5.874723430228073
1682104753410258,-1.9989318684672526,6.454566262302592,5.783169298847952
1682104753426260,-1.5716792553597543,6.1493858243686645,5.996795605401644
1682104753442261,-3.2806897077897474,5.53902494850081,5.630579079880931
1682104753458263,-5.081254291599862,3.799496452277367,5.050736247806526
1682104753474265,-5.50850690470736,3.372243839169869,5.1117723353933116
1682104753490266,-4.013122758831173,2.97550926985582,5.477988860914024
1682104753506268,-1.937895780880467,2.9144731822690346,4.928664072632955
1682104753522270,-0.7476920729380936,1.9989318684672526,3.7384603646905816
1682104753538272,2.2430762188143945,2.5787747005416577,3.768978408484031
1682104753554273,3.097581445029391,2.1210040436408235,3.1891355764095124
1682104753570275,2.639810788128443,1.2359807736323773,3.006027313649156
1682104753586277,2.4872205691615363,0.22888532845047393,3.250171663996298
1682104753602278,2.3651483939879654,0.015259021896667946,3.4943160143434397
1682104753618280,0.5645838101777372,-0.5645838101777372,3.9520866712443876
1682104753634282,-2.3651483939879654,-1.1139085984588064,4.135194934004744
1682104753650283,-2.761882963302014,-1.3275349050126124,4.409857328145222
1682104753666285,-0.7782101167315432,-1.0833905546654705,4.959182116426291
1682104753682287,0.6561379415579722,0.045777065690117524,4.959182116426291
1682104753698289,1.7547875181201107,0.015259021896667946,4.1962310215915295
1682104753714294,2.2430762188143945,0.22888532845047393,3.4943160143434397
1682104753730296,1.144426642252256,0.7476920729380936,2.9449912260623705
1682104753746297,-0.93080033569845,0.9918364232852355,1.9989318684672526
1682104753762299,-1.8158236057068962,0.6256198977645226,1.052872510872021
1682104753778301,-0.7476920729380936,0.93080033569845,0.6866559853513081
1682104753794303,0.5035477225909517,1.4496070801861833,-0.07629510948345342
1682104753810304,2.090485999847374,0.9002822919051141,-0.8697642481116645
1682104753826306,3.3112077515830833,0.7476920729380936,-1.9989318684672526
1682104753842308,4.531929503318793,0.3509575036240449,-2.5177386129548722
1682104753858309,4.684519722285813,-0.22888532845047393,-3.3112077515830833
1682104753874311,5.081254291599862,-1.0833905546654705,-4.287785152971651
1682104753890313,5.53902494850081,-0.9002822919051141,-5.813687342641288
1682104753906314,6.0578316929884295,-0.8087281605248791,-9.384298466468294
1682104753922316,7.583733882658066,-1.144426642252256,-14.66392004272518
1682104753938318,10.543984130617218,-3.372243839169869,-18.844892042420156
1682104753954320,10.543984130617218,-3.555352101930225,-19.42473487449456
1682104753970321,7.888914320591994,-2.7008468757152286,-17.074845502403377
1682104753986323,1.5716792553597543,-2.2735942626077303,-13.443198290989471
1682104754002325,-2.9144731822690346,-3.5248340581368893,-10.879682612344482
1682104754018326,-3.3112077515830833,-4.501411459525457,-8.957045853360796
1682104754034362,-0.7171740291447577,-5.386434729533789,-7.156481269550568
1682104754050364,2.883955138475585,-5.996795605401644,-4.928664072632955
1682104754066366,8.316166933699492,-5.905241474021523,-3.250171663996298
1682104754082368,9.781033035782343,-3.921568627450938,-2.4567025253680868
1682104754098369,5.722133211261166,-4.745555809872599,-2.7008468757152286
1682104754114371,1.1749446860455919,-4.745555809872599,-3.372243839169869
1682104754130373,0.7171740291447577,-3.372243839169869,-3.006027313649156
1682104754146374,3.128099488822727,-1.7547875181201107,-2.5787747005416577
1682104754162376,6.393530174715806,-0.6866559853513081,-2.6092927443351073
1682104754178378,8.316166933699492,0.106813153276903,-2.1515220874341594
1682104754194379,6.759746700236519,0.9918364232852355,-2.212558175020945
1682104754210381,3.372243839169869,-0.44251163500416624,-1.7242694743266611
1682104754226383,1.1139085984588064,-0.44251163500416624,-0.7171740291447577
1682104754242385,1.6327153429465397,0.19836728465702436,0.41199359121083035
1682104754258386,2.334630350194516,0.93080033569845,0.3509575036240449
1682104754274388,1.4190890363927338,1.2359807736323773,-1.022354467078685
1682104754290390,-0.16784924086368846,0.7476920729380936,-2.883955138475585
1682104754306391,-2.3956664377813013,-0.015259021896667946,-2.9449912260623705
1682104754322393,-4.3183031967651,0.22888532845047393,-2.182040131227609
1682104754338395,-5.050736247806526,-0.9918364232852355,-0.6561379415579722
1682104754354400,-6.118867780575215,-1.6937514305333252,0.5951018539711868
1682104754370402,-6.301976043335571,-1.846341649500232,1.4496070801861833
1682104754386404,-4.287785152971651,-1.846341649500232,1.9073777370870175
1682104754402405,-1.4190890363927338,-0.8392462043183286,1.5411612115663047
1682104754418407,1.1749446860455919,-0.4730296787976158,0.6866559853513081
1682104754434409,2.761882963302014,0.1373311970702389,0.106813153276903
1682104754450410,2.426184481574751,2.97550926985582,-0.4730296787976158
1682104754466412,2.182040131227609,1.0833905546654705,0.07629510948345342
1682104754482414,1.5716792553597543,0.8697642481116645,0.93080033569845
1682104754498416,1.968413824673803,1.052872510872021,1.2359807736323773
1682104754514417,2.883955138475585,1.4190890363927338,1.6632333867398756
1682104754530419,3.097581445029391,2.3956664377813013,1.3885709925993979
1682104754546421,2.090485999847374,2.30411230640118,0.3204394598305953
1682104754562422,1.1139085984588064,1.7853055619134466,-0.41199359121083035
1682104754578424,0.5951018539711868,1.5716792553597543,0.07629510948345342
1682104754594426,-0.38147554741738077,1.6021972991530902,0.9002822919051141
1682104754610427,-0.3509575036240449,0.5035477225909517,1.6021972991530902
1682104754626429,0.5035477225909517,0.4730296787976158,2.212558175020945
1682104754642431,1.3580529488059483,0.5340657663844013,2.212558175020945
1682104754658433,2.212558175020945,0.9613183794918996,1.6632333867398756
1682104754674469,2.5787747005416577,2.0294499122605885,1.022354467078685
1682104754690471,2.2430762188143945,2.1515220874341594,0.44251163500416624
1682104754706473,1.4190890363927338,2.059967956054038,0.3204394598305953
1682104754722475,-0.015259021896667946,0.8392462043183286,0.5340657663844013
1682104754738477,-1.2054627298390415,0.015259021896667946,0.6256198977645226
1682104754754480,-1.2054627298390415,0.22888532845047393,0.5645838101777372
1682104754770482,-0.5645838101777372,0.3204394598305953,0.4730296787976158
1682104754786484,0.6866559853513081,0.3204394598305953,0.5645838101777372
1682104754802486,2.2735942626077303,0.5645838101777372,1.2359807736323773
1682104754818488,3.2806897077897474,0.38147554741738077,1.6021972991530902
1682104754834490,3.1891355764095124,0.7782101167315432,1.5716792553597543
1682104754850493,1.5411612115663047,0.93080033569845,0.8392462043183286
1682104754866495,-0.41199359121083035,0.41199359121083035,0.41199359121083035
1682104754882497,-0.44251163500416624,0.9002822919051141,0.6866559853513081
1682104754898499,-0.4730296787976158,1.1749446860455919,0.6561379415579722
1682104754914501,-1.2054627298390415,0.6561379415579722,0.22888532845047393
1682104754930503,-0.7171740291447577,0.1373311970702389,0.5340657663844013
1682104754946506,0.9002822919051141,1.2359807736323773,1.1749446860455919
1682104754962508,1.9989318684672526,0.9002822919051141,1.5411612115663047
1682104754978510,2.334630350194516,0.8087281605248791,1.4190890363927338
1682104754994506,1.937895780880467,0.8392462043183286,0.6866559853513081
1682104755010509,0.8697642481116645,0.015259021896667946,0.16784924086368846
1682104755026511,0.5035477225909517,-0.106813153276903,0.106813153276903
1682104755042513,0.2594033722438098,0.3509575036240449,0.2899214160372594
1682104755058515,-0.8087281605248791,-0.16784924086368846,-0.2594033722438098
1682104755074517,-0.93080033569845,-0.5951018539711868,-0.4730296787976158
1682104755090520,0.16784924086368846,-0.3509575036240449,-0.2899214160372594
1682104755106522,1.1749446860455919,-0.1373311970702389,0.16784924086368846
1682104755122524,1.2359807736323773,0.07629510948345342,0.4730296787976158
1682104755138526,1.4190890363927338,-0.015259021896667946,0.5035477225909517
1682104755154528,2.212558175020945,-0.045777065690117524,0.6561379415579722
1682104755170530,2.853437094682249,-0.44251163500416624,0.9002822919051141
1682104755186533,3.341725795376533,-0.8392462043183286,1.4496070801861833
1682104755202535,3.2806897077897474,-0.4730296787976158,1.7547875181201107
1682104755218537,2.334630350194516,0.015259021896667946,1.3580529488059483
1682104755234539,1.052872510872021,0.106813153276903,0.41199359121083035
1682104755250541,0.19836728465702436,0.6561379415579722,-0.7476920729380936
1682104755266543,-0.5035477225909517,0.015259021896667946,-1.6632333867398756
1682104755282546,-1.4190890363927338,-0.22888532845047393,-2.761882963302014
1682104755298548,0.5951018539711868,0.3204394598305953,-1.144426642252256
1682104755314544,1.3885709925993979,0.7476920729380936,0.106813153276903
1682104755330546,1.8158236057068962,0.8087281605248791,1.2054627298390415
1682104755346549,1.968413824673803,1.3275349050126124,1.9989318684672526
1682104755362551,1.144426642252256,1.4496070801861833,2.212558175020945
1682104755378553,0.015259021896667946,0.9613183794918996,2.059967956054038
1682104755394555,-0.41199359121083035,1.1139085984588064,2.3651483939879654
1682104755410557,-0.9002822919051141,1.052872510872021,2.97550926985582
1682104755426560,-1.4801251239795192,1.5411612115663047,2.4872205691615363
1682104755442562,-1.3885709925993979,1.5106431677729688,2.5787747005416577
1682104755458564,-0.3204394598305953,2.1515220874341594,2.2735942626077303
1682104755474566,0.5035477225909517,2.4567025253680868,1.7242694743266611
1682104755490568,0.8087281605248791,2.6703288319218927,1.2054627298390415
1682104755506570,0.106813153276903,2.731364919508678,0.8697642481116645
1682104755522573,-0.2594033722438098,2.1515220874341594,0.9002822919051141
1682104755538575,0.106813153276903,1.8158236057068962,1.4190890363927338
1682104755554577,0.41199359121083035,1.4801251239795192,1.9989318684672526
1682104755570579,0.2594033722438098,0.9918364232852355,2.182040131227609
1682104755586581,0.5035477225909517,1.4496070801861833,2.4872205691615363
1682104755602584,0.6256198977645226,1.8158236057068962,3.250171663996298
1682104755618586,-0.3204394598305953,2.1515220874341594,3.3112077515830833
1682104755634613,-1.2054627298390415,2.1210040436408235,3.4027618829633184
1682104755650615,-0.5645838101777372,1.937895780880467,3.4027618829633184
1682104755666617,0.5645838101777372,2.883955138475585,2.639810788128443
1682104755682619,1.144426642252256,2.6092927443351073,1.4190890363927338
1682104755698621,1.937895780880467,2.334630350194516,0.5340657663844013
1682104755714624,2.97550926985582,2.7008468757152286,0.3509575036240449
1682104755730626,3.8300144960708167,3.9826047150377235,0.2594033722438098
1682104755746628,2.426184481574751,3.341725795376533,0.3509575036240449
1682104755762630,1.022354467078685,2.3651483939879654,-0.3509575036240449
1682104755778632,0.7171740291447577,1.022354467078685,-0.6561379415579722
1682104755794634,1.266498817425827,0.93080033569845,-0.3509575036240449
1682104755810637,2.182040131227609,0.5340657663844013,0.5951018539711868
1682104755826639,1.7547875181201107,1.2359807736323773,0.93080033569845
1682104755842641,1.0833905546654705,0.7171740291447577,0.5951018539711868
1682104755858643,0.6256198977645226,0.7782101167315432,0.16784924086368846
1682104755874645,1.2054627298390415,0.44251163500416624,-0.3204394598305953
1682104755890648,2.4872205691615363,0.045777065690117524,-0.41199359121083035
1682104755906650,2.9144731822690346,0.44251163500416624,-0.4730296787976158
1682104755922652,2.6092927443351073,-0.07629510948345342,-1.0833905546654705
1682104755938654,1.4496070801861833,-0.44251163500416624,-1.6632333867398756
1682104755954651,0.5340657663844013,-1.8768596932936816,-1.6937514305333252
1682104755970653,-0.5035477225909517,-2.761882963302014,-1.6021972991530902
1682104755986655,-1.022354467078685,-2.7924010070954637,-1.052872510872021
1682104756002657,-0.015259021896667946,-2.639810788128443,-1.2054627298390415
1682104756018659,1.4496070801861833,-3.1891355764095124,-1.7242694743266611
1682104756034661,2.8229190508887996,-3.555352101930225,-2.3651483939879654
1682104756050664,4.379339284351886,-3.250171663996298,-2.3956664377813013
1682104756066666,4.501411459525457,-3.341725795376533,-2.548256656748322
1682104756082668,3.250171663996298,-3.799496452277367,-2.548256656748322
1682104756098670,1.7547875181201107,-4.409857328145222,-2.334630350194516
1682104756114672,1.6937514305333252,-4.715037766079149,-2.1210040436408235
1682104756130674,1.2054627298390415,-4.501411459525457,-2.4567025253680868
1682104756146677,1.0833905546654705,-5.294880598153668,-2.761882963302014
1682104756162679,1.9989318684672526,-5.081254291599862,-2.3956664377813013
1682104756178681,3.6469062333104603,-4.684519722285813,-1.937895780880467
1682104756194683,4.409857328145222,-3.921568627450938,-1.846341649500232
1682104756210685,3.4943160143434397,-4.409857328145222,-2.3956664377813013
1682104756226688,1.937895780880467,-4.623483634699028,-3.0670634012359415
1682104756242690,1.4801251239795192,-4.623483634699028,-3.097581445029391
1682104756258692,1.4190890363927338,-4.531929503318793,-3.1586175326161765
1682104756274719,0.93080033569845,-4.501411459525457,-3.677424277103796
1682104756290721,0.6866559853513081,-5.081254291599862,-4.043640802624509
1682104756306723,1.052872510872021,-5.203326466773433,-3.585870145723675
1682104756322725,1.3275349050126124,-5.264362554360218,-2.4872205691615363
1682104756338728,0.8087281605248791,-5.142290379186647,-2.0294499122605885
1682104756354730,-0.106813153276903,-5.142290379186647,-2.334630350194516
1682104756370732,-0.045777065690117524,-4.776073853665935,-2.8229190508887996
1682104756386734,1.2359807736323773,-4.470893415732007,-2.9144731822690346
1682104756402736,2.30411230640118,-4.1046768902112944,-2.548256656748322
1682104756418738,1.6937514305333252,-3.768978408484031,-2.1515220874341594
1682104756434741,-0.16784924086368846,-4.135194934004744,-2.2430762188143945
1682104756450743,-1.7547875181201107,-4.562447547112242,-2.853437094682249
1682104756466745,-1.4190890363927338,-4.86762798504617,-2.883955138475585
1682104756482747,0.41199359121083035,-4.592965590905578,-2.426184481574751
1682104756498749,1.9073777370870175,-4.440375371938671,-1.846341649500232
1682104756514752,1.7242694743266611,-4.409857328145222,-1.3275349050126124
1682104756530754,0.7782101167315432,-4.379339284351886,-1.0833905546654705
1682104756546756,-0.2594033722438098,-4.715037766079149,-0.8392462043183286
1682104756562758,-1.5411612115663047,-4.379339284351886,-1.266498817425827
1682104756578760,-2.212558175020945,-4.592965590905578,-1.846341649500232
1682104756594757,-1.4496070801861833,-4.379339284351886,-1.8158236057068962
1682104756610759,-1.2054627298390415,-3.921568627450938,-1.266498817425827
1682104756626761,-0.2594033722438098,-4.928664072632955,-1.2054627298390415
1682104756642763,0.19836728465702436,-5.0202182040130765,-0.8087281605248791
1682104756658765,0.045777065690117524,-5.142290379186647,-0.7782101167315432
1682104756674768,-0.7476920729380936,-5.53902494850081,-0.93080033569845
1682104756690770,-0.8697642481116645,-5.0202182040130765,-1.144426642252256
1682104756706772,0.8392462043183286,-4.1962310215915295,-0.9002822919051141
1682104756722774,2.639810788128443,-3.250171663996298,-0.38147554741738077
1682104756738776,2.731364919508678,-1.9989318684672526,0.106813153276903
1682104756754778,1.022354467078685,-1.8158236057068962,0.3509575036240449
1682104756770781,-0.5340657663844013,-1.9073777370870175,0.3204394598305953
1682104756786783,-0.6256198977645226,-1.4496070801861833,0.9918364232852355
1682104756802785,-0.5645838101777372,0.106813153276903,1.3275349050126124
1682104756818787,-0.2594033722438098,0.5645838101777372,1.266498817425827
1682104756834789,0.22888532845047393,1.266498817425827,0.6561379415579722
1682104756850792,0.8392462043183286,1.1749446860455919,0.2899214160372594
1682104756866794,-0.045777065690117524,0.2594033722438098,0.16784924086368846
1682104756882796,-0.22888532845047393,-1.3580529488059483,0.4730296787976158
1682104756898798,0.7171740291447577,-1.1749446860455919,1.6327153429465397
1682104756914795,1.7853055619134466,0.19836728465702436,2.9449912260623705
1682104756930797,1.7547875181201107,1.3580529488059483,2.3651483939879654
1682104756946799,1.968413824673803,2.059967956054038,0.7476920729380936
1682104756962801,3.5248340581368893,3.7079423208972457,-0.3509575036240449
1682104756978803,4.83710994125272,5.2338445105668825,-1.2359807736323773
1682104756994805,5.569542992294146,5.600061036087595,-1.7242694743266611
1682104757010808,5.722133211261166,6.485084306095928,-1.1139085984588064
1682104757026810,4.226749065384865,7.064927138170447,0.16784924086368846
1682104757042812,3.585870145723675,7.3090714885175885,0.41199359121083035
1682104757058814,3.2806897077897474,6.9733730067902115,0.4730296787976158
1682104757074816,3.2806897077897474,7.156481269550568,0.7476920729380936
1682104757090819,1.2054627298390415,6.88181887541009,2.4872205691615363
1682104757106821,-2.059967956054038,5.844205386434737,3.5248340581368893
1682104757122823,-2.7008468757152286,3.0365453574426056,3.9826047150377235
1682104757138825,-0.9002822919051141,1.4496070801861833,4.86762798504617
1682104757154827,2.426184481574751,0.3204394598305953,4.745555809872599
1682104757170829,5.1117723353933116,0.93080033569845,2.9449912260623705
1682104757186832,4.776073853665935,1.2970168612191628,0.9613183794918996
1682104757202834,-11.520561532005786,5.416952773327239,-1.2359807736323773
1682104757218836,-44.90730144197755,10.391393911650198,-1.968413824673803
1682104757234863,-53.63546196688799,8.377203021286277,0.7171740291447577
1682104757250865,-58.2131685358969,11.42900740062555,5.813687342641288
1682104757266867,-54.64255741206989,2.7924010070954637,9.475852597848416
1682104757282869,-42.038605325398635,-5.50850690470736,13.90096894789042
1682104757298872,-24.917982757305253,-9.811551079575793,16.647592889295765
1682104757314874,-7.858396276798658,-13.504234378576257,16.647592889295765
1682104757330876,-2.7924010070954637,-13.19905394064233,12.314030670633997
1682104757346878,-0.16784924086368846,-11.917296101319835,7.034409094376997
1682104757362880,8.865491721980561,-10.818646524757696,5.2338445105668825
1682104757378883,18.905928130006828,-9.29274433508806,4.531929503318793
1682104757394885,24.216067750057164,-7.003891050583661,3.128099488822727
1682104757410887,27.847714961470956,-4.348821240558436,2.30411230640118
1682104757426889,29.55672541390095,-1.7547875181201107,8.987563897154132
1682104757442891,30.655374990463088,-1.6632333867398756,18.692301823453022
1682104757458893,27.389944304570008,-5.203326466773433,27.75616083009072
1682104757474896,16.15930418860148,-6.485084306095928,28.27496757457834
1682104757490898,15.945677882047676,-7.339589532310924,20.950637064164084
1682104757506900,13.809414816510184,-7.644769970244852,8.74341954680699
1682104757522902,7.705806057831637,-6.72922865644307,1.846341649500232
1682104757538904,3.4943160143434397,-3.891050583657602,-2.090485999847374
1682104757554901,3.768978408484031,-2.883955138475585,-3.799496452277367
1682104757570903,5.081254291599862,-2.2735942626077303,-3.7079423208972457
1682104757586905,5.691615167467717,-1.144426642252256,-4.745555809872599
1682104757602907,8.590829327840083,1.3275349050126124,-8.285648889906156
1682104757618909,9.201190203707938,3.585870145723675,-11.886778057526499
1682104757634912,7.492179751277945,5.844205386434737,-15.518425268940177
1682104757650914,5.1117723353933116,7.492179751277945,-17.99038681620516
1682104757666916,2.426184481574751,9.201190203707938,-17.99038681620516
1682104757682918,-0.6561379415579722,9.353780422674845,-16.61707484550243
1682104757698920,-4.074158846417959,9.56740672922865,-13.534752422369706
1682104757714923,-5.783169298847952,8.22461280231937,-10.727092393377575
1682104757730925,-6.027313649195094,6.912336919203426,-6.027313649195094
1682104757746927,-3.8605325398641526,4.16571297779808,1.1749446860455919
1682104757762929,-5.477988860914024,4.898146028839506,8.804455634393776
1682104757778931,-9.811551079575793,3.7079423208972457,16.647592889295765
1682104757794933,-10.11673151750972,-0.7782101167315432,21.194781414511226
1682104757810936,-9.140154116121153,-5.996795605401644,24.64332036316455
1682104757826938,-12.954909590295188,-8.133058670939135,32.02868696116593
1682104757842940,-11.795223926146264,-15.396353093766606,39.658197909514
1682104757858942,-11.001754787518053,-20.43183031967658,40.451667048142326
1682104757874939,-5.569542992294146,-25.497825589379772,38.345922026398284
1682104757890941,-0.4730296787976158,-26.138704509040963,36.33173113603425
1682104757906943,4.531929503318793,-24.765392538338347,34.53116655222402
1682104757922945,4.562447547112242,-21.805142290379194,33.82925154497616
1682104757938947,4.592965590905578,-19.943541618982294,32.97474631876116
1682104757954949,3.0670634012359415,-18.20401312275885,27.206836041809538
1682104757970952,1.5106431677729688,-16.830701152056236,19.089036392767184
1682104757986954,-1.0833905546654705,-14.938582436865772,11.703669794766142
1682104758002956,-0.3509575036240449,-13.839932860303634,7.125963225757232
1682104758018958,3.128099488822727,-13.015945677881973,4.83710994125272
1682104758034960,7.858396276798658,-12.13092240787364,2.30411230640118
1682104758050963,8.89600976577401,-13.229571984435779,-2.2430762188143945
1682104758066965,10.025177386129485,-14.328221560997918,-8.194094758525921
1682104758082967,9.140154116121153,-14.175631342030897,-11.85626001373305
1682104758098969,7.3090714885175885,-12.252994583047212,-12.375066758220783
1682104758114971,6.0578316929884295,-9.41481651026163,-13.138017853055544
1682104758130973,3.8605325398641526,-7.736324101625087,-14.755474174105416
1682104758146976,2.426184481574751,-8.712901503013654,-15.548943312733627
1682104758162978,1.9989318684672526,-9.628442816815436,-14.54184786755161
1682104758178980,2.731364919508678,-9.29274433508806,-12.222476539253762
1682104758195007,2.30411230640118,-8.682383459220205,-10.574502174410554
1682104758211009,-0.5645838101777372,-7.827878233005208,-10.391393911650198
1682104758227011,-4.898146028839506,-7.614251926451516,-12.619211108567924
1682104758243013,-8.89600976577401,-6.515602349889377,-15.396353093766606
1682104758259016,-9.536888685435201,-5.386434729533789,-17.349507896543855
1682104758275018,-7.278553444724139,-2.1210040436408235,-19.18059052414742
1682104758291020,-1.2359807736323773,1.2970168612191628,-19.913023575188845
1682104758307022,0.5645838101777372,5.447470817120575,-17.53261615930421
1682104758323024,2.090485999847374,7.705806057831637,-16.739147020676
1682104758339027,0.5645838101777372,10.849164568551146,-16.34241245136195
1682104758355029,-0.9002822919051141,14.267185473411132,-13.443198290989471
1682104758371031,-2.1515220874341594,18.295567254138973,-7.248035400930803
1682104758387033,-6.332494087129021,21.92721446555265,0.7171740291447577
1682104758403035,-12.893873502708402,21.83566033417253,8.529793240253298
1682104758419037,-18.53971160448623,20.06561379415575,13.260090028229115
1682104758435040,-20.79804684519729,18.72281986724647,15.426871137560056
1682104758451042,-17.624170290684447,18.142977035171953,14.785992217898752
1682104758467044,-12.558175020981139,17.288471808956956,12.069886320286855
1682104758483046,-9.048599984740918,15.732051575493983,8.499275196459848
1682104758499048,-6.72922865644307,14.69443808651863,5.691615167467717
1682104758515045,-4.898146028839506,13.90096894789042,3.219653620202962
1682104758531047,-5.2338445105668825,13.443198290989471,1.266498817425827
1682104758547049,-5.569542992294146,11.85626001373305,-0.19836728465702436
1682104758563051,-7.003891050583661,12.924391546501852,-0.015259021896667946
1682104758579054,-8.163576714732585,14.480811779964824,0.7476920729380936
1682104758595056,-8.285648889906156,15.2437628747997,1.3580529488059483
1682104758611058,-6.698710612649734,14.602883955138395,1.6021972991530902
1682104758627060,-4.86762798504617,14.297703517204468,1.266498817425827
1682104758643062,-2.731364919508678,13.473716334782921,0.7782101167315432
1682104758659064,-0.41199359121083035,12.710765239948046,0.106813153276903
1682104758675067,1.968413824673803,12.771801327534831,-0.5340657663844013
1682104758691069,3.0365453574426056,11.673151750972693,-0.93080033569845
1682104758707071,1.1139085984588064,10.269321736476627,-1.2970168612191628
1682104758723073,-1.846341649500232,7.522697795071281,0.07629510948345342
1682104758739075,-3.128099488822727,5.1117723353933116,2.7924010070954637
1682104758755077,-6.0578316929884295,4.684519722285813,8.499275196459848
1682104758771080,-11.459525444419,7.797360189211872,14.54184786755161
1682104758787082,-19.18059052414742,8.07202258335235,19.760433356221824
1682104758803084,-24.765392538338347,3.9520866712443876,23.788815136949665
1682104758819086,-30.807965209430108,2.6092927443351073,24.76539253833812
1682104758835113,-27.054245822842745,-2.2430762188143945,25.07057297627216
1682104758851115,-18.11245899137873,-3.463797970550104,25.101091020065496
1682104758867118,-6.301976043335571,-4.226749065384865,22.873273823147883
1682104758883120,4.501411459525457,-5.844205386434737,17.044327458609814
1682104758899122,11.154345006485073,-5.355916685740453,11.734187838559478
1682104758915124,14.114595254444112,-5.783169298847952,9.018081940947582
1682104758931126,13.138017853055544,-3.0670634012359415,3.768978408484031
1682104758947128,11.642633707179357,-0.2594033722438098,0.6866559853513081
1682104758963131,9.384298466468294,1.7853055619134466,1.3275349050126124
1682104758979133,6.88181887541009,4.440375371938671,0.2899214160372594
1682104758995135,6.9733730067902115,6.027313649195094,-1.6327153429465397
1682104759011137,7.736324101625087,7.675288014038301,-2.2735942626077303
1682104759027139,8.1025406271458,8.926527809567347,-3.250171663996298
1682104759043141,8.285648889906156,9.44533455405508,-5.355916685740453
1682104759059144,5.355916685740453,10.605020218204004,-4.928664072632955
1682104759075146,1.7853055619134466,11.398489356832215,-3.341725795376533
1682104759091148,-0.38147554741738077,11.734187838559478,-1.6021972991530902
1682104759107150,-1.4801251239795192,11.581597619592571,0.106813153276903
1682104759123152,-2.182040131227609,12.619211108567924,0.41199359121083035
1682104759139155,-2.97550926985582,13.382162203402686,0.106813153276903
1682104759155151,-6.0578316929884295,14.419775692378039,-0.5645838101777372
1682104759171153,-8.682383459220205,15.579461356526963,-0.9918364232852355
1682104759187155,-10.78812848096436,15.671015487907198,-0.22888532845047393
1682104759203158,-8.926527809567347,14.480811779964824,0.8087281605248791
1682104759219160,-6.912336919203426,12.80231937132828,1.2359807736323773
1682104759235162,-5.081254291599862,11.459525444419,2.3651483939879654
1682104759251164,-3.463797970550104,10.147249561303056,3.891050583657602
1682104759267166,-3.3112077515830833,9.048599984740918,3.9520866712443876
1682104759283168,-5.142290379186647,8.1025406271458,2.97550926985582
1682104759299171,-4.654001678492364,6.72922865644307,2.3956664377813013
1682104759315173,-0.5340657663844013,4.83710994125272,1.6021972991530902
1682104759331175,3.219653620202962,3.1586175326161765,0.8697642481116645
1682104759347177,4.806591897459384,2.059967956054038,-0.41199359121083035
1682104759363179,5.691615167467717,1.2359807736323773,-1.937895780880467
1682104759379181,7.034409094376997,-0.16784924086368846,-2.0294499122605885
1682104759395184,6.576638437476163,-0.9002822919051141,-2.4872205691615363
1682104759411186,5.0202182040130765,-1.4496070801861833,-3.555352101930225
1682104759427188,5.691615167467717,-2.3651483939879654,-3.9520866712443876
1682104759443190,8.194094758525921,-3.0670634012359415,-4.592965590905578
1682104759459192,10.269321736476627,-3.219653620202962,-5.691615167467717
1682104759475189,10.696574349584125,-3.585870145723675,-5.50850690470736
1682104759491191,7.705806057831637,-3.555352101930225,-5.081254291599862
1682104759507193,5.50850690470736,-3.8300144960708167,-4.470893415732007
1682104759523195,4.043640802624509,-3.8300144960708167,-4.409857328145222
1682104759539198,3.097581445029391,-3.8300144960708167,-4.745555809872599
1682104759555200,5.630579079880931,-3.7079423208972457,-4.715037766079149
1682104759571202,8.041504539559014,-2.9144731822690346,-5.2338445105668825
1682104759587204,5.081254291599862,-2.090485999847374,-5.813687342641288
1682104759603206,3.6469062333104603,-2.2735942626077303,-4.806591897459384
1682104759619208,6.424048218509142,-3.799496452277367,-2.7008468757152286
1682104759635211,8.804455634393776,-4.86762798504617,-1.6937514305333252
1682104759651213,7.55321583886473,-4.409857328145222,-2.883955138475585
1682104759667215,7.0954451819637825,-4.226749065384865,-3.921568627450938
1682104759683217,9.872587167162578,-4.531929503318793,-3.7384603646905816
1682104759699219,9.658960860608772,-4.1962310215915295,-4.16571297779808
1682104759715222,5.2338445105668825,-3.128099488822727,-6.0578316929884295
1682104759731224,2.059967956054038,-2.9144731822690346,-6.790264744029855
1682104759747226,4.440375371938671,-3.7384603646905816,-5.386434729533789
1682104759763228,8.1025406271458,-4.592965590905578,-4.287785152971651
1682104759779230,9.201190203707938,-4.654001678492364,-4.1962310215915295
1682104759795257,9.079118028534367,-4.501411459525457,-3.9520866712443876
1682104759811259,9.384298466468294,-4.3183031967651,-3.677424277103796
1682104759827262,6.942854962996876,-4.135194934004744,-3.4332799267566543
1682104759843264,2.3956664377813013,-3.768978408484031,-3.6469062333104603
1682104759859266,0.9002822919051141,-4.043640802624509,-3.1586175326161765
1682104759875268,3.8605325398641526,-4.776073853665935,-1.7547875181201107
1682104759891270,5.996795605401644,-5.081254291599862,-1.022354467078685
1682104759907272,4.928664072632955,-4.16571297779808,-1.7547875181201107
1682104759923275,2.7008468757152286,-3.250171663996298,-2.9449912260623705
1682104759939277,2.1210040436408235,-3.1586175326161765,-2.7924010070954637
1682104759955279,1.8768596932936816,-3.555352101930225,-2.2430762188143945
1682104759971281,1.266498817425827,-4.1046768902112944,-1.9989318684672526
1682104759987283,1.3885709925993979,-4.440375371938671,-2.212558175020945
1682104760003286,0.6866559853513081,-4.654001678492364,-2.6092927443351073
1682104760019288,-0.2899214160372594,-4.531929503318793,-2.853437094682249
1682104760035290,1.3885709925993979,-5.1117723353933116,-1.7242694743266611
1682104760051292,4.287785152971651,-5.783169298847952,-0.41199359121083035
1682104760067294,3.921568627450938,-5.844205386434737,0.015259021896667946
1682104760083296,1.0833905546654705,-5.386434729533789,-0.6561379415579722
1682104760099299,-1.4190890363927338,-5.294880598153668,-1.937895780880467
1682104760115295,-1.6937514305333252,-6.424048218509142,-2.212558175020945
1682104760131297,0.22888532845047393,-7.980468451972229,-1.022354467078685
1682104760147299,2.090485999847374,-9.018081940947582,0.2594033722438098
1682104760163302,3.463797970550104,-10.055695429922935,1.6632333867398756
1682104760179304,-0.22888532845047393,-9.048599984740918,-1.5411612115663047
1682104760195306,-22.629129472800855,-4.989700160219741,-9.201190203707938
1682104760211308,-65.59853513389794,-5.50850690470736,-17.593652246890997
1682104760227310,-89.7688258182651,-6.88181887541009,-24.795910582131683
1682104760243312,-78.08041504539551,-19.33318074311444,-17.83779659723814
1682104760259315,-46.066987106126476,-34.897383077744735,-6.1493858243686645
1682104760275317,-11.33745326924543,-48.813611047531936,12.832837415121617
1682104760291319,-4.806591897459384,-58.76249332417797,27.298390173189773
1682104760307321,-17.86831464103159,-67.58220798046841,36.17914091706734
1682104760323323,-29.00740062561988,-76.21881437399861,41.76394293125827
1682104760339326,-30.563820859082966,-85.03852903028917,47.959105821316825
1682104760355328,-22.903791866941333,-93.76668955519949,51.95696955825133
1682104760371330,-10.818646524757696,-98.3443961242084,52.90302891584656
1682104760387332,-0.8697642481116645,-96.08606088349734,45.63973449301898
1682104760403334,6.301976043335571,-92.63752193484402,36.026550698100436
1682104760419336,9.353780422674845,-85.03852903028917,22.812237735561098
1682104760435363,7.705806057831637,-75.45586327916374,10.238803692683291
1682104760451366,5.752651255054502,-65.29335469596401,0.9613183794918996
1682104760467368,8.651865415426869,-57.267109178301666,-5.783169298847952
1682104760483370,11.642633707179357,-49.485008010986576,-10.605020218204004
1682104760499372,12.283512626840547,-42.038605325398635,-13.626306553749828
1682104760515374,8.041504539559014,-37.7355611505302,-14.02304112306399
1682104760531376,0.93080033569845,-36.39276722362092,-11.734187838559478
1682104760547379,-6.0578316929884295,-35.78240634775307,-6.576638437476163
1682104760563381,-4.1046768902112944,-35.47722590981914,2.1515220874341594
1682104760579383,-2.30411230640118,-36.881055924315206,8.682383459220205
1682104760595385,-8.865491721980561,-36.42328526741437,7.980468451972229
1682104760611387,-13.504234378576257,-34.83634699015795,9.719996948195558
1682104760627390,-5.203326466773433,-34.744792858777714,10.543984130617218
1682104760643392,8.74341954680699,-29.312581063553807,3.8605325398641526
1682104760659394,15.701533531700534,-26.35233081559477,0.9002822919051141
1682104760675396,22.812237735561098,-18.90592813000694,-1.6021972991530902
1682104760691398,23.758297093156216,-11.703669794766142,-4.592965590905578
1682104760707400,26.565957122148347,-4.16571297779808,-4.715037766079149
1682104760723403,27.695124742503822,2.2430762188143945,-3.4027618829633184
1682104760739405,24.460212100404306,7.827878233005208,-9.201190203707938
1682104760755401,17.22743572137017,10.421911955443647,-13.809414816510184
1682104760771403,14.755474174105416,11.398489356832215,-10.63553826199734
1682104760787406,19.333180743114326,11.947814145113284,0.106813153276903
1682104760803408,23.819333180743,12.283512626840547,4.959182116426291
1682104760819410,21.652552071412174,15.732051575493983,3.097581445029391
1682104760835412,18.387121385519094,21.71358815899896,0.44251163500416624
1682104760851414,12.222476539253762,27.084763866635967,-1.7853055619134466
1682104760867416,4.898146028839506,29.007400625619766,-1.3885709925993979
1682104760883419,0.3204394598305953,29.251544975966908,1.6021972991530902
1682104760899421,0.07629510948345342,29.129472800793337,4.928664072632955
1682104760915423,2.182040131227609,29.770351720454528,2.548256656748322
1682104760931425,9.44533455405508,28.702220187685953,2.0294499122605885
1682104760947427,23.331044480048718,27.51201647974358,-1.3885709925993979
1682104760963430,33.27992675669498,27.75616083009072,-2.853437094682249
1682104760979432,35.53826199740615,26.718547341115254,-3.921568627450938
1682104760995434,34.74479285877783,24.734874494544783,-5.569542992294146
1682104761011436,33.676661326009025,23.239490348668596,-10.055695429922935
1682104761027438,36.942092011902105,19.94354161898218,-16.922255283436357
1682104761043440,38.55954833295186,18.32608529793231,-22.14084077210657
1682104761059443,29.49568932631405,10.08621347371627,-13.382162203402686
1682104761075470,20.126649881742537,12.00885023270007,1.8768596932936816
1682104761091472,30.106050202181905,20.248722056916108,6.301976043335571
1682104761107475,34.16495002670331,19.638361181048253,5.477988860914024
1682104761123478,34.28702220187688,8.1025406271458,-0.106813153276903
1682104761139480,43.90020599679565,5.386434729533789,-14.908064393072323
1682104761155483,50.43106736858181,0.8087281605248791,-24.97901884489204
1682104761171486,48.47791256580467,6.546120393682713,-26.04715037766084
1682104761187488,33.40199893186855,25.955596246280493,-14.358739604791253
1682104761203491,35.04997329671187,32.66956588082712,-6.515602349889377
1682104761219493,20.767528801403728,38.01022354467091,-9.842069123369129
1682104761235496,3.9826047150377235,35.99603265430687,-13.595788509956492
1682104761251499,2.30411230640118,35.17204547188544,-12.893873502708402
1682104761267501,4.013122758831173,34.16495002670331,-9.41481651026163
1682104761283504,0.3204394598305953,34.34805828946378,-7.980468451972229
1682104761299507,-2.3651483939879654,33.49355306324878,-7.248035400930803
1682104761315509,0.16784924086368846,31.448844129091412,-6.301976043335571
1682104761331512,2.761882963302014,28.15289539940477,-5.9357595178148586
1682104761347515,2.0294499122605885,22.90379186694122,-5.874723430228073
1682104761363517,3.463797970550104,16.952773327229693,-5.325398641947004
1682104761379520,5.172808422980097,13.443198290989471,-3.2806897077897474
1682104761395507,8.316166933699492,14.450293736171488,-0.2594033722438098
1682104761411510,11.886778057526499,17.471580071717312,0.106813153276903
1682104761427512,9.933623254749364,19.302662699320877,-0.5035477225909517
1682104761443514,6.21042191195545,20.981155107957534,-0.38147554741738077
1682104761459516,3.585870145723675,22.35446707866015,0.015259021896667946
1682104761475518,2.3956664377813013,22.659647516594077,0.5035477225909517
1682104761491521,1.4496070801861833,21.194781414511226,0.4730296787976158
1682104761507523,2.0294499122605885,20.126649881742537,1.2970168612191628
1682104761523525,5.661097123674381,19.27214465552754,2.212558175020945
1682104761539527,4.86762798504617,17.38002594033719,1.6632333867398756
1682104761555529,2.2735942626077303,15.030136568245894,0.5645838101777372
1682104761571531,-0.19836728465702436,11.97833218890662,0.2594033722438098
1682104761587534,-1.3885709925993979,9.811551079575793,0.22888532845047393
1682104761603536,0.045777065690117524,8.468757152666512,-0.015259021896667946
1682104761619538,2.9144731822690346,8.377203021286277,-1.2359807736323773
1682104761635540,4.3183031967651,9.079118028534367,-3.585870145723675
1682104761651542,5.691615167467717,8.957045853360796,-4.592965590905578
1682104761667544,7.064927138170447,8.468757152666512,-4.409857328145222
1682104761683547,6.851300831616641,6.485084306095928,-3.6469062333104603
1682104761699549,5.874723430228073,3.921568627450938,-2.1515220874341594
1682104761715545,6.851300831616641,1.0833905546654705,0.5035477225909517
1682104761731547,8.74341954680699,-0.6256198977645226,3.219653620202962
1682104761747550,10.971236743724717,-1.7853055619134466,4.806591897459384
1682104761763552,12.344548714427333,-1.6021972991530902,4.531929503318793
1682104761779554,11.85626001373305,-0.5340657663844013,3.2806897077897474
1682104761795556,10.330357824063412,0.2594033722438098,1.846341649500232
1682104761811558,10.238803692683291,-0.015259021896667946,1.3275349050126124
1682104761827561,10.269321736476627,-1.7242694743266611,1.8158236057068962
1682104761843563,10.879682612344482,-3.2806897077897474,2.426184481574751
1682104761859565,12.191958495460426,-4.654001678492364,2.8229190508887996
1682104761875567,13.595788509956492,-4.86762798504617,2.853437094682249
1682104761891569,13.778896772716848,-4.684519722285813,2.182040131227609
1682104761907571,15.060654612039343,-4.86762798504617,1.4190890363927338
1682104761923574,16.861219195849458,-5.0202182040130765,0.4730296787976158
1682104761939576,15.854123750667554,-4.654001678492364,-0.38147554741738077
1682104761955578,14.358739604791253,-3.1891355764095124,-1.5411612115663047
1682104761971580,13.015945677881973,-1.2054627298390415,-1.8158236057068962
1682104761987582,9.140154116121153,0.93080033569845,-1.9073777370870175
1682104762003584,6.72922865644307,1.937895780880467,-1.1139085984588064
1682104762019587,6.301976043335571,2.334630350194516,0.44251163500416624
1682104762035614,7.034409094376997,2.212558175020945,1.7547875181201107
1682104762051616,8.89600976577401,1.8768596932936816,2.6703288319218927
1682104762067619,8.926527809567347,1.937895780880467,3.006027313649156
1682104762083622,7.949950408178779,1.5106431677729688,3.3112077515830833
1682104762099624,8.163576714732585,0.6866559853513081,4.1046768902112944
1682104762115627,7.736324101625087,-0.3509575036240449,4.470893415732007
1682104762131630,7.1869993133440175,-1.5411612115663047,4.1046768902112944
1682104762147632,6.454566262302592,-1.6021972991530902,2.334630350194516
1682104762163635,7.522697795071281,-2.426184481574751,1.052872510872021
1682104762179638,8.407721065079727,-2.7008468757152286,-0.2594033722438098
1682104762195640,7.156481269550568,-2.5787747005416577,-1.6937514305333252
1682104762211643,4.745555809872599,-2.9449912260623705,-2.883955138475585
1682104762227645,3.6469062333104603,-3.463797970550104,-3.8605325398641526
1682104762243648,3.006027313649156,-4.287785152971651,-4.989700160219741
1682104762259651,2.731364919508678,-5.600061036087595,-6.179903868162
1682104762275653,4.013122758831173,-6.851300831616641,-7.0954451819637825
1682104762291656,7.675288014038301,-7.736324101625087,-7.1869993133440175
1682104762307659,10.605020218204004,-7.919432364385443,-7.40062561989771
1682104762323661,10.055695429922935,-6.790264744029855,-8.010986495765565
1682104762339664,7.797360189211872,-5.325398641947004,-8.22461280231937
1682104762355651,4.1962310215915295,-4.715037766079149,-7.644769970244852
1682104762371654,1.022354467078685,-4.959182116426291,-5.874723430228073
1682104762387657,-0.2594033722438098,-5.905241474021523,-3.7384603646905816
1682104762403659,-0.22888532845047393,-7.217517357137353,-2.2430762188143945
1682104762419662,1.144426642252256,-8.346684977492941,-1.4190890363927338
1682104762435665,2.639810788128443,-8.987563897154132,-1.2054627298390415
1682104762451667,2.334630350194516,-8.560311284046634,-2.0294499122605885
1682104762467670,2.6703288319218927,-7.3090714885175885,-2.5177386129548722
1682104762483673,2.1210040436408235,-5.996795605401644,-2.7924010070954637
1682104762499675,1.0833905546654705,-6.027313649195094,-2.761882963302014
1682104762515678,1.846341649500232,-6.607156481269499,-2.2735942626077303
1682104762531681,2.6092927443351073,-7.522697795071281,-2.1210040436408235
1682104762547683,2.8229190508887996,-7.949950408178779,-2.6703288319218927
1682104762563686,3.7079423208972457,-8.285648889906156,-3.250171663996298
1682104762579689,3.768978408484031,-8.651865415426869,-3.4943160143434397
1682104762595691,3.0670634012359415,-9.262226291294724,-3.341725795376533
1682104762611694,2.3956664377813013,-10.299839780270077,-3.3112077515830833
1682104762627697,5.142290379186647,-12.191958495460426,-2.7924010070954637
1682104762643699,7.034409094376997,-11.612115663385907,-2.97550926985582
1682104762659702,6.332494087129021,-10.696574349584125,-3.555352101930225
1682104762675720,4.287785152971651,-9.231708247501274,-4.013122758831173
1682104762691722,3.341725795376533,-7.156481269550568,-3.8605325398641526
1682104762707725,2.090485999847374,-6.393530174715806,-2.97550926985582
1682104762723728,1.4496070801861833,-5.325398641947004,-0.8697642481116645
1682104762739730,0.16784924086368846,-5.53902494850081,0.9613183794918996
1682104762755733,0.8087281605248791,-5.294880598153668,3.0365453574426056
1682104762771736,2.548256656748322,-4.562447547112242,4.257267109178315
1682104762787738,4.562447547112242,-3.3112077515830833,4.898146028839506
1682104762803741,3.372243839169869,-0.93080033569845,5.1117723353933116
1682104762819744,-1.5106431677729688,0.7476920729380936,4.776073853665935
1682104762835746,-3.6163881895170107,1.6021972991530902,5.722133211261166
1682104762851749,-3.8605325398641526,2.853437094682249,7.1869993133440175
1682104762867752,-4.013122758831173,4.1046768902112944,8.74341954680699
1682104762883754,-4.379339284351886,5.325398641947004,10.543984130617218
1682104762899757,-4.959182116426291,7.064927138170447,11.947814145113284
1682104762915760,-6.851300831616641,9.018081940947582,12.375066758220783
1682104762931762,-8.1025406271458,11.001754787518053,12.52765697718769
1682104762947765,-8.468757152666512,13.565270466163042,12.558175020981139
1682104762963768,-9.99465934233615,15.152208743419465,12.64972915236126
1682104762979770,-9.597924773021987,15.976195925841125,13.35164415960935
1682104762995758,-8.651865415426869,17.074845502403264,13.717860685130063
1682104763011760,-9.842069123369129,16.891737239642907,13.229571984435779
1682104763027763,-10.421911955443647,16.372930495155174,11.795223926146264
1682104763043766,-11.825741969939713,16.739147020675887,10.238803692683291
1682104763059768,-12.314030670633997,17.92935072861826,9.140154116121153
1682104763075771,-11.795223926146264,17.624170290684333,8.651865415426869
1682104763091774,-11.97833218890662,16.495002670328745,7.003891050583661
1682104763107776,-10.452429999236983,15.518425268940177,5.722133211261166
1682104763123779,-7.980468451972229,15.396353093766606,4.83710994125272
1682104763139782,-5.9357595178148586,15.152208743419465,5.294880598153668
1682104763155784,-4.592965590905578,15.976195925841125,5.447470817120575
1682104763171787,-6.912336919203426,17.563134203097547,6.424048218509142
1682104763187790,-11.215381094071859,18.783855954833257,7.55321583886473
1682104763203792,-15.640497444113862,20.61493858243682,9.903105210955914
1682104763219795,-18.63126573586635,20.828564888990513,12.710765239948046
1682104763235798,-15.732051575494097,20.523384451056586,15.91515983825434
1682104763251800,-8.865491721980561,18.539711604486115,19.27214465552754
1682104763267803,-4.86762798504617,15.823605706874105,22.568093385213956
1682104763283805,-1.3885709925993979,11.184863050278409,25.89456015869382
1682104763299808,0.7476920729380936,10.696574349584125,27.725642786297385
1682104763315796,1.4190890363927338,8.041504539559014,30.77744716563666
1682104763331798,1.4190890363927338,6.332494087129021,34.0123598077364
1682104763347801,0.7171740291447577,4.684519722285813,36.91157396810877
1682104763363803,2.182040131227609,4.3183031967651,39.07835507743971
1682104763379806,3.8605325398641526,4.074158846417959,41.367208361943995
1682104763395809,4.684519722285813,3.4943160143434397,42.771038376440174
1682104763411811,3.8605325398641526,7.278553444724139,42.61844815747327
1682104763427814,1.968413824673803,10.78812848096436,41.672388799878036
1682104763443817,2.1515220874341594,14.66392004272518,40.63477531090257
1682104763459819,3.2806897077897474,18.509193560692665,39.566643778133994
1682104763475822,0.7171740291447577,20.737010757610392,39.07835507743971
1682104763491825,-2.7008468757152286,23.880369268329787,37.125200274662575
1682104763507827,-5.722133211261166,26.321812771801206,34.83634699015806
1682104763523830,-7.064927138170447,27.298390173189773,32.76112001220736
1682104763539833,-8.316166933699492,27.206836041809538,30.13656824597524
1682104763555835,-7.949950408178779,25.314717326619302,27.908751049057628
1682104763571838,-5.691615167467717,22.812237735561098,26.504921034561676
1682104763587841,-4.135194934004744,20.737010757610392,25.406271457999537
1682104763603843,-3.7384603646905816,19.455252918287897,23.758297093156216
1682104763619846,-3.1586175326161765,18.539711604486115,21.866178377965866
1682104763635864,-1.7547875181201107,17.410543984130527,19.82146944380861
1682104763651867,-3.219653620202962,15.152208743419465,18.02090485999838
1682104763667869,-5.569542992294146,16.067750057221247,15.640497444113748
1682104763683872,-6.454566262302592,15.671015487907198,12.436102845807568
1682104763699875,-6.698710612649734,15.701533531700534,10.543984130617218
1682104763715877,-7.919432364385443,14.419775692378039,8.865491721980561
1682104763731880,-10.055695429922935,13.3211261158159,7.370107576104374
1682104763747882,-9.811551079575793,12.344548714427333,6.0578316929884295
1682104763763885,-6.698710612649734,11.30693522545198,4.776073853665935
1682104763779888,-4.623483634699028,9.872587167162578,2.97550926985582
1682104763795890,-2.9449912260623705,7.675288014038301,0.6561379415579722
1682104763811893,-1.1139085984588064,5.203326466773433,-1.5716792553597543
1682104763827896,-0.5645838101777372,2.731364919508678,-4.074158846417959
1682104763843898,-0.16784924086368846,0.44251163500416624,-5.53902494850081
1682104763859901,1.7242694743266611,-1.6632333867398756,-6.485084306095928
1682104763875904,4.531929503318793,-2.7924010070954637,-8.133058670939135
1682104763891906,8.07202258335235,-3.341725795376533,-10.543984130617218
1682104763907909,9.323262378881509,-3.8300144960708167,-13.382162203402686
1682104763923912,11.276417181658644,-4.409857328145222,-15.579461356526963
1682104763939914,13.717860685130063,-4.684519722285813,-17.1663996337835
1682104763955902,12.619211108567924,-5.874723430228073,-18.53971160448623
1682104763971904,10.574502174410554,-7.461661707484495,-19.241626611734205
1682104763987907,8.957045853360796,-9.048599984740918,-19.45525291828801
1682104764003910,9.41481651026163,-10.208285648889841,-19.638361181048367
1682104764019912,11.734187838559478,-10.971236743724717,-19.943541618982294
1682104764035915,13.19905394064233,-10.879682612344482,-20.43183031967658
1682104764051918,11.093308918898288,-10.818646524757696,-21.34737163347836
1682104764067920,8.77393759060044,-10.75761043717091,-21.98825055313955
1682104764083923,8.346684977492941,-10.910200656137931,-22.14084077210657
1682104764099926,9.811551079575793,-10.75761043717091,-21.683070115205624
1682104764115928,10.605020218204004,-10.330357824063412,-20.64545662623027
1682104764131931,10.513466086823769,-10.238803692683291,-19.363698786907776
1682104764147934,10.63553826199734,-10.025177386129485,-18.08194094758528
1682104764163936,10.66605630579079,-9.842069123369129,-16.830701152056236
1682104764179939,8.89600976577401,-9.506370641641865,-16.06775005722136
1682104764195942,6.027313649195094,-8.74341954680699,-15.487907225146841
1682104764211944,3.8605325398641526,-8.651865415426869,-14.785992217898752
1682104764227947,2.2430762188143945,-8.651865415426869,-14.084077210650776
1682104764243950,3.0365453574426056,-8.194094758525921,-13.504234378576257
1682104764259952,3.1891355764095124,-7.1869993133440175,-13.717860685130063
1682104764275970,3.006027313649156,-5.50850690470736,-14.297703517204468
1682104764291973,3.4027618829633184,-3.8605325398641526,-14.328221560997918
1682104764307975,5.569542992294146,-3.1891355764095124,-13.168535896848994
1682104764323978,7.431143663691159,-3.0670634012359415,-11.398489356832215
1682104764339981,4.287785152971651,-3.677424277103796,-10.482948043030433
1682104764355983,-0.1373311970702389,-4.623483634699028,-10.208285648889841
1682104764371986,-1.937895780880467,-4.959182116426291,-9.933623254749364
1682104764387989,-0.8697642481116645,-4.501411459525457,-10.177767605096506
1682104764403991,2.30411230640118,-3.463797970550104,-10.971236743724717
1682104764419994,3.8300144960708167,-2.5177386129548722,-12.466620889600904
1682104764435997,1.4801251239795192,-2.059967956054038,-14.724956130311966
1682104764451999,-0.8087281605248791,-4.348821240558436,-15.2437628747997
1682104764468002,0.7171740291447577,-4.684519722285813,-14.785992217898752
1682104764484005,2.5177386129548722,-7.003891050583661,-14.114595254444112
1682104764500007,3.768978408484031,-8.316166933699492,-13.443198290989471
1682104764516010,2.9449912260623705,-9.536888685435201,-13.046463721675423
1682104764532013,2.0294499122605885,-10.482948043030433,-12.344548714427333
1682104764548015,1.2359807736323773,-11.367971313038765,-11.764705882352928
1682104764564018,0.7782101167315432,-11.42900740062555,-11.215381094071859
1682104764580021,0.7476920729380936,-10.208285648889841,-11.154345006485073
1682104764596008,-0.93080033569845,-8.468757152666512,-11.97833218890662
1682104764612011,-1.266498817425827,-6.363012130922357,-13.260090028229115
1682104764628013,0.3509575036240449,-4.1046768902112944,-14.724956130311966
1682104764644016,1.0833905546654705,-2.212558175020945,-16.159304188601595
1682104764660019,0.4730296787976158,-1.3580529488059483,-16.86121919584957
1682104764676021,0.2594033722438098,-1.4496070801861833,-16.556038757915644
1682104764692024,2.059967956054038,-2.334630350194516,-15.182726787212914
1682104764708027,5.172808422980097,-3.5248340581368893,-13.076981765468759
1682104764724029,6.912336919203426,-4.592965590905578,-11.154345006485073
1682104764740032,6.088349736781879,-5.416952773327239,-9.628442816815436
1682104764756034,5.1117723353933116,-6.0578316929884295,-8.1025406271458
1682104764772037,5.447470817120575,-6.485084306095928,-6.515602349889377
1682104764788040,4.1962310215915295,-7.064927138170447,-5.1117723353933116
1682104764804042,2.1515220874341594,-7.0954451819637825,-4.013122758831173
1682104764820045,0.6866559853513081,-6.759746700236519,-3.341725795376533
1682104764836048,0.2899214160372594,-5.722133211261166,-3.097581445029391
1682104764852050,-0.22888532845047393,-4.501411459525457,-3.219653620202962
1682104764868053,-0.7782101167315432,-3.4943160143434397,-3.677424277103796
1682104764884056,-0.41199359121083035,-2.2430762188143945,-3.3112077515830833
1682104764900058,-0.5951018539711868,-1.6632333867398756,-2.9144731822690346
1682104764916076,-0.2899214160372594,-1.2970168612191628,-2.4567025253680868
1682104764932079,-0.6256198977645226,-1.2054627298390415,-2.30411230640118
1682104764948082,-1.5106431677729688,-1.8158236057068962,-2.059967956054038
1682104764964084,-0.41199359121083035,-3.0365453574426056,-1.5716792553597543
1682104764980087,1.022354467078685,-4.1962310215915295,-1.4190890363927338
1682104764996090,1.846341649500232,-5.783169298847952,-1.5716792553597543
1682104765012092,1.3580529488059483,-5.874723430228073,-1.1749446860455919
1682104765028095,-0.106813153276903,-5.722133211261166,-2.059967956054038
1682104765044098,1.5106431677729688,-5.874723430228073,-2.2430762188143945
1682104765060100,3.0670634012359415,-5.813687342641288,-2.6092927443351073
1682104765076103,3.4027618829633184,-5.752651255054502,-3.4332799267566543
1682104765092105,4.16571297779808,-5.874723430228073,-4.074158846417959
1682104765108108,5.294880598153668,-6.088349736781879,-4.409857328145222
1682104765124111,6.332494087129021,-6.118867780575215,-4.501411459525457
1682104765140113,6.851300831616641,-6.1493858243686645,-4.379339284351886
1682104765156116,6.363012130922357,-5.813687342641288,-4.776073853665935
1682104765172119,5.325398641947004,-5.416952773327239,-5.050736247806526
1682104765188121,4.959182116426291,-5.294880598153668,-4.623483634699028
1682104765204124,5.600061036087595,-5.355916685740453,-4.287785152971651
1682104765220127,7.064927138170447,-5.447470817120575,-3.768978408484031
1682104765236114,8.316166933699492,-5.081254291599862,-3.0670634012359415
1682104765252117,6.790264744029855,-4.776073853665935,-3.1891355764095124
1682104765268119,3.4943160143434397,-4.440375371938671,-3.6469062333104603
1682104765284122,0.9613183794918996,-4.409857328145222,-3.4332799267566543
1682104765300125,2.5177386129548722,-4.1046768902112944,-2.1210040436408235
1682104765316127,4.928664072632955,-3.5248340581368893,-0.6866559853513081
1682104765332130,3.8605325398641526,-2.548256656748322,-0.8392462043183286
1682104765348133,2.426184481574751,-1.8158236057068962,-0.7476920729380936
1682104765364135,1.968413824673803,-1.5106431677729688,-0.16784924086368846
1682104765380138,1.1139085984588064,-1.3275349050126124,0.106813153276903
1682104765396141,1.7242694743266611,-1.144426642252256,0.8087281605248791
1682104765412143,3.250171663996298,-0.19836728465702436,1.6327153429465397
1682104765428146,4.409857328145222,0.3509575036240449,2.883955138475585
1682104765444149,1.6021972991530902,1.937895780880467,3.555352101930225
1682104765460151,-5.325398641947004,0.8087281605248791,5.1117723353933116
1682104765476154,-6.546120393682713,-3.4027618829633184,5.386434729533789
1682104765492157,-3.463797970550104,-4.440375371938671,4.562447547112242
1682104765508159,-7.980468451972229,-4.379339284351886,5.172808422980097
1682104765524162,-4.287785152971651,-3.6469062333104603,4.928664072632955
1682104765540165,-8.255130846112706,-6.332494087129021,2.731364919508678
1682104765556182,-28.671702143892617,-10.147249561303056,10.605020218204004
1682104765572185,-29.55672541390095,-8.133058670939135,17.25795376516362
1682104765588188,-34.04287785152974,0.8697642481116645,15.091172655832679
1682104765604190,-49.210345616845984,-3.341725795376533,16.769665064469336
1682104765620193,-49.94277866788741,-14.57236591134506,18.692301823453022
1682104765636196,-32.39490348668653,-19.089036392767298,15.335317006179821
1682104765652198,-20.248722056916222,-23.48363469901585,14.236667429617683
1682104765668201,-24.826428625925132,-18.600747692073014,12.405584802014118
1682104765684204,-36.48432135500116,-16.922255283436357,20.92011902037075
1682104765700206,-61.53963530937665,-25.65041580834668,24.856946669718354
1682104765716209,-5.844205386434737,-18.600747692073014,24.856946669718354
1682104765732212,10.574502174410554,-15.335317006179821,27.11528191042953
1682104765748214,15.091172655832679,-15.609979400320412,38.19333180743115
1682104765764217,22.140840772106458,-22.41550316624705,40.66529335469613
1682104765780220,23.483634699015738,-45.151445792324694,54.12375066758227
1682104765796222,32.48645761806688,-31.69298847943844,65.11024643320366
1682104765812225,6.698710612649734,-21.255817502098125,62.97398336766605
1682104765828228,-13.656824597543277,-18.020904859998495,69.9931334401465
1682104765844230,-15.701533531700647,-19.18059052414742,78.6297398336767
1682104765860233,-13.046463721675423,-14.206149385824347,87.29686427100023
1682104765876220,-3.8605325398641526,-17.56313420309766,96.7574578469521
1682104765892223,-0.22888532845047393,-10.147249561303056,107.07255664911895
1682104765908226,-3.921568627450938,0.3204394598305953,115.86175326161606
1682104765924228,-11.001754787518053,-3.219653620202962,127.21446555275816
1682104765940231,-20.12664988174265,-1.1749446860455919,131.73113603418028
1682104765956234,-22.781719691767762,7.583733882658066,136.21728847180884
1682104765972236,-29.343099107347257,12.13092240787364,137.37697413595788
1682104765988239,-48.90516517891206,30.991073472190237,127.27550164034483
1682104766004242,-48.23376821545742,48.23376821545753,143.26695658808262
1682104766020244,-36.66742961776151,71.76317998016316,149.98092622262902
1682104766036247,-45.97543297474624,65.78164339665818,154.43656061646448
1682104766052250,-27.6646066987106,49.42397192339968,154.71122301060495
1682104766068252,-26.35233081559477,33.40199893186855,150.83543144884402
1682104766084255,-28.519111924925596,22.720683604180863,152.75806820782782
1682104766100257,-26.71854734111548,14.236667429617683,147.99725337605855
1682104766116260,-29.83138780804154,13.19905394064233,148.14984359502546
1682104766132263,-23.23949034866871,10.177767605096506,143.84679942015714
1682104766148265,-16.006713969634575,11.398489356832215,143.1754024567024
1682104766164268,-6.72922865644307,13.35164415960935,149.4010833905545
1682104766180271,-10.940718699931267,28.85481040665286,154.98588540474543
1682104766196258,-6.2714579995422355,41.245136186770424,154.77225909819163
1682104766212261,2.0294499122605885,54.489967193102984,142.748149843595
1682104766228263,4.348821240558436,62.88242923628604,129.93057145037005
1682104766244266,9.781033035782343,70.69504844739458,124.92561226825364
1682104766260269,13.35164415960935,80.03356984817265,122.7588311589227
1682104766276271,13.35164415960935,84.91645685511548,125.6885633630884
1682104766292274,12.13092240787364,89.52468146791784,128.4657053482872
1682104766308277,15.640497444113748,95.93347066453043,132.12787060349433
1682104766324279,18.905928130006828,104.90577553978801,135.72899977111456
1682104766340282,16.00671396963446,111.43663691157394,139.3911650263217
1682104766356285,11.551079575799122,114.45792324711988,142.07675288014025
1682104766372287,8.865491721980561,114.33585107194631,143.9688715953307
1682104766388290,8.74341954680699,113.84756237125202,145.28114747844666
1682104766404293,8.468757152666512,118.02853437094677,145.8915083543145
1682104766420295,5.447470817120575,123.55230029755103,146.3187609674219
1682104766436298,-4.562447547112242,128.28259708552673,149.91989013504235
1682104766452301,-4.654001678492364,133.1044480048829,165.20943007553228
1682104766468303,-3.799496452277367,139.8184176394293,184.8020141908903
1682104766484306,-4.257267109178315,139.1775387197681,191.94323643854432
1682104766500309,-7.217517357137353,130.0221255817503,186.14480811779958
1682104766516327,-18.997482261387063,104.66163118944087,176.31799801632724
1682104766532329,-21.927214465552765,90.47074082551308,160.32654306858944
1682104766548332,-10.08621347371627,81.6510261692224,137.92629892423884
1682104766564334,3.5248340581368893,77.50057221332099,118.21164263370724
1682104766580337,11.245899137865194,55.22240024414441,114.67154955367369
1682104766596340,21.04219119554432,37.94918745708401,119.40184634164962
1682104766612342,30.77744716563666,29.709315632867856,112.68787670710321
1682104766628345,36.63691157396829,27.847714961470956,108.38483253223467
1682104766644348,40.54322117952256,31.082627603570472,106.06546120393682
1682104766660350,44.08331425955612,33.37148088807521,91.87457084000903
1682104766676353,43.19829098954756,28.45807583733881,66.30045014114603
1682104766692356,41.21461814297709,21.896696421759316,47.86755168993682
1682104766708358,40.451667048142326,18.631265735866236,40.60425726710923
1682104766724361,37.521934843976624,23.17845426108181,36.69794766155496
1682104766740364,31.082627603570472,23.483634699015738,35.47722590981925
1682104766756366,25.58937972075978,25.406271457999537,36.240177004654015
1682104766772369,18.509193560692665,25.375753414205974,29.037918669413102
1682104766788372,9.842069123369129,17.22743572137017,20.004577706568966
1682104766804374,-0.8392462043183286,11.642633707179357,13.473716334782921
1682104766820377,-9.597924773021987,8.010986495765565,6.363012130922357
1682104766836364,-16.800183108262786,4.959182116426291,-1.2359807736323773
1682104766852367,-21.31685358968491,6.240939955748786,-7.034409094376997
1682104766868370,-18.875410086213492,4.3183031967651,-12.832837415121617
1682104766884372,-8.590829327840083,-8.926527809567347,-28.061341268024762
1682104766900375,-4.562447547112242,-19.028000305180512,-46.25009536888683
1682104766916378,-9.689478904402222,-30.594338902876302,-61.93636987869081
1682104766932380,-18.11245899137873,-38.37644007019151,-72.25146868085756
1682104766948383,-28.732738231479402,-41.03150988021662,-78.23300526436265
1682104766964386,-34.348058289463665,-42.587930113679704,-86.74753948271916
1682104766980388,-39.993896391241265,-48.96620126649884,-96.14709697108412
1682104766996391,-43.96124208438232,-58.27420462348368,-105.45510032806897
1682104767012394,-47.22667277027551,-70.48142214084078,-110.49057755397882
1682104767028396,-51.01091020065621,-81.68154421301597,-118.3947508964676
1682104767044399,-53.54390783550775,-93.00373846036473,-122.88090333409627
1682104767060402,-49.97329671168086,-105.88235294117646,-119.03562981612879
1682104767076404,-57.053482871747974,-115.34294651712833,-122.66727702754258
1682104767092407,-57.66384374761583,-122.14847028305485,-121.81277180132759
1682104767108410,-58.243686579690234,-125.963225757229,-120.74464026855878
1682104767124412,-44.08331425955589,-129.0455481803616,-115.55657282368202
1682104767140415,-53.910124361028466,-130.6019684138247,-116.6857404440376
1682104767156402,-50.003814755474195,-132.95185778591588,-120.50049591821164
1682104767172405,-50.553139543755265,-133.0434119172961,-122.69779507133592
1682104767188408,-38.37644007019151,-134.3251697566186,-120.31738765545128
1682104767204410,-37.88815136949722,-130.1136797131304,-120.71412222476545
1682104767220413,-39.81078812848091,-122.36209658960865,-117.14351110093844
1682104767236415,-34.95841916533152,-112.59632257572298,-113.08461127641726
1682104767252418,-33.676661326009025,-98.95475700007626,-108.2627603570611
1682104767268421,-25.65041580834668,-92.08819714656295,-103.22728313115124
1682104767284423,-22.81223773556121,-77.62264438849468,-99.25993743801018
1682104767300426,-16.037232013428024,-68.43671320668341,-92.0576791027695
1682104767316429,-8.163576714732585,-62.72983901731902,-89.1279468986038
1682104767332431,-5.9357595178148586,-52.445258258945614,-86.16769665064476
1682104767348434,-0.93080033569845,-52.35370412756549,-76.0051880674448
1682104767364437,-3.799496452277367,-38.74265659571222,-71.73266193636982
1682104767380439,-3.2806897077897474,-33.3714808880751,-63.096055542839736
1682104767396442,1.2970168612191628,-23.08690012970169,-54.91721980621048
1682104767412445,-0.2594033722438098,-17.44106202792409,-50.88883802548264
1682104767428447,-0.5340657663844013,-13.565270466163042,-46.921492332341586
1682104767444450,-4.379339284351886,-12.100404364080191,-41.489280537117565
1682104767460453,-4.379339284351886,-9.048599984740918,-38.28488593881127
1682104767476471,-10.299839780270077,-5.752651255054502,-33.27992675669486
1682104767492473,-9.781033035782343,-0.38147554741738077,-29.83138780804154
1682104767508476,-11.520561532005786,2.6092927443351073,-26.688029297322032
1682104767524479,-12.00885023270007,5.142290379186647,-25.00953688868549
1682104767540481,-9.933623254749364,6.424048218509142,-25.284199282825966
1682104767556484,-6.9733730067902115,7.736324101625087,-26.413366903181554
1682104767572487,-5.2338445105668825,10.238803692683291,-27.756160830090835
1682104767588489,-3.555352101930225,10.971236743724717,-29.80086976424809
1682104767604492,-0.07629510948345342,11.245899137865194,-32.39490348668653
1682104767620494,4.3183031967651,11.032272831311502,-35.04997329671164
1682104767636497,8.651865415426869,6.790264744029855,-37.49141680018306
1682104767652500,12.00885023270007,1.8158236057068962,-38.07125963225758
1682104767668502,14.877546349278987,-1.5411612115663047,-36.636911573968064
1682104767684505,14.602883955138395,-3.7384603646905816,-35.26359960326545
1682104767700508,13.168535896848994,-7.675288014038301,-32.333867399099745
1682104767716510,12.64972915236126,-12.100404364080191,-30.77744716563666
1682104767732513,10.299839780270077,-14.358739604791253,-27.90875104905774
1682104767748516,9.719996948195558,-12.344548714427333,-24.00244144350347
1682104767764518,9.9641412985427,-10.147249561303056,-19.33318074311444
1682104767780521,9.353780422674845,-8.407721065079727,-15.915159838254453
1682104767796508,7.492179751277945,-7.55321583886473,-13.473716334782921
1682104767812511,5.905241474021523,-4.928664072632955,-11.795223926146264
1682104767828514,8.316166933699492,-2.4567025253680868,-9.781033035782343
1682104767844516,7.034409094376997,2.8229190508887996,-7.522697795071281
1682104767860519,7.705806057831637,7.217517357137353,-5.081254291599862
1682104767876522,6.546120393682713,10.63553826199734,-2.883955138475585
1682104767892524,7.125963225757232,12.100404364080191,-1.1749446860455919
1682104767908527,7.888914320591994,13.504234378576257,0.5035477225909517
1682104767924530,7.675288014038301,14.358739604791253,2.182040131227609
1682104767940532,7.919432364385443,15.21324483100625,3.7079423208972457
1682104767956535,9.170672159914488,15.579461356526963,5.691615167467717
1682104767972538,9.201190203707938,15.823605706874105,6.454566262302592
1682104767988540,8.77393759060044,14.57236591134506,6.72922865644307
1682104768004543,10.238803692683291,13.290608072022565,6.637674525062948
1682104768020546,11.673151750972693,13.015945677881973,5.9357595178148586
1682104768036548,10.63553826199734,12.161440451666977,5.874723430228073
1682104768052551,12.069886320286855,11.764705882352928,5.203326466773433
1682104768068554,11.032272831311502,11.001754787518053,4.806591897459384
1682104768084556,10.574502174410554,11.001754787518053,3.3112077515830833
1682104768100559,10.818646524757696,10.727092393377575,1.6021972991530902
1682104768116577,7.644769970244852,9.140154116121153,0.7476920729380936
1682104768132579,4.348821240558436,8.346684977492941,0.7171740291447577
1682104768148582,4.776073853665935,8.041504539559014,-0.9918364232852355
1682104768164585,-0.7476920729380936,6.576638437476163,-1.4496070801861833
1682104768180587,-3.1586175326161765,7.705806057831637,-2.334630350194516
1682104768196590,-4.928664072632955,8.377203021286277,-3.4332799267566543
1682104768212593,-5.53902494850081,8.316166933699492,-5.142290379186647
1682104768228595,-4.806591897459384,8.163576714732585,-7.40062561989771
1682104768244598,-3.891050583657602,8.865491721980561,-9.719996948195558
1682104768260601,-2.3956664377813013,9.781033035782343,-12.252994583047212
1682104768276603,-1.2054627298390415,10.421911955443647,-15.304798962386485
1682104768292606,1.2054627298390415,9.506370641641865,-19.394216830701225
1682104768308609,4.592965590905578,7.919432364385443,-23.78881513694978
1682104768324611,7.461661707484495,7.461661707484495,-27.420462348363458
1682104768340614,10.055695429922935,7.949950408178779,-29.617761501487735
1682104768356617,12.100404364080191,7.55321583886473,-31.540398260471534
1682104768372619,12.405584802014118,5.2338445105668825,-31.57091630426487
1682104768388622,12.466620889600904,2.426184481574751,-31.113145647364036
1682104768404625,11.490043488212336,0.106813153276903,-30.014496070801897
1682104768420627,10.75761043717091,-0.7476920729380936,-29.251544975967022
1682104768436615,7.736324101625087,-2.4567025253680868,-27.2373540856031
1682104768452617,6.240939955748786,-4.501411459525457,-25.619897764553343
1682104768468620,2.0294499122605885,-6.332494087129021,-23.20897230487526
1682104768484623,-1.2054627298390415,-7.064927138170447,-21.164263370718004
1682104768500625,-2.9144731822690346,-10.879682612344482,-21.46944380865193
1682104768516628,-6.546120393682713,-14.175631342030897,-21.07270923933777
1682104768532631,-9.41481651026163,-16.34241245136195,-19.028000305180512
1682104768548633,-11.490043488212336,-16.800183108262786,-16.06775005722136
1682104768564636,-12.771801327534831,-17.31898985275052,-13.595788509956492
1682104768580639,-15.060654612039343,-18.600747692073014,-11.673151750972693
1682104768596641,-16.372930495155288,-19.760433356221938,-9.842069123369129
1682104768612644,-17.074845502403377,-19.363698786907776,-8.194094758525921
1682104768628646,-17.044327458609928,-17.013809414816592,-6.088349736781879
1682104768644649,-16.708628976882665,-14.480811779964824,-4.3183031967651
1682104768660652,-14.69443808651863,-12.222476539253762,-3.3112077515830833
1682104768676654,-10.696574349584125,-10.299839780270077,-2.426184481574751
1682104768692657,-9.262226291294724,-11.245899137865194,-1.1749446860455919
1682104768708660,-9.658960860608772,-9.475852597848416,0.5340657663844013
1682104768724662,-8.1025406271458,-7.827878233005208,2.883955138475585
1682104768740665,-11.642633707179357,-4.3183031967651,3.555352101930225
1682104768756683,-10.66605630579079,-3.341725795376533,2.639810788128443
1682104768772686,-12.52765697718769,-2.1210040436408235,1.846341649500232
1682104768788688,-14.419775692378039,-0.16784924086368846,0.7476920729380936
1682104768804691,-15.671015487907312,2.3651483939879654,1.2359807736323773
1682104768820694,-14.358739604791253,5.844205386434737,0.5035477225909517
1682104768836696,-11.123826962691624,8.77393759060044,-0.93080033569845
1682104768852699,-7.156481269550568,11.367971313038765,-1.7853055619134466
1682104768868702,-3.7079423208972457,13.748378728923399,-2.059967956054038
1682104768884704,-0.07629510948345342,14.69443808651863,-1.2970168612191628
1682104768900707,3.3112077515830833,14.66392004272518,-0.22888532845047393
1682104768916710,5.661097123674381,15.060654612039343,1.2359807736323773
1682104768932712,7.034409094376997,14.877546349278987,3.4027618829633184
1682104768948715,7.980468451972229,13.138017853055544,5.630579079880931
1682104768964717,8.133058670939135,10.452429999236983,7.736324101625087
1682104768980720,6.607156481269499,8.010986495765565,10.299839780270077
1682104768996723,4.776073853665935,6.912336919203426,12.832837415121617
1682104769012725,3.4027618829633184,8.010986495765565,15.793087663080769
1682104769028728,-1.6632333867398756,9.842069123369129,20.157167925535873
1682104769044731,-4.745555809872599,13.107499809262208,23.666742961776094
1682104769060733,-5.142290379186647,14.450293736171488,25.040054932478824
1682104769076721,-4.043640802624509,15.487907225146841,25.162127107652395
1682104769092723,-1.7547875181201107,16.58655680170898,25.314717326619302
1682104769108726,0.38147554741738077,18.35660334172576,25.955596246280493
1682104769124729,2.3651483939879654,18.539711604486115,26.749065384908818
1682104769140731,5.0202182040130765,17.89883268482481,26.87113756008239
1682104769156734,8.133058670939135,17.318989852750406,27.57305256733025
1682104769172737,12.436102845807568,16.15930418860148,27.75616083009072
1682104769188739,16.55603875791553,16.525520714122194,28.0308232242312
1682104769204742,17.959868772411596,17.502098115510762,29.587243457694285
1682104769220745,18.05142290379183,18.509193560692665,31.052109559777136
1682104769236747,17.89883268482481,16.189822232394818,32.9442282749676
1682104769252750,17.624170290684333,13.809414816510184,35.04997329671187
1682104769268753,17.471580071717312,13.778896772716848,36.27069504844758
1682104769284755,17.837796597238025,14.145113298237561,37.705043106736866
1682104769300758,19.15007248035397,15.182726787212914,38.62058442053876
1682104769316761,17.92935072861826,15.671015487907198,40.08545052262161
1682104769332763,17.502098115510762,16.647592889295765,41.12306401159685
1682104769348766,18.142977035171953,16.70862897688255,40.69581139848947
1682104769364769,19.760433356221824,16.128786144808032,39.29198138399329
1682104769380771,19.760433356221824,16.250858319981603,37.36934462500972
1682104769396789,19.39421683070111,17.22743572137017,36.118104829480444
1682104769412792,17.471580071717312,17.837796597238025,35.99603265430687
1682104769428794,16.46448462653541,18.753337911039807,36.39276722362115
1682104769444797,16.31189440756839,19.333180743114326,36.60639353017473
1682104769460800,15.121690699626129,18.173495078965402,36.88105592431543
1682104769476802,14.511329823758274,16.03723201342791,36.545357442588056
1682104769492805,12.466620889600904,14.724956130311966,35.75188830395973
1682104769508808,10.025177386129485,13.19905394064233,34.28702220187688
1682104769524810,7.644769970244852,12.283512626840547,33.49355306324878
1682104769540813,9.201190203707938,14.084077210650776,32.120241092546166
1682104769556816,6.21042191195545,12.741283283741495,31.32677195391784
1682104769572818,4.379339284351886,11.703669794766142,30.106050202181905
1682104769588821,5.477988860914024,11.276417181658644,27.51201647974358
1682104769604824,7.034409094376997,11.367971313038765,24.12451361867693
1682104769620826,7.888914320591994,11.703669794766142,20.06561379415575
1682104769636829,9.29274433508806,11.30693522545198,16.250858319981603
1682104769652832,11.276417181658644,10.910200656137931,13.99252307927054
1682104769668834,12.924391546501852,11.184863050278409,12.344548714427333
1682104769684837,13.99252307927054,11.33745326924543,9.9641412985427
1682104769700840,15.579461356526963,9.933623254749364,7.583733882658066
1682104769716827,16.922255283436243,7.522697795071281,5.691615167467717
1682104769732830,17.563134203097547,5.081254291599862,4.3183031967651
1682104769748832,17.593652246890883,4.592965590905578,3.6163881895170107
1682104769764835,16.952773327229693,5.874723430228073,3.677424277103796
1682104769780838,16.43396658274196,7.278553444724139,4.043640802624509
1682104769796840,17.074845502403264,9.475852597848416,4.470893415732007
1682104769812843,18.417639429312544,11.398489356832215,4.776073853665935
1682104769828846,19.974059662775517,11.97833218890662,4.470893415732007
1682104769844848,21.56099794003194,11.642633707179357,3.799496452277367
1682104769860851,22.873273823147883,12.252994583047212,2.883955138475585
1682104769876854,23.84985122453645,13.595788509956492,2.3956664377813013
1682104769892856,23.45311665522229,14.785992217898752,2.7924010070954637
1682104769908859,21.16426337071789,15.854123750667554,3.768978408484031
1682104769924862,19.54680704966802,16.495002670328745,3.677424277103796
1682104769940864,18.081940947585167,16.891737239642907,3.5248340581368893
1682104769956867,15.548943312733627,17.68520637827112,4.501411459525457
1682104769972869,12.893873502708402,19.851987487601946,5.477988860914024
1682104769988872,11.764705882352928,21.25581750209801,5.752651255054502
1682104770004875,10.910200656137931,21.68307011520551,5.722133211261166
1682104770020877,10.696574349584125,21.499961852445153,4.745555809872599
1682104770036895,12.283512626840547,18.417639429312544,3.006027313649156
1682104770052898,14.267185473411132,15.579461356526963,1.052872510872021
1682104770068901,15.121690699626129,14.02304112306399,-2.182040131227609
1682104770084903,14.02304112306399,11.703669794766142,-4.135194934004744
1682104770100906,13.3211261158159,10.360875867856862,-4.16571297779808
1682104770116909,12.191958495460426,8.499275196459848,-3.463797970550104
1682104770132911,11.30693522545198,6.393530174715806,-3.341725795376533
1682104770148914,10.75761043717091,4.287785152971651,-3.1891355764095124
1682104770164917,10.299839780270077,2.6703288319218927,-2.639810788128443
1682104770180919,8.804455634393776,1.3275349050126124,-2.0294499122605885
1682104770196922,8.316166933699492,0.6866559853513081,-1.8768596932936816
1682104770212925,8.590829327840083,-0.3204394598305953,-1.8158236057068962
1682104770228927,8.804455634393776,-2.5787747005416577,-2.4872205691615363
1682104770244930,9.628442816815436,-5.996795605401644,-3.7079423208972457
1682104770260933,10.025177386129485,-8.285648889906156,-4.379339284351886
1682104770276935,8.834973678187225,-8.346684977492941,-5.081254291599862
1682104770292938,4.470893415732007,-8.285648889906156,-3.921568627450938
1682104770308941,0.9918364232852355,-7.339589532310924,-2.4567025253680868
1682104770324943,-1.4190890363927338,-6.546120393682713,-1.846341649500232
1682104770340946,-2.9449912260623705,-6.759746700236519,-1.5411612115663047
1682104770356933,-4.470893415732007,-7.248035400930803,-0.6256198977645226
1682104770372936,-4.928664072632955,-7.827878233005208,1.2054627298390415
1682104770388939,-4.776073853665935,-8.22461280231937,2.853437094682249
1682104770404941,-4.592965590905578,-8.377203021286277,4.623483634699028
1682104770420944,-4.226749065384865,-9.201190203707938,6.576638437476163
1682104770436946,-3.9520866712443876,-10.208285648889841,8.255130846112706
1682104770452949,-4.1046768902112944,-10.63553826199734,10.177767605096506
1682104770468952,-4.257267109178315,-10.971236743724717,12.283512626840547
1682104770484954,-4.715037766079149,-10.66605630579079,13.809414816510184
1682104770500957,-5.264362554360218,-8.865491721980561,14.877546349278987
1682104770516960,-4.715037766079149,-6.027313649195094,15.396353093766606
1682104770532962,-3.250171663996298,-4.501411459525457,16.15930418860148
1682104770548965,-0.8392462043183286,-3.4943160143434397,16.403448538948624
1682104770564968,2.0294499122605885,-2.853437094682249,16.617074845502316
1682104770580970,4.562447547112242,-1.8768596932936816,16.495002670328745
1682104770596973,5.325398641947004,-1.4801251239795192,15.945677882047676
1682104770612976,4.684519722285813,-2.1515220874341594,14.755474174105416
1682104770628978,3.1586175326161765,-3.7384603646905816,13.290608072022565
1682104770644981,0.7171740291447577,-3.8605325398641526,11.276417181658644
1682104770660984,-2.97550926985582,-2.761882963302014,9.56740672922865
1682104770676971,-6.576638437476163,-1.4496070801861833,8.987563897154132
1682104770692974,-9.109636072327703,0.07629510948345342,7.614251926451516
1682104770708976,-9.750514991989007,1.8768596932936816,4.898146028839506
1682104770724979,-9.384298466468294,2.212558175020945,2.853437094682249
1682104770740982,-7.766842145418423,2.0294499122605885,1.7242694743266611
1682104770756984,-5.050736247806526,1.9989318684672526,0.38147554741738077
1682104770772987,-1.2054627298390415,2.7924010070954637,-0.8392462043183286
1682104770788990,3.8300144960708167,2.5177386129548722,-1.6937514305333252
1682104770804992,8.89600976577401,2.7924010070954637,-2.6703288319218927
1682104770820995,13.076981765468759,3.219653620202962,-3.1891355764095124
1682104770836998,15.457389181353392,3.7079423208972457,-2.883955138475585
1682104770853000,17.22743572137017,3.4332799267566543,-1.3885709925993979
1682104770869003,17.89883268482481,2.182040131227609,1.1139085984588064
1682104770885006,17.25795376516362,1.6632333867398756,3.9826047150377235
1682104770901008,15.732051575493983,1.4801251239795192,7.40062561989771
1682104770917011,13.473716334782921,2.059967956054038,10.605020218204004
1682104770933014,10.971236743724717,2.059967956054038,13.99252307927054
1682104770949016,8.407721065079727,3.4943160143434397,17.074845502403264
1682104770965019,6.88181887541009,4.16571297779808,19.363698786907662
1682104770981022,6.424048218509142,3.891050583657602,20.248722056916108
1682104770997039,6.454566262302592,3.9520866712443876,19.485770962081233
1682104771013042,6.332494087129021,5.050736247806526,18.783855954833257
1682104771029045,5.722133211261166,7.064927138170447,18.783855954833257
1682104771045047,4.440375371938671,9.201190203707938,19.333180743114326
1682104771061050,3.2806897077897474,10.940718699931267,19.058518348973735
1682104771077053,2.1515220874341594,11.520561532005786,18.57022964827945
1682104771093055,0.5035477225909517,11.642633707179357,17.593652246890883
1682104771109058,-0.9918364232852355,11.42900740062555,16.250858319981603
1682104771125061,-2.1515220874341594,10.299839780270077,14.480811779964824
1682104771141063,-3.341725795376533,9.201190203707938,12.52765697718769
1682104771157066,-3.9520866712443876,8.255130846112706,10.696574349584125
1682104771173069,-3.7384603646905816,8.194094758525921,8.499275196459848
1682104771189071,-3.0670634012359415,9.140154116121153,5.966277561608308
1682104771205074,-1.1749446860455919,9.44533455405508,3.7079423208972457
1682104771221077,1.2970168612191628,8.712901503013654,1.9989318684672526
1682104771237079,4.898146028839506,8.74341954680699,0.2899214160372594
1682104771253082,8.010986495765565,9.41481651026163,-1.1749446860455919
1682104771269085,9.658960860608772,8.62134737163342,-2.0294499122605885
1682104771285087,11.276417181658644,7.675288014038301,-3.555352101930225
1682104771301090,12.558175020981139,5.966277561608308,-5.172808422980097
1682104771317077,12.52765697718769,4.287785152971651,-5.661097123674381
1682104771333080,10.818646524757696,3.128099488822727,-5.203326466773433
1682104771349083,8.316166933699492,2.7924010070954637,-4.745555809872599
1682104771365085,5.569542992294146,2.3956664377813013,-3.8300144960708167
1682104771381088,2.426184481574751,2.2735942626077303,-2.090485999847374
1682104771397091,-0.6561379415579722,2.3956664377813013,0.38147554741738077
1682104771413093,-1.7547875181201107,2.426184481574751,2.761882963302014
1682104771429096,-1.9073777370870175,2.761882963302014,5.447470817120575
1682104771445099,-1.7547875181201107,3.768978408484031,7.614251926451516
1682104771461101,-1.052872510872021,5.203326466773433,9.29274433508806
1682104771477104,0.6561379415579722,7.675288014038301,10.330357824063412
1682104771493106,2.334630350194516,10.08621347371627,11.764705882352928
1682104771509109,5.081254291599862,12.252994583047212,12.741283283741495
1682104771525112,8.74341954680699,13.046463721675423,12.558175020981139
1682104771541114,11.795223926146264,12.68024719615471,11.032272831311502
1682104771557117,12.344548714427333,11.642633707179357,9.475852597848416
1682104771573120,11.764705882352928,10.513466086823769,7.949950408178779
1682104771589122,10.696574349584125,9.750514991989007,6.515602349889377
1682104771605125,8.987563897154132,9.689478904402222,5.691615167467717
1682104771621128,4.989700160219741,10.208285648889841,6.088349736781879
1682104771637146,1.2054627298390415,10.818646524757696,7.278553444724139
1682104771653148,-0.41199359121083035,11.490043488212336,8.468757152666512
1682104771669151,-0.1373311970702389,11.917296101319835,8.377203021286277
1682104771685154,1.022354467078685,12.375066758220783,8.804455634393776
1682104771701156,2.9449912260623705,12.741283283741495,9.170672159914488
1682104771717159,5.905241474021523,13.443198290989471,8.651865415426869
1682104771733162,8.74341954680699,13.138017853055544,7.888914320591994
1682104771749164,10.482948043030433,12.863355458915066,7.248035400930803
1682104771765167,11.490043488212336,12.985427634088637,7.003891050583661
1682104771781170,12.100404364080191,13.107499809262208,7.0954451819637825
1682104771797172,11.673151750972693,13.3211261158159,6.759746700236519
1682104771813175,9.750514991989007,12.314030670633997,6.363012130922357
1682104771829177,7.370107576104374,10.391393911650198,6.912336919203426
1682104771845180,4.86762798504617,11.184863050278409,7.339589532310924
1682104771861183,2.1515220874341594,12.771801327534831,8.010986495765565
1682104771877185,-0.3204394598305953,13.687342641336613,9.506370641641865
1682104771893188,-2.5787747005416577,14.724956130311966,11.795223926146264
1682104771909191,-3.1586175326161765,15.21324483100625,13.534752422369706
1682104771925193,-2.9449912260623705,15.548943312733627,14.328221560997918
1682104771941196,-1.4496070801861833,14.969100480659108,14.755474174105416
1682104771957183,-0.015259021896667946,14.053559166857326,14.785992217898752
1682104771973186,1.144426642252256,12.893873502708402,15.091172655832679
1682104771989189,1.8768596932936816,12.283512626840547,15.487907225146841
1682104772005191,2.6703288319218927,12.222476539253762,15.36583504997327
1682104772021194,3.677424277103796,11.184863050278409,14.999618524452558
1682104772037197,3.8605325398641526,9.781033035782343,14.66392004272518
1682104772053199,3.219653620202962,8.926527809567347,14.114595254444112
1682104772069202,2.6092927443351073,8.865491721980561,13.412680247196135
1682104772085205,2.4567025253680868,8.529793240253298,12.771801327534831
1682104772101207,2.182040131227609,7.522697795071281,12.191958495460426
1682104772117210,2.1515220874341594,7.125963225757232,11.42900740062555
1682104772133213,2.4872205691615363,7.0954451819637825,10.605020218204004
1682104772149215,2.182040131227609,6.637674525062948,9.658960860608772
1682104772165218,2.334630350194516,5.630579079880931,8.255130846112706
1682104772181221,2.9449912260623705,4.470893415732007,7.125963225757232
1682104772197223,3.6163881895170107,3.1891355764095124,6.0578316929884295
1682104772213226,3.585870145723675,2.059967956054038,5.447470817120575
1682104772229229,3.5248340581368893,1.052872510872021,4.776073853665935
1682104772245231,3.0670634012359415,0.106813153276903,4.043640802624509
1682104772261234,2.3956664377813013,-1.052872510872021,3.8605325398641526
1682104772277252,2.426184481574751,-1.5716792553597543,3.555352101930225
1682104772293254,2.731364919508678,-1.9989318684672526,2.9449912260623705
1682104772309257,2.426184481574751,-2.4872205691615363,2.30411230640118
1682104772325260,2.6703288319218927,-2.6092927443351073,1.6327153429465397
1682104772341262,3.7384603646905816,-2.059967956054038,1.3275349050126124
1682104772357265,4.928664072632955,-1.5411612115663047,1.2054627298390415
1682104772373268,5.722133211261166,-2.3651483939879654,1.6632333867398756
1682104772389270,5.905241474021523,-2.853437094682249,1.6937514305333252
1682104772405273,6.179903868162,-2.426184481574751,0.7476920729380936
1682104772421276,7.064927138170447,-2.30411230640118,0.07629510948345342
1682104772437278,6.668192568856284,-2.2430762188143945,-0.6866559853513081
1682104772453281,5.569542992294146,-1.6327153429465397,-1.2054627298390415
1682104772469284,4.989700160219741,-0.38147554741738077,-1.846341649500232
1682104772485286,4.226749065384865,0.8697642481116645,-1.9073777370870175
1682104772501289,3.8605325398641526,1.6021972991530902,-2.3956664377813013
1682104772517292,3.677424277103796,2.0294499122605885,-3.341725795376533
1682104772533294,3.799496452277367,1.846341649500232,-4.409857328145222
1682104772549297,3.463797970550104,1.4801251239795192,-5.294880598153668
1682104772565300,2.8229190508887996,1.3275349050126124,-5.966277561608308
1682104772581302,2.212558175020945,0.7782101167315432,-6.088349736781879
1682104772597290,1.6021972991530902,-0.19836728465702436,-6.393530174715806
1682104772613292,0.7476920729380936,-0.7171740291447577,-6.820782787823305
1682104772629295,0.5340657663844013,-1.5106431677729688,-6.668192568856284
1682104772645298,-0.19836728465702436,-1.4496070801861833,-5.50850690470736
1682104772661300,7.278553444724139,-0.5035477225909517,-2.182040131227609
1682104772677303,1.1749446860455919,-3.555352101930225,-5.386434729533789
1682104772693306,0.2899214160372594,-3.891050583657602,-6.790264744029855
1682104772709308,-0.1373311970702389,-3.8300144960708167,-7.492179751277945
1682104772725311,-0.6256198977645226,-3.6469062333104603,-7.949950408178779
1682104772741314,-1.266498817425827,-3.555352101930225,-8.1025406271458
1682104772757316,-1.4190890363927338,-4.379339284351886,-8.22461280231937
1682104772773319,-1.0833905546654705,-4.989700160219741,-8.407721065079727
1682104772789322,-0.41199359121083035,-5.203326466773433,-8.77393759060044
1682104772805324,0.44251163500416624,-5.661097123674381,-9.018081940947582
1682104772821327,1.6632333867398756,-6.1493858243686645,-8.804455634393776
1682104772837329,2.30411230640118,-5.966277561608308,-8.529793240253298
1682104772853332,2.7008468757152286,-5.691615167467717,-8.194094758525921
1682104772869335,3.1891355764095124,-5.813687342641288,-7.339589532310924
1682104772885337,3.4943160143434397,-5.661097123674381,-6.21042191195545
1682104772901340,3.2806897077897474,-5.203326466773433,-4.83710994125272
1682104772917358,2.8229190508887996,-4.776073853665935,-3.6163881895170107
1682104772933361,2.4567025253680868,-4.898146028839506,-2.9144731822690346
1682104772949363,2.4567025253680868,-4.440375371938671,-1.7547875181201107
1682104772965366,2.639810788128443,-3.0365453574426056,-0.5340657663844013
1682104772981369,2.0294499122605885,-1.3885709925993979,0.93080033569845
1682104772997371,1.2359807736323773,-0.7476920729380936,1.7547875181201107
1682104773013374,0.9613183794918996,-0.7476920729380936,2.2735942626077303
1682104773029377,0.9918364232852355,-0.6561379415579722,3.0670634012359415
1682104773045379,0.7171740291447577,0.045777065690117524,3.891050583657602
1682104773061382,0.5645838101777372,1.2359807736323773,4.287785152971651
1682104773077385,0.8392462043183286,1.6021972991530902,4.409857328145222
1682104773093387,0.9918364232852355,1.968413824673803,3.2806897077897474
1682104773109390,1.6937514305333252,1.968413824673803,1.968413824673803
1682104773125393,2.761882963302014,2.212558175020945,0.1373311970702389
1682104773141395,3.555352101930225,2.3651483939879654,-1.6937514305333252
1682104773157398,4.013122758831173,2.3651483939879654,-2.7008468757152286
1682104773173401,4.531929503318793,2.090485999847374,-3.799496452277367
1682104773189403,5.325398641947004,0.9918364232852355,-4.959182116426291
1682104773205406,5.966277561608308,-0.07629510948345342,-5.874723430228073
1682104773221408,5.722133211261166,-0.1373311970702389,-5.966277561608308
1682104773237396,5.447470817120575,0.38147554741738077,-5.905241474021523
1682104773253399,5.53902494850081,0.6561379415579722,-5.477988860914024
1682104773269401,5.081254291599862,0.44251163500416624,-4.409857328145222
1682104773285404,5.142290379186647,0.38147554741738077,-3.677424277103796
1682104773301406,5.081254291599862,0.41199359121083035,-2.6703288319218927
1682104773317409,5.661097123674381,0.4730296787976158,-1.8768596932936816
1682104773333412,5.752651255054502,-0.38147554741738077,-0.8087281605248791
1682104773349414,5.1117723353933116,-0.3204394598305953,0.7171740291447577
1682104773365417,3.768978408484031,0.5035477225909517,2.0294499122605885
1682104773381420,2.4567025253680868,0.16784924086368846,3.463797970550104
1682104773397422,1.144426642252256,-0.8392462043183286,4.3183031967651
1682104773413425,0.015259021896667946,-1.846341649500232,4.470893415732007
1682104773429428,-0.5951018539711868,-2.6092927443351073,4.83710994125272
1682104773445430,-1.0833905546654705,-3.0670634012359415,5.1117723353933116
1682104773461433,-1.3885709925993979,-2.8229190508887996,5.203326466773433
1682104773477436,-2.1515220874341594,-2.090485999847374,5.600061036087595
1682104773493438,-2.7008468757152286,-1.4190890363927338,6.0578316929884295
1682104773509441,-3.0365453574426056,-1.5411612115663047,6.668192568856284
1682104773525444,-3.6469062333104603,-1.6632333867398756,7.034409094376997
1682104773541446,-3.097581445029391,-2.3651483939879654,6.820782787823305
1682104773557464,-2.2430762188143945,-3.7079423208972457,7.431143663691159
1682104773573467,-2.182040131227609,-4.715037766079149,8.651865415426869
1682104773589470,-3.128099488822727,-5.386434729533789,9.140154116121153
1682104773605472,-3.2806897077897474,-6.027313649195094,9.140154116121153
1682104773621475,-3.2806897077897474,-6.363012130922357,9.201190203707938
1682104773637477,-3.5248340581368893,-6.301976043335571,8.926527809567347
1682104773653480,-4.440375371938671,-6.088349736781879,8.499275196459848
1682104773669483,-5.447470817120575,-5.996795605401644,8.22461280231937
1682104773685485,-5.996795605401644,-6.301976043335571,8.194094758525921
1682104773701488,-5.996795605401644,-6.454566262302592,7.858396276798658
1682104773717491,-6.1493858243686645,-5.752651255054502,7.248035400930803
1682104773733493,-6.21042191195545,-4.806591897459384,6.790264744029855
1682104773749496,-5.813687342641288,-4.3183031967651,6.027313649195094
1682104773765499,-4.287785152971651,-4.776073853665935,4.776073853665935
1682104773781501,-3.4332799267566543,-4.1962310215915295,3.4943160143434397
1682104773797504,-2.5787747005416577,-2.334630350194516,2.639810788128443
1682104773813507,-0.9613183794918996,-0.5035477225909517,1.9989318684672526
1682104773829509,0.9918364232852355,-0.8087281605248791,2.1210040436408235
1682104773845512,2.97550926985582,-2.3651483939879654,1.8158236057068962
1682104773861515,4.135194934004744,-2.7008468757152286,1.4190890363927338
1682104773877502,4.898146028839506,-1.2970168612191628,1.5106431677729688
1682104773893505,5.1117723353933116,-0.16784924086368846,1.5106431677729688
1682104773909507,4.959182116426291,-0.8392462043183286,1.5106431677729688
1682104773925510,4.16571297779808,-1.6021972991530902,1.4496070801861833
