Timestamp (microseconds),Accel X (g),Accel Y (g),Accel Z (g)
1679688383841034,-0.4549019607843139,0.566109712367437,0.7182116426337073
1679688383857030,-0.4522163729304953,0.5640344853894863,0.7020981155107959
1679688383873026,-0.45966277561608315,0.5691615167467763,0.6957503624017702
1679688383889021,-0.47223620965896096,0.5828336003662162,0.7036850537880524
1679688383905017,-0.48615243762874805,0.6072480354009304,0.7130846112764173
1679688383921013,-0.49445334554055087,0.6300755321583891,0.7204089417868316
1679688383937009,-0.49872587167162585,0.6422827496757462,0.7221179522392616
1679688383953005,-0.4977492942702373,0.6341039139391169,0.7227283131151294
1679688383969001,-0.4871290150301366,0.6214084077210646,0.7102769512474252
1679688383984997,-0.47101548790722525,0.596261539635309,0.6889143205920503
1679688384000993,-0.4545357442587932,0.5728236820019834,0.6679179064621961
1679688384016989,-0.4459906919966432,0.5613488975356677,0.6577859159227897
1679688384032985,-0.44623483634699035,0.5630579079880977,0.6671854734111546
1679688384048981,-0.45380331120775175,0.582345311665522,0.6865949492637524
1679688384064977,-0.465400167849241,0.5923552300297548,0.714305333028153
1679688384080973,-0.4624704356450753,0.5873502708476384,0.7290760662241551
1679688384096969,-0.45331502250705746,0.5813687342641334,0.7255359731441215
1679688384112965,-0.44037537193865894,0.5734340428778513,0.7169909208819716
1679688384128961,-0.43305104142824424,0.5501182574196992,0.7163805600061037
1679688384144957,-0.4247501335164414,0.5130083161669337,0.7218738078889144
1679688384160919,-0.4192568856336307,0.49250019073777374,0.7282215609979401
1679688384176915,-0.42059967956054,0.48102540627145807,0.7388418402380408
1679688384192911,-0.42133211261158143,0.4769970244907302,0.7490959029526207
1679688384208907,-0.42084382391088715,0.49665064469367515,0.7505607690547036
1679688384224903,-0.4190127412832836,0.5062943465323873,0.7622796978713664
1679688384240899,-0.42890058747234283,0.5169146257724879,0.7764400701915006
1679688384256895,-0.45416952773327246,0.5311970702677957,0.8067139696345462
1679688384272891,-0.47650873579003594,0.5336385137712671,0.829541466392004
1679688384288887,-0.47614251926451523,0.5174029144731822,0.8255130846112761
1679688384304883,-0.4650339513237203,0.4977492942702373,0.8185549706263826
1679688384320879,-0.44660105287251106,0.47809567406729236,0.8135500114442662
1679688384336875,-0.4260929274433507,0.46478980697337313,0.8203860532539862
1679688384352871,-0.41193255512321647,0.4874952315556573,0.8379644464789804
1679688384368867,-0.4118104829480429,0.5349813076981764,0.8784924086366068
1679688384384863,-0.40021362630655366,0.5612268253604942,0.9027847714961474
1679688384400859,-0.3794613565270466,0.5227740901808193,0.9179217212176702
1679688384416854,-0.35150682841229886,0.4325627527275504,0.9290302891584652
1679688384432850,-0.35577935454337384,0.3323414969100478,0.9661402304112308
1679688384448846,-0.35480277714198527,0.34039826047150346,0.9496604867627987
1679688384464842,-0.314763103685054,0.36481269550621764,0.8686045624475467
1679688384480804,-0.2775310902571144,0.33368429083695705,0.8476081483176925
1679688384496800,-0.25604638742656594,0.3427176317998013,0.8654306858930338
1679688384512795,-0.238956282902266,0.3616388189517048,0.9038834210727096
1679688384528791,-0.23334096284428174,0.3452811474784463,0.9314717326619366
1679688384544786,-0.2263828488593882,0.29132524605172794,0.9359884031433587
1679688384560782,-0.21185626001373326,0.23456168459601745,0.917433432516976
1679688384576777,-0.19586480506599546,0.19842832074464045,0.8961928740367746
1679688384592773,-0.17730983443961224,0.14728007934691423,0.8738536659800102
1679688384608768,-0.1430075532158388,0.08368047608148288,0.8683604180971995
1679688384624764,-0.09564354924849328,0.053772793163958,0.8644541084916453
1679688384640759,-0.05011062790875087,0.08905165178912,0.8794689860379954
1679688384656755,-0.02423132677195383,0.15045395590142707,0.9218280308232245
1679688384672750,-0.025574120698863112,0.21832608529793252,0.9784695201037614
1679688384688746,-0.06280613412680269,0.26312657358663305,1.0211947814145113
1679688384704741,-0.13189898527504385,0.2695963988708323,1.0402380407415883
1679688384720737,-0.20001525902189687,0.23907835507743957,1.0336461432822155
1679688384736732,-0.25690089265278093,0.2095368886854354,1.0203402761882963
1679688384752728,-0.28619821469443796,0.19134813458457334,1.0082551308461127
1679688384768723,-0.2857099259937437,0.19049362935835834,0.9911650263218128
1679688384784719,-0.25348287174792095,0.19879453727016116,0.97944609750515
1679688384800445,-0.204531929503319,0.21515220874341967,0.9748073548485543
1679688384816440,-0.16083009079118016,0.2272373540856032,0.9750514991989014
1679688384832434,-0.12811474784466315,0.24383916990920884,0.9789578088044557
1679688384848429,-0.0875867856870376,0.27826352330815585,0.9824979018844893
1679688384864423,-0.0424200808728159,0.31769283588921926,0.9804226749065386
1679688384880418,0.015197985809109582,0.3423514152742806,0.9899443045700771
1679688384896412,0.07281605249103507,0.36017395284962195,0.973464560921645
1679688384912407,0.09857328145265853,0.40509651331349694,0.9430685893034259
1679688384928402,0.058289463645380124,0.49872587167162585,0.8937514305333032
1679688384944396,-0.08990615701533544,0.44403753719386607,0.8629892423895624
1679688384960391,-0.2872968642710001,0.22479591058213177,0.8415045395590139
1679688384976385,-0.4352483405813685,-0.005432211795223907,0.8434576943617911
1679688384992380,-0.5264362554360265,-0.14813458457312878,0.8539559014267182
1679688385008374,-0.5401083390554664,-0.23370717936980245,0.8909437705043111
1679688385024369,-0.5165484092469672,-0.28925001907377723,0.9539330128938737
1679688385040363,-0.491279468986038,-0.12433051041428245,0.9057145037003131
1679688385056358,-0.5305867093919279,0.1184710460059506,0.7920653086137177
1679688385072353,-0.5216754406042572,0.06305027847714939,0.8448004882887004
1679688385088347,-0.6425268940260929,0.14203097581445068,0.8004882887006941
1679688385104342,-0.6664530403601128,0.10601968413824636,0.7782711528191042
1679688385120056,-0.6929427023727781,0.16644541084916487,0.8732433051041424
1679688385136049,-0.6304417486839093,0.2630045014114595,0.9750514991989014
1679688385152042,-0.5711146715495539,0.38153658350499775,1.0359655146105133
1679688385168035,-0.5128862439917601,0.42487220569161543,1.0186312657358663
1679688385184028,-0.48688487067978947,0.38068207827878275,0.9599145494773786
1679688385200021,-0.4824902723735409,0.2910811017013808,0.9101091020065617
1679688385216014,-0.47614251926451523,0.25177386129549095,0.8740978103303574
1679688385232008,-0.4623483634699017,0.2804608224612801,0.8745860990310517
1679688385248001,-0.4456244754711225,0.34467078660257844,0.9143816281376367
1679688385263994,-0.4476997024490732,0.4509956511787596,1.0225375753414205
1679688385279987,-0.4293888761730371,0.4704051270313574,1.0401159685664148
1679688385295980,-0.41193255512321647,0.3787289234760056,0.9900663767452507
1679688385311973,-0.383611810482948,0.2868085755703058,0.930495155260548
1679688385327966,-0.33685816739147034,0.2310215915159839,0.883863584344244
1679688385343959,-0.26727702754253446,0.1680323491264213,0.8394293125810632
1679688385359953,-0.2196688792248418,0.10296787975890709,0.8249027237354083
1679688385375946,-0.21722743572137038,0.04339665827420447,0.8404058899824518
1679688385391939,-0.20502021820401328,0.030945296406500233,0.8593270771343553
1679688385407932,-0.1890287632562755,0.06280613412680225,0.8798352025635161
1679688385423925,-0.2024567025253683,0.08575570305943359,0.9082780193789581
1679688385439666,-0.2632486457618066,0.0659800106813151,0.9409933623254751
1679688385455659,-0.3550469214923324,0.01483176928358887,0.9638208590829329
1679688385471651,-0.4514839398794539,-0.031189440756847375,0.9715114061188679
1679688385487643,-0.5192339971007858,-0.05926604104676869,0.9730983443961243
1679688385503635,-0.5369344625009536,-0.053406576638437286,0.9372091248950944
1679688385519627,-0.5171587701228351,0.006652933546959616,0.9158464942397195
1679688385535619,-0.44000915541313823,0.0663462272068358,0.9235370412756545
1679688385551612,-0.34943160143434815,0.14044403753719426,0.9523460746166172
1679688385567604,-0.2781414511329823,0.21393148699168396,0.9917753871976807
1679688385583596,-0.18756389715419264,0.3515068284122984,0.8599374380102232
1679688385599588,-0.13958953231097881,0.3402761882963299,0.8395513847562368
1679688385615580,-0.11956969558251318,0.19342336156252404,0.9351338979171437
1679688385631572,-0.17352559700923154,0.1981841763942933,1.0187533379110398
1679688385647565,-0.25983062485694663,0.2947432669565879,1.057694361791409
1679688385663557,-0.35028610666056315,0.4492866407263296,1.075028610666056
1679688385679549,-0.4459906919966432,0.5955291065842676,1.1070115205615316
1679688385695541,-0.4881055924315252,0.5774624246585791,1.1763485160601208
1679688385711533,-0.4674753948271917,0.4351262684061954,1.2404364080262456
1679688385727525,-0.4097352559700922,0.29791714351110077,1.2718089570458533
1679688385743518,-0.3335622186617839,0.21185626001373326,1.257648584725719
1679688385759277,-0.25348287174792095,0.17438010223544698,1.2359197375448234
1679688385775268,-0.18524452582589435,0.1890287632562755,1.1957579919127186
1679688385791259,-0.14483863584344236,0.22442969405661106,1.1491264209964145
1679688385807251,-0.10418860151064324,0.2334630350194553,1.0893110551613638
1679688385823242,-0.06915388723582838,0.22870222018768604,1.0515907530327304
1679688385839233,-0.027649347676813818,0.21319905394064254,1.0131380178530556
1679688385855224,0.010070954451819603,0.22101167315175108,1.0006866559853513
1679688385871215,0.05267414358739586,0.24408331425955598,0.9929961089494164
1679688385887207,0.10455481803616351,0.2586099031052109,0.9463645380331123
1679688385903198,0.1642481116960406,0.24872205691615168,0.8385748073548482
1679688385919189,0.2284580758373389,0.26446936751354233,0.6990463111314567
1679688385935180,0.2692301823453116,0.34259555962462773,0.5612268253604942
1679688385951172,0.29706263828488577,0.47980468451972236,0.5009231708247501
1679688385967163,0.3024338139925229,0.6101777676050961,0.4973830777447166
1679688385983154,0.3128099488822764,0.6792706187533382,0.5020218204013123
1679688385999145,0.3457694361791406,0.6762188143739989,0.5238727397573815
1679688386015136,0.388860914015412,0.6294651712825212,0.5598840314335849
1679688386031128,0.42865644312199613,0.5204547188525215,0.6035858701457233
1679688386047119,0.47516594186312666,0.45807583733882673,0.6558327611200125
1679688386063110,0.5110551613641565,0.4408636606393532,0.6879377431906617
1679688386078888,0.5380331120775157,0.4566109712367439,0.678171969176776
1679688386094878,0.5501182574196992,0.493842984664683,0.648874647135119
1679688386110869,0.5465781643396657,0.5069047074082551,0.6358129243915469
1679688386126860,0.5371786068513007,0.49335469596398873,0.651438162813764
1679688386142851,0.5311970702677957,0.45136186770428033,0.6859845883878846
1679688386158841,0.5390096894789043,0.3930113679713134,0.716868848706798
1679688386174832,0.5464560921644921,0.30926985580224287,0.7368886854352636
1679688386190823,0.5531700617990385,0.22015716792553608,0.76240177004654
1679688386206813,0.5606164644846263,0.14581521324483138,0.7924315251392384
1679688386222804,0.5563439383535513,0.0869764248111693,0.8115968566414891
1679688386238795,0.5442587930113678,0.056946669718470844,0.8054932478828105
1679688386254786,0.529121843289845,0.053040360112916574,0.7946288242923627
1679688386270776,0.5026321812771801,0.0861219195849543,0.7881589990081634
1679688386286767,0.46601052872510884,0.1372701609826814,0.7802243076218813
1679688386302758,0.4291447318226904,0.18548867017624193,0.783154039826047
1679688386318749,0.3955748836499584,0.2138094148165104,0.8007324330510412
1679688386334739,0.35846494239719195,0.21075761043717112,0.8428473334859232
1679688386350730,0.3410086213473713,0.15252918287937778,0.9086442359044788
1679688386366721,0.34845502403295914,0.062317845426107965,0.9669947356374458
1679688386382712,0.36273746852826694,-0.01751735713740743,1.0075226977950713
1679688386398498,0.36810864423590406,-0.0745250629434655,1.0324254215304798
1679688386414488,0.3721370260166319,-0.11163500419623107,1.0437781338216219
1679688386430478,0.35504692149233197,-0.11602960250247962,1.0299839780270084
1679688386446468,0.34637979705500843,-0.11871519035629818,1.0060578316929885
1679688386462457,0.35089646753643056,-0.1135881589990082,0.9868925001907378
1679688386478447,0.3657892729076062,-0.10296787975890753,0.9442893110551616
1679688386494437,0.3747005416952769,-0.09369039444571614,0.8585946440833139
1679688386510427,0.3696955825131605,-0.09869535362783255,0.8067139696345462
1679688386526416,0.3793392843518735,-0.051819638361180864,0.8374761577782861
1679688386542406,0.3632257572289612,-0.015320057984283153,0.8920424200808732
1679688386558396,0.34296177615014845,0.029480430304417382,0.9524681467917908
1679688386574386,0.31940184634164925,0.09674219882505497,0.9997100785839628
1679688386590376,0.3015793087663079,0.17084000915541342,1.0168001831082627
1679688386606365,0.2641031509880216,0.23212024109254603,1.0434119172961012
1679688386622355,0.2258945601586939,0.24896620126649882,1.0755168993667503
1679688386638345,0.19537651636530118,0.21063553826199755,1.109452964065003
1679688386654335,0.17987335011825767,0.10614175631341993,1.1291065842679489
1679688386670324,0.17560082398718269,-0.028381780727855244,1.1261768520637832
1679688386686314,0.16119630731670131,-0.11920347905699247,1.0822308690012967
1679688386702304,0.17755397878995982,-0.1433737697413595,0.9876249332417792
1679688386718109,0.21319905394064254,-0.10992599374380108,0.8671396963454638
1679688386734098,0.23236438544289317,-0.04437323567559304,0.8102540627145798
1679688386750086,0.2179598687724118,0.018005645838101714,0.8273441672388797
1679688386766075,0.18121614404516695,0.05169756618600729,0.908033875028611
1679688386782064,0.14422827496757495,0.060975051499198685,1.0222934309910734
1679688386798053,0.12823682001983716,0.06683451590753009,1.1212939650568394
1679688386814042,0.17950713359273696,0.09332417792019498,1.145586327916381
1679688386830031,0.27154955367360945,0.17084000915541342,1.0718547341115432
1679688386846019,0.4043640802624555,0.24042114900434886,0.9326924544136723
1679688386862008,0.5360799572747386,0.31891355764095497,0.7536125734340429
1679688386877997,0.6404516670481426,0.38104829480430347,0.5735561150530248
1679688386893986,0.6444800488288704,0.40802624551766264,0.4767528801403831
1679688386909975,0.5156939040207522,0.3623712520027462,0.54023041123064
1679688386925964,0.35297169451438126,0.25299458304722666,0.6814679179064624
1679688386941952,0.1785305561913484,0.17535667963683554,0.8285648889906154
1679688386957941,0.025696192874036683,0.15399404898146063,0.9357442587930116
1679688386973930,-0.13348592355230027,0.2091706721599147,1.0236362249179827
1679688386989919,-0.28253604943923083,0.2907148851758601,1.0843060959792474
1679688387005908,-0.46210421911955457,0.3385671778438999,1.254840924696727
1679688387021896,-0.5838101777676052,0.2377355611505303,1.363485160601205
1679688387037719,-0.635080491340505,0.4199893186846726,1.3072098878461889
1679688387053708,-0.6204318303196765,0.47736324101625094,1.2165102616922256
1679688387069696,-0.5622034027618827,0.4246280613412683,1.1044480048828866
1679688387085684,-0.46808575570305955,0.3566338597695884,0.9754177157244222
1679688387101673,-0.36798657206073093,0.31635004196231,0.8572518501564046
1679688387117661,-0.2680094605935759,0.32196536202029424,0.7457999542229343
1679688387133649,-0.16876478217746227,0.3428397039749749,0.648020141908904
1679688387149638,-0.09149309529259186,0.33661402304112276,0.6294651712825212
1679688387165626,-0.04315251392385733,0.4413519493400475,0.6353246356908526
1679688387181615,-0.023132677195391693,0.5628137636377506,0.687571526665141
1679688387197603,-0.013488975356679589,0.6728007934691389,0.7583733882658121
1679688387213591,0.007507438773174613,0.6801251239795532,0.8313725490196076
1679688387229580,-0.006775005722133187,0.680735484855421,0.9175555046921495
1679688387245568,-0.10370031280994896,0.6397192339971012,0.98970016021973
1679688387261556,-0.28253604943923083,0.4434271763179982,1.113725490196078
1679688387277545,-0.4757763027389945,0.20343327992675686,1.342732890821698
1679688387293533,-0.6004119935912109,0.041687647821774476,1.5077744716563668
1679688387309521,-0.6347142748149843,-0.06353856717784412,1.554650186923018
1679688387325510,-0.6255588616769665,-0.08038452735179691,1.4851911192492562
1679688387341498,-0.5917448691538874,0.045349813076981604,1.2336003662165256
1679688387357360,-0.46723125047684455,0.20343327992675686,0.8852063782711532
1679688387373348,-0.38263523308155944,0.3268482490272371,0.6207980468451968
1679688387389336,-0.23126573586633103,0.27325856412603944,0.2594644083314259
1679688387405324,-0.1957427328908219,0.1742580300602734,-0.004455634393835339
1679688387421312,-0.18536659800106792,0.03448538948653379,-0.3291676203555354
1679688387437300,-0.4817578393224995,-0.032410162508583085,-0.36163881895170524
1679688387453288,-0.8285648889906159,0.08831921873807858,-0.3040207522697793
1679688387469276,-1.3571374074921798,0.2583657587548638,-0.1576562142366673
1679688387485263,-1.5834592202639812,0.18451209277485336,0.05389486533913157
1679688387501251,-1.508873121232929,-0.04461738002594018,0.25677882047760736
1679688387517239,-1.2359197375448234,-0.2533607995727474,0.36639963378347407
1679688387533227,-1.0506141756313419,-0.22064545662623036,0.4246280613412683
1679688387549215,-1.0656290531776915,0.12201113908598415,0.6170138094148161
1679688387565203,-1.261676966506447,0.5788052185854884,1.0004425116350042
1679688387581191,-1.476401922636759,0.9816433966582743,1.469321736476692
1679688387597179,-1.4153658350499732,1.0862592507820246,1.7214007782101168
1679688387613166,-1.1762264438849468,0.9585717555504694,1.64425116350042
1679688387629154,-0.966628519111925,0.7864499885557334,1.3266193636987866
1679688387645142,-0.8140383001449609,0.6135957885099561,0.9357442587930116
1679688387661130,-0.7089341573205159,0.4874952315556573,0.5935759517814905
1679688387676971,-0.619455252918288,0.3733577477683676,0.35089646753643056
1679688387692958,-0.5562218661783778,0.2506752117189288,0.21612878614480824
1679688387708945,-0.5390096894789043,0.18756389715419264,0.15606927595941134
1679688387724932,-0.6060273136491952,0.14471656366826924,0.1814602883955141
1679688387740919,-0.7072251468680859,0.10675211718928779,0.24213015945677885
1679688387756906,-0.7863279163805599,0.06842145418478651,0.2848554207675287
1679688387772893,-0.8596932936598765,0.041687647821774476,0.31476310368505356
1679688387788879,-0.9099870298313877,0.013855191882200302,0.3380788891432056
1679688387804866,-0.9451438162813766,0.015564202334630295,0.32941176470588207
1679688387820853,-0.9656519417105365,0.0038452735179674846,0.3390554665445942
1679688387836840,-0.9940947585259785,-0.0014038300144960658,0.393987945372702
1679688387852827,-0.9936064698252842,0.06500343327992653,0.4389105058365761
1679688387868814,-0.964919508659495,0.13849088273441712,0.49994659342336156
1679688387884801,-0.9198748760204469,0.26056305790798806,0.5250934615091172
1679688387900788,-0.9013199053940641,0.4644235904478524,0.5286335545891507
1679688387916775,-0.9018081940947584,0.6970931563286795,0.5250934615091172
1679688387932762,-0.8860608834973678,0.8074464026855876,0.5405966277561607
1679688387948749,-0.8550545510032808,0.7350576028076601,0.5673304341191727
1679688387964736,-0.8686045624475471,0.4144960708018619,0.6092011902037076
1679688387980723,-0.904493781948577,0.09308003356984784,0.5517051956969556
1679688387996582,-0.9221942473487448,0.10308995193408066,0.4186465247577633
1679688388012568,-0.9076676585030898,0.27484550240329586,0.30182345311665504
1679688388028555,-0.8979018844892042,0.4187685969329369,0.26556801709010447
1679688388044541,-0.8740978103303578,0.41144426642252263,0.26434729533836876
1679688388060527,-0.8561532005798429,0.3556572823681998,0.27533379110399014
1679688388076514,-0.8368657969024187,0.3292896925307085,0.2764324406805523
1679688388092500,-0.85468833447776,0.3367360952162963,0.30304417486839075
1679688388108487,-0.9088883802548255,0.3729915312428469,0.35004196231021556
1679688388124473,-0.9212176699473562,0.39447623407339627,0.37360189211871475
1679688388140460,-0.9021744106202791,0.40338750286106695,0.37811856260013776
1679688388156446,-0.8848401617456321,0.3792172121766999,0.3728694590676733
1679688388172433,-0.860669871061265,0.3375906004425113,0.3583428702220184
1679688388188419,-0.8269779507133594,0.2905928130006865,0.34039826047150346
1679688388204405,-0.817700465400168,0.26691081101701375,0.3201342793926907
1679688388220392,-0.821972991531243,0.24579232471198598,0.3279468986037992
1679688388236378,-0.824536507209888,0.21515220874341967,0.33112077515831206
1679688388252365,-0.8238040741588466,0.1633936064698256,0.33026626993209707
1679688388268351,-0.8334477759975587,0.15643549248493205,0.31134508278019357
1679688388284338,-0.8622568093385214,0.17926298924238981,0.3031662470435643
1679688388300324,-0.8813000686655985,0.15643549248493205,0.28363469901579297
1679688388316162,-0.8616464484626536,0.09332417792019498,0.24054322117952243
1679688388332148,-0.8246585793850616,-0.008239871824216038,0.18500038147554765
1679688388348134,-0.8072022583352405,6.713969634546402E-4,0.06170748455024011
1679688388364120,-0.8892347600518806,0.27570000762951086,-0.046814679179064456
1679688388380106,-0.901075761043717,0.392278934920272,-0.12396429388876173
1679688388396092,-1.1239795529106584,0.5405966277561607,-0.028259708552681673
1679688388412078,-1.2083314259555964,0.41254291599908477,0.19342336156252404
1679688388428063,-1.2314030670634013,0.3623712520027462,0.4022888532845048
1679688388444049,-1.1942931258106357,0.3495536736095213,0.5037308308537423
1679688388460035,-1.1327687495231555,0.3700617990386812,0.46466773479819956
1679688388476021,-1.1137254901960785,0.4372014953841461,0.383733882658122
1679688388492007,-1.1073777370870528,0.4702830548561838,0.3356374456397342
1679688388507993,-1.0889448386358436,0.3988708323796448,0.3002365148393986
1679688388523979,-1.0445105668726633,0.26349279011215376,0.24725719081406883
1679688388539965,-0.98286411841001,0.11517509727626418,0.1780422674906541
1679688388555951,-0.939040207522698,0.04583810177767589,0.11712825207904132
1679688388571937,-0.8869153887235828,0.01617456321049815,0.07293812466620864
1679688388587923,-0.8422369726100558,0.0040894178683146265,0.08050659952697004
1679688388603909,-0.8428473334859237,0.0252079041733424,0.130556191348135
1679688388619895,-0.8994888227664606,0.09234760051880642,0.20929274433508827
1679688388635803,-0.9707789730678265,0.1587548638132299,0.2850995651178758
1679688388651788,-1.0092317082475013,0.1965972381170369,0.32562752727550137
1679688388667774,-1.0374303807125962,0.21478599221789896,0.3346608682383456
1679688388683759,-1.0522011139085983,0.20550850690470757,0.3262378881513692
1679688388699745,-1.0165560387579156,0.10199130235751852,0.31488517586022713
1679688388715730,-0.9810330357824064,-0.02642862592507811,0.312077515831235
1679688388731716,-0.9521019302662701,-0.12262149996185245,0.2885175860227358
1679688388747701,-0.9323262378881512,-0.15033188372625306,0.24640268558785383
1679688388763687,-0.9280537117570762,-0.14056610971236738,0.21698329137102323
1679688388779672,-0.9287861448081176,-0.10748455024032966,0.19647516594186332
1679688388795658,-0.9414816510261694,-0.05914396887159512,0.19464408331425975
1679688388811643,-0.9558861676966508,-0.027038986800945963,0.2238193331807432
1679688388827629,-0.9668726634622722,-0.005920500495918191,0.24884412909132525
1679688388843614,-0.9799343862058443,0.02130159456778813,0.2638590066376745
1679688388859600,-0.983718623636225,0.05401693751430514,0.27106126497291516
1679688388875585,-0.987136644541085,0.08429083695735073,0.2780193789578087
1679688388891571,-0.9679713130388343,0.06536964980544724,0.2938887617303729
1679688388907556,-0.9486839093614101,0.03033493553063238,0.3029221026932172
1679688388923542,-0.9519798580910965,0.017883573662928143,0.30060273136491933
1679688388939527,-0.9511253528648815,0.048157473105973736,0.2573891813534752
1679688388955383,-0.9428244449530787,0.09503318837262498,0.21429770351720467
1679688388971368,-0.950148775463493,0.09759670405126997,0.23492790112153816
1679688388987353,-0.9422140840772109,0.0394903486686502,0.2661783779659723
1679688389003338,-0.9435568780041201,-0.017151140611886717,0.30511940184634145
1679688389019323,-0.9641870756084536,-0.04254215304798947,0.31818112458991354
1679688389035308,-0.9636987869077593,-0.02789349202716096,0.2982833600366215
1679688389051293,-0.9383077744716566,-0.020813305867093845,0.2728923476005187
1679688389067278,-0.9345235370412754,-0.019104295414663852,0.27228198672465087
1679688389083263,-0.9348897535667962,-0.04437323567559304,0.26849774929427017
1679688389099248,-0.945021744106203,-0.06500343327992697,0.26153963530937663
1679688389115233,-0.9745632104982072,-0.06292820630197626,0.281925688563363
1679688389131218,-1.0093537804226749,-0.08038452735179691,0.31732661936369855
1679688389147203,-1.0290074006256198,-0.10455481803616395,0.3184252689402607
1679688389163188,-1.025223163195239,-0.12726024261844815,0.2881513694972151
1679688389179173,-1.0100862134737163,-0.13299763485160598,0.2427405203326467
1679688389195158,-0.9867704280155642,-0.10345616845960182,0.19244678416113548
1679688389211143,-0.9578393224994279,-0.0879530022125583,0.15423819333180777
1679688389227128,-0.9483176928358894,-0.10064850843060968,0.14666971847104637
1679688389243113,-0.9630884260318915,-0.10345616845960182,0.15423819333180777
1679688389259098,-0.9804226749065386,-0.08197146562905333,0.16705577172503272
1679688389274994,-0.9916533150225071,-0.05535973144121442,0.18243686579690266
1679688389290979,-1.0063019760433356,-0.0319218738078888,0.202822919050889
1679688389306964,-1.0297398336766612,-0.015564202334630295,0.23761348897535672
1679688389322949,-1.0476844434271761,0.00579842832074462,0.2680094605935759
1679688389338934,-1.0492713817044326,0.03314259555962451,0.28070496681162727
1679688389354919,-1.038040741588464,0.04315251392385733,0.28534370946822296
1679688389370904,-1.025833524071107,0.04339665827420447,0.28668650339513224
1679688389386889,-0.9934843976501107,0.04596017395284946,0.2797283894102387
1679688389402874,-0.9513694972152287,0.029846646829938095,0.273380636301213
1679688389418859,-0.9085221637293048,0.012634470130464592,0.2642252231631952
1679688389434844,-0.8625009536888686,-0.020569161516746703,0.26178377965972377
1679688389450829,-0.8473640039673458,-0.03045700770580595,0.2714274814984359
1679688389466814,-0.8622568093385214,-0.01886015106431671,0.28290226596475154
1679688389482799,-0.8817883573662928,0.001037613488975353,0.28998245212481866
1679688389498784,-0.8963149462119477,0.016906996261539575,0.3040207522697793
1679688389514769,-0.9298847943846797,0.036194399938963784,0.31293202105745
1679688389530754,-0.9855497062638285,0.07598992904554791,0.31488517586022713
1679688389546739,-1.0379186694132905,0.10516517891203137,0.31268787670710285
1679688389562724,-1.076005188067445,0.09442282749675712,0.3096360723277636
1679688389578709,-1.0938277256427864,0.06744487678339794,0.29791714351110077
1679688389594604,-1.0917524986648357,0.05389486533913157,0.27411306935225443
1679688389610589,-1.0503700312809947,0.004455634393835339,0.23712520027466244
1679688389626573,-0.9853055619134814,-0.06878767071030767,0.21051346608682397
1679688389642558,-0.9152361333638512,-0.12982375829709314,0.18500038147554765
1679688389658542,-0.8799572747386892,-0.14569314106965736,0.16449225604638773
1679688389674527,-0.8688487067978943,-0.11468680857557034,0.14422827496757495
1679688389690511,-0.8860608834973678,-0.05889982452124798,0.1381246662088964
1679688389706496,-0.9230487525749598,-0.011779964904249596,0.1625391012436106
1679688389722480,-0.96577401388571,0.028503852903028815,0.20025940337224402
1679688389738465,-1.0050812542916,0.06536964980544724,0.23663691157396816
1679688389754449,-1.0412146181429769,0.10296787975890709,0.2666666666666666
1679688389770434,-1.057084000915541,0.13507286182955713,0.28448920424200796
1679688389786419,-1.062943465323873,0.14642557412069923,0.3070725566491186
1679688389802403,-1.0565957122148468,0.15143053330281564,0.3268482490272371
1679688389818388,-1.0302281223773555,0.13592736705577213,0.34747844663157057
1679688389834372,-0.9984893568322271,0.1222552834363313,0.36603341725795335
1679688389850357,-0.9671168078126193,0.08221560997940003,0.37689784084840205
1679688389866341,-0.9521019302662701,0.06866559853513365,0.3666437781338212
1679688389882326,-0.9542992294193944,0.07513542381933291,0.34125276569771845
1679688389898310,-0.9511253528648815,0.088197146562905,0.3117112993057143
1679688389914215,-0.9473411154345008,0.08490119783321859,0.3002365148393986
1679688389930199,-0.9326924544136719,0.06158541237506654,0.29633020523384435
1679688389946183,-0.9193865873197526,0.024475471122300974,0.2860761425192644
1679688389962167,-0.9131609063859005,-0.0015259021896696368,0.27692072938124657
1679688389978151,-0.9248798352025633,0.0042114900434881974,0.27740901808194085
1679688389994135,-0.9253681239032576,0.005676356145571049,0.2649576562142366
1679688390010119,-0.9239032578011748,-0.002990768291752488,0.26727702754253446
1679688390026103,-0.9262226291294726,-0.009460593575951748,0.2755779354543373
1679688390042087,-0.9405050736247809,-0.0039673456931410556,0.29877164873731576
1679688390058071,-0.9588158999008165,0.003356984817273201,0.3222095063706414
1679688390074055,-0.9855497062638285,0.036194399938963784,0.3259937438010221
1679688390090039,-0.9967803463797971,0.07489127946898577,0.3222095063706414
1679688390106023,-0.9824979018844893,0.08624399176012787,0.3263599603265428
1679688390122007,-0.9671168078126193,0.08807507438773143,0.3318532082093535
1679688390137992,-0.9542992294193944,0.09381246662088927,0.32367437247272424
1679688390153976,-0.9452658884565501,0.09759670405126997,0.3208667124437321
1679688390169960,-0.9287861448081176,0.07623407339589505,0.3229419394216828
1679688390185944,-0.8997329671168077,0.028747997253375956,0.33075455863279135
1679688390201928,-0.8832532234683756,-0.005065995269703194,0.34174105439841274
1679688390217912,-0.8931410696574349,-0.007995727473868897,0.3469901579308763
1679688390233795,-0.9221942473487448,0.02276646066987098,0.3466239414053556
1679688390249778,-0.9542992294193944,0.06182955672541368,0.34711223010604986
1679688390265762,-0.9757839322499429,0.08477912565804502,0.35089646753643056
1679688390281746,-0.9868925001907378,0.10028229190508853,0.34711223010604986
1679688390297729,-0.98457312886244,0.1167620355535206,0.32941176470588207
1679688390313713,-0.9744411383230336,0.11810482948042988,0.31976806286716997
1679688390329696,-0.970901045243,0.0957656214236664,0.3270923933775842
1679688390345680,-0.9705348287174793,0.07830930037384576,0.35553521019302625
1679688390361663,-0.96577401388571,0.06475928892957938,0.3650568398565648
1679688390377647,-0.9630884260318915,0.053284504463263715,0.37323567559319404
1679688390393631,-0.9685816739147022,0.034973678187228074,0.3969176775768677
1679688390409614,-0.9917753871976807,0.062439917601281536,0.41815823605706903
1679688390425598,-1.0246128023193712,0.13714808880750784,0.4127870603494319
1679688390441581,-1.0362096589608605,0.17926298924238981,0.42645914396887186
1679688390457565,-1.0314488441290912,0.1923247119859619,0.44245059891660965
1679688390473549,-1.0496375982299533,0.22504005493247892,0.4812695506218052
1679688390489532,-1.0387731746395055,0.28876173037308295,0.5081254291599908
1679688390505516,-1.007034409094377,0.3237964446478978,0.5344930189974821
1679688390521499,-0.9229266803997862,0.2743572137026016,0.5496299687190049
1679688390537483,-0.8456549935149158,0.20782787823300541,0.5813687342641334
1679688390553405,-0.8446784161135272,0.23175402456702532,0.617624170290684
1679688390569389,-0.8721446555275807,0.29803921568627434,0.6382543678950183
1679688390585373,-0.9112077515831234,0.3070725566491186,0.6780498970016025
1679688390601356,-0.9191424429694055,0.20428778515297186,0.7273670557717251
1679688390617340,-0.8906996261539635,0.044129091325245895,0.789990081635767
1679688390633323,-0.8571297779812315,-0.09002822919050901,0.8444342717631796
1679688390649307,-0.8192874036774245,-0.17438010223544653,0.869947356374456
1679688390665290,-0.7698481727321278,-0.2121004043640804,0.8723887998779274
1679688390681274,-0.7509269855802243,-0.1837796597238115,0.8938735027084768
1679688390697258,-0.7272449835965515,-0.130434119172961,0.9273212787060352
1679688390713241,-0.6738994430457006,-0.08307011520561547,0.9422140840772109
1679688390729225,-0.606637674525063,-0.03790341039139378,0.9264667734798202
1679688390745208,-0.5447470817120621,0.01104753185320817,0.8419928282597082
1679688390761192,-0.43866636148622895,0.019714656290531707,0.6967269398031588
1679688390777176,-0.32001220721751755,-0.01739528496223386,0.5547570000762949
1679688390793159,-0.240665293354696,-0.07818722819867263,0.44757763027389963
1679688390809143,-0.20025940337224402,-0.1345845731288624,0.3385671778438999
1679688390825126,-0.18316929884794364,-0.23907835507743957,0.23114366369115746
1679688390841110,-0.20148012512397973,-0.39850461585412367,0.15936522468909775
1679688390857093,-0.21661707484550252,-0.5883268482490274,0.12579537651636574
1679688390872985,-0.24847791256580454,-0.7176012817578394,0.14386205844205424
1679688390888969,-0.3933775844968337,-0.6558327611200121,0.2616617074845502
1679688390904952,-0.5960173952849623,-0.48444342717631805,0.47235828183413453
1679688390920935,-0.7456778820477608,-0.35236133363851385,0.7387197680628672
1679688390936918,-0.7869382772564277,-0.32220950637064183,0.9779812314030671
1679688390952901,-0.6981918059052417,-0.3081712062256807,1.1347219043259331
1679688390968884,-0.5611047531853206,-0.14496070801861594,1.2350652323186084
1679688390984867,-0.49066910811017017,0.08307011520561502,1.328206301976043
1679688391000850,-0.44196231021591537,0.1973296711680783,1.3573815518425265
1679688391016833,-0.4209658960860607,0.16534676127260273,1.3250324254215302
1679688391032817,-0.41913481345845716,0.031067368581673804,1.2469062333104448
1679688391048800,-0.43952086671244395,-0.08978408484016187,1.1170214389257644
1679688391064783,-0.4578316929884796,-0.16791027695124727,0.9583276112001222
1679688391080766,-0.4707713435568781,-0.21661707484550252,0.820996414129854
1679688391096749,-0.4711375600823988,-0.24664682993820097,0.7317616540779737
1679688391112732,-0.4564888990615703,-0.26019684138246735,0.6834210727092396
1679688391128715,-0.4423285267414361,-0.24872205691615168,0.6780498970016025
1679688391144698,-0.44159609369039465,-0.20514229037918685,0.7025864042114902
1679688391160681,-0.46552224002441456,-0.1388570992599374,0.759838254367895
1679688391176664,-0.5250934615091172,-0.048035400930800165,0.8410162508583197
1679688391192596,-0.5740444037537196,0.008728160524910322,0.9143816281376367
1679688391208579,-0.5994354161898223,-0.01239032578011745,0.953566796368353
1679688391224562,-0.6118867780575266,-0.08392462043183047,0.9762722209506371
1679688391240545,-0.6055390249485009,-0.1531395437552452,0.9707789730678265
1679688391256528,-0.5930876630807966,-0.18268101014724936,0.9489280537117573
1679688391272512,-0.5768520637827117,-0.16412603952086657,0.9239032578011752
1679688391288495,-0.5568322270542456,-0.11786068513008319,0.9008316166933703
1679688391304478,-0.5380331120775157,-0.07672236209658978,0.8822766460669875
1679688391320461,-0.5227740901808193,-0.04827954528114731,0.8695811398489353
1679688391336444,-0.5061722743572137,-0.03448538948653379,0.8527351796749825
1679688391352427,-0.48993667505912875,-0.030945296406500233,0.8467536430914775
1679688391368410,-0.4800488288700695,-0.024963759822995257,0.8401617456321047
1679688391384393,-0.4650339513237203,-0.04095521477073305,0.8300297550926983
1679688391400376,-0.45465781643396674,-0.05743495841916513,0.8266117341878383
1679688391416360,-0.4544136720836196,-0.06158541237506654,0.8343022812237733
1679688391432343,-0.46393530174715814,-0.05792324711985941,0.8479743648432132
1679688391448326,-0.47614251926451523,-0.04107728694590662,0.8625009536888681
1679688391464309,-0.49152361333638517,-0.02667277027542525,0.8832532234683761
1679688391480292,-0.5077592126344701,-0.021911955443655984,0.9062027924010074
1679688391496275,-0.5192339971007858,-0.022278171969176697,0.9193865873197531
1679688391512207,-0.5272907606622415,-0.021789883268482413,0.9162127107652402
1679688391528189,-0.5327840085450521,-0.019714656290531707,0.9030289158464946
1679688391544172,-0.530830853742275,-0.012634470130464592,0.8847180895704589
1679688391560155,-0.5276569771877622,0.010803387502861028,0.8734874494544895
1679688391576137,-0.5237506675822079,0.03155565728236809,0.8621347371633474
1679688391592120,-0.5112993057145037,0.04217593652246876,0.8570077058060575
1679688391608102,-0.4951857785915923,0.05926604104676869,0.8531013962005032
1679688391624085,-0.4883497367818723,0.07342641336690292,0.8482185091935603
1679688391640068,-0.492133974212253,0.09027237354085571,0.8462653543907832
1679688391656050,-0.5014114595254444,0.1079728389410235,0.8523689631494618
1679688391672033,-0.5210650797283893,0.11163500419623062,0.8637216754406039
1679688391688016,-0.5349813076981764,0.11017013809414777,0.8672617685206374
1679688391703998,-0.5396200503547721,0.12176699473563701,0.8600595101853967
1679688391719981,-0.5603723201342792,0.14129854276340925,0.8526131074998089
1679688391735963,-0.5700160219729917,0.12408636606393486,0.8344243533989468
1679688391751946,-0.5852750438696881,0.08258182650492074,0.826977950713359
1679688391767929,-0.6247043564507515,0.051941710536354435,0.8478522926680396
1679688391783911,-0.6813458457312884,0.037659266041046635,0.8972915236133368
1679688391799894,-0.7012436102845809,0.0567025253681237,0.9267109178301673
1679688391815877,-0.6829327840085448,0.10370031280994851,0.8957045853360803
1679688391831848,-0.6370336461432822,0.14007782101167354,0.8440680552376589
1679688391847830,-0.5996795605401695,0.16986343175402485,0.8064698252841991
1679688391863813,-0.5864957656214238,0.18280308232242337,0.787426565957122
1679688391879796,-0.585885404745556,0.166689555199512,0.784008545052262
1679688391895778,-0.5977264057373923,0.13922331578545855,0.7885252155336842
1679688391911761,-0.6051728084229802,0.09991607537956781,0.7886472877088577
1679688391927744,-0.6030975814450295,0.06353856717784367,0.7793698023956663
1679688391943726,-0.597238117036698,0.058289463645380124,0.7509269855802243
1679688391959709,-0.5812466620889603,0.07635614557106862,0.721995880064088
1679688391975691,-0.5651331349660489,0.10052643625543567,0.7027084763866638
1679688391991674,-0.5695277332722974,0.11139085984588348,0.7193102922102694
1679688392007657,-0.6012664988174259,0.12970168612192,0.766674296177615
1679688392023639,-0.6466773479819943,0.16693369954985915,0.8177004654001676
1679688392039622,-0.7011215381094074,0.2150301365682461,0.8709239337758445
1679688392055605,-0.7553215838864729,0.26190585183489734,0.9188982986190588
1679688392071587,-0.7830319676508735,0.26739909971770803,0.9584496833752958
1679688392087570,-0.754711223010605,0.2150301365682461,0.9699244678416115
1679688392103552,-0.7166247043564509,0.15777828641184133,0.9505149919890137
1679688392119535,-0.6697489890897992,0.10980392156862706,0.9232928969253074
1679688392135518,-0.6026092927443352,0.07379262989242363,0.8988784618905932
1679688392151428,-0.5711146715495539,0.1272602426184486,0.9110856794079503
1679688392167410,-0.5922331578545816,0.2688639658197909,0.9557640955214772
1679688392183392,-0.6016327153429466,0.3607843137254898,1.0089875638971542
1679688392199374,-0.564522774090181,0.310368505378805,1.0702677958342868
1679688392215356,-0.5307087815671014,0.21344319829098968,1.118852521553368
1679688392231339,-0.5137407492179751,0.17523460746166197,1.1433890287632567
1679688392247321,-0.5034866865033951,0.1768215457389184,1.1380178530556195
1679688392263303,-0.4640573739223317,0.14898908979934422,1.1228809033340958
1679688392279285,-0.4176699473563743,0.11749446860456203,1.1347219043259331
1679688392295267,-0.38312352178225373,0.12787060349431645,1.1122606240939952
1679688392311249,-0.32172121766994755,0.1680323491264213,1.007034409094377
1679688392327232,-0.23236438544289317,0.19073777370870548,0.8867933165484096
1679688392343214,-0.1560692759594109,0.19085984588387905,0.8031738765545127
1679688392359196,-0.09210345616845972,0.1503318837262535,0.7338368810559244
1679688392375178,-0.03350881208514522,0.08404669260700359,0.6604715037766082
1679688392391160,0.0365606164644845,0.01495384145876244,0.5868619821469441
1679688392407142,0.1050431067368578,-0.03057907988097952,0.5435263599603264
1679688392423124,0.17071793698023985,-0.04180971999694805,0.5540245670252535
1679688392439107,0.22223239490348679,-0.04058899824521234,0.6173800259403368
1679688392455089,0.2603189135576409,-0.04083314259555948,0.7056382085908295
1679688392471038,0.2910811017013808,-0.020813305867093845,0.7836423285267413
1679688392487021,0.33624780651560204,0.03070115205615309,0.8374761577782861
1679688392503003,0.3792172121766999,0.089906157015335,0.9059586480506603
1679688392518985,0.40338750286106695,0.13299763485160643,0.9866483558403907
1679688392534967,0.40839246204318336,0.14251926451514496,1.0569619287403675
1679688392550949,0.39716182192721483,0.1389791714351114,1.1212939650568394
1679688392566931,0.3494316014343477,0.15094224460212136,1.165484092469673
1679688392582914,0.3175707637140457,0.15008773937590636,1.188555733577478
1679688392598896,0.29791714351110077,0.1494773785000385,1.1974670023651486
1679688392614878,0.28790722514686795,0.1570458533607999,1.183672846570535
1679688392630860,0.2964522774090179,0.1587548638132299,1.1425345235370417
1679688392646842,0.3029221026932172,0.14459449149309567,1.089555199511711
1679688392662824,0.2976729991607536,0.11749446860456203,1.0362096589608605
1679688392678806,0.2898603799496451,0.08538948653391287,0.9787136644541086
1679688392694789,0.2990157930876629,0.057190814068817986,0.9295185778591595
1679688392710771,0.31866941329060783,0.046814679179064456,0.8968032349126425
1679688392726753,0.34723430228122343,0.054383154039825854,0.8856946669718475
1679688392742735,0.37518883039597206,0.06744487678339794,0.8880140383001454
1679688392758717,0.40045777065690125,0.0794079499504079,0.8954604409857332
1679688392774699,0.42401770046540044,0.09539940489814569,0.9035172045471889
1679688392790619,0.4287785152971697,0.10699626153963493,0.9319600213626309
1679688392806600,0.4182803082322426,0.10858319981689135,0.9638208590829329
1679688392822582,0.41925688563363117,0.08245975432974717,0.9702906843671322
1679688392838564,0.4368352788586254,0.05548180361638799,0.9525902189669644
1679688392854545,0.457709620813306,0.04644846265354374,0.9256122682536052
1679688392870527,0.46393530174715814,0.04461738002594018,0.9103532463569088
1679688392886509,0.4590524147402153,0.03826962691691449,0.8961928740367746
1679688392902490,0.4409857328145268,0.014465552758068156,0.8870374608987568
1679688392918472,0.4334172579537654,-0.018127718013275285,0.8531013962005032
1679688392934454,0.44745555809872606,-0.03595025558861664,0.7981689173723963
1679688392950435,0.5304646372167543,-0.010437170977340315,0.6983138780804152
1679688392966417,0.6083466849774926,0.0365606164644845,0.6200656137941554
1679688392982399,0.6570534828717483,0.059876401922636546,0.6092011902037076
1679688392998380,0.6637674525062947,0.05157549401083372,0.651438162813764
1679688393014362,0.6760967421988253,0.05230792706187515,0.6896467536430917
1679688393030344,0.716868848706798,0.06305027847714939,0.7040512703135731
1679688393046325,0.7802243076218813,0.11541924162661132,0.6731670099946596
1679688393062307,0.8632333867399096,0.2007476920729383,0.6221408407721061
1679688393078289,0.9162127107652402,0.2907148851758601,0.5990691996643012
1679688393094270,0.9231708247501338,0.388860914015412,0.5689173723964291
1679688393110229,0.8881361104753189,0.42023346303501974,0.5532921339742121
1679688393126211,0.8462653543907832,0.37189288166628476,0.5449912260624092
1679688393142192,0.8189211871519033,0.29254596780346365,0.5405966277561607
1679688393158174,0.816723887998779,0.21063553826199755,0.5310749980926222
1679688393174156,0.8050049591821162,0.16241702906843702,0.5646448462653542
1679688393190137,0.7761959258411535,0.13751430533302855,0.6381322957198448
1679688393206119,0.7550774395361257,0.11737239642938846,0.7216296635385673
1679688393222101,0.7556878004119936,0.12616159304188646,0.7863279163805599
1679688393238083,0.7576409552147707,0.1553368429083699,0.8412603952086668
1679688393254064,0.7483634699015793,0.14300755321583924,0.8727550164034481
1679688393270046,0.7353017471580072,0.10308995193408066,0.8850843060959797
1679688393286028,0.7147936217288473,0.05120927748531301,0.8689707789730674
1679688393302009,0.7008773937590602,0.008728160524910322,0.8438239108873118
1679688393317991,0.6537575341420618,-0.033752956435492365,0.8384527351796747
1679688393333973,0.5845426108186462,-0.08172732127870619,0.8434576943617911
1679688393349954,0.5413290608072021,-0.12555123216601816,0.8135500114442662
1679688393365936,0.5326619363698786,-0.16156252384222158,0.7451895933470665
1679688393381918,0.5554894331273363,-0.1881742580300605,0.6536354619668883
1679688393397899,0.6059052414740211,-0.20843823910887327,0.5551232166018156
1679688393413881,0.6587624933241782,-0.2121004043640804,0.4922560463874266
1679688393429809,0.7003891050583659,-0.1943999389639126,0.45246051728084247
1679688393445791,0.7340810254062715,-0.17584496833752938,0.4447699702449075
1679688393461773,0.7617914091706721,-0.13958953231097881,0.46674296177615027
1679688393477754,0.7631342030975814,-0.09686427100022899,0.5283894102388036
1679688393493736,0.7307850766765851,-0.052918287937743,0.6298313878080419
1679688393509718,0.683299000534066,-0.04730296787975874,0.7468986037994965
1679688393525699,0.6342259861142905,-0.09381246662088971,0.8612802319371324
1679688393541681,0.6011444266422519,-0.1669336995498587,0.9345235370412759
1679688393557663,0.5802700846875712,-0.21991302357518894,0.9546654459449151
1679688393573644,0.5571984435797663,-0.23114366369115746,0.9248798352025638
1679688393589626,0.5401083390554664,-0.23028915846494247,0.869947356374456
1679688393605608,0.5281452658884564,-0.23749141680018315,0.8145265888456548
1679688393621589,0.5188677805752651,-0.25348287174792095,0.7896238651102463
1679688393637571,0.5010452429999237,-0.2848554207675287,0.7964599069199663
1679688393653553,0.46588845654993527,-0.31293202105745044,0.8382085908293275
1679688393669534,0.4406195162890061,-0.321599145494774,0.8705577172503238
1679688393685516,0.4452582589456018,-0.31879148546578184,0.8689707789730674
1679688393701498,0.46894026092927454,-0.28326848249027226,0.8358892195010297
1679688393717479,0.4973830777447166,-0.2439612420843824,0.7974364843213548
1679688393733461,0.5277790493629357,-0.2129549095902954,0.7525139238574807
1679688393749420,0.5495078965438314,-0.17108415350576012,0.7058823529411766
1679688393765401,0.5547570000762949,-0.08990615701533544,0.7000228885328452
1679688393781383,0.5144731822690165,0.08172732127870574,0.7197985809109637
1679688393797365,0.44831006332494105,0.27447928587777515,0.7821774624246585
1679688393813346,0.4061951628900591,0.3667658503089948,0.8855725947966739
1679688393829328,0.39252307927061914,0.30841535057602787,1.014724956130312
1679688393845310,0.40094605935759553,0.15558098725871705,1.1054245822842752
1679688393861292,0.44293888761730393,0.05548180361638799,1.094926375219348
1679688393877273,0.5029983978027008,0.026184481574730967,1.0393835355153733
1679688393893255,0.5434042877851528,0.0776989394979779,0.9546654459449151
1679688393909237,0.5579308766308078,0.15167467765316278,0.8844739452201118
1679688393925218,0.5460898756389714,0.19464408331425975,0.8366216525520711
1679688393941200,0.49750514991989014,0.2356603341725796,0.8443121995880061
1679688393957182,0.40961318379491907,0.3032883192187379,0.8662851911192488
1679688393973163,0.2915693904020751,0.3646906233310441,0.9298847943846802
1679688393989145,0.1785305561913484,0.3440604257267106,1.013870450904097
1679688394005127,0.09832913710231139,0.24579232471198598,1.0779583428702217
1679688394021108,0.051819638361180864,0.1599755855649656,1.085282673380636
1679688394037090,0.023620965896085977,0.13165484092469715,1.0238803692683298
1679688394053072,0.001159685664148924,0.1289692530708786,0.9297627222095066
1679688394069000,-0.03216601815823594,0.10455481803616351,0.8539559014267182
1679688394084981,-0.07220569161516766,0.04766918440527945,0.8076905470359348
1679688394100962,-0.09747463187609684,-0.015442130159456724,0.7681391622796978
1679688394116943,-0.11187914854657821,-0.058289463645380124,0.7248035400930801
1679688394132925,-0.14325169756618594,-0.09356832227054257,0.7230945296406501
1679688394148906,-0.19940489814602902,-0.06646829938200982,0.7757076371404592
1679688394164887,-0.28656443121995867,0.041565575646600905,0.8377203021286332
1679688394180868,-0.3731136034180209,0.18512245365072122,0.8598153658350496
1679688394196849,-0.44574654764629607,0.3203784237430378,0.8578622110322724
1679688394212831,-0.5071488517586022,0.4509956511787596,0.8435797665369646
1679688394228812,-0.5966277561608302,0.5276569771877622,0.8937514305333032
1679688394244793,-0.6411841000991836,0.46967269398031597,0.9636987869077593
1679688394260774,-0.677195391775387,0.3339284351873042,1.0802777141985196
1679688394276755,-0.7243152513923858,0.18426794842450622,1.2045471885252157
1679688394292737,-0.8482185091935608,0.08734264133669001,1.3150225070572974
1679688394308718,-0.8922865644312199,0.02264438849469741,1.2624093995574883
1679688394324699,-0.8450446326390479,0.13031204699778787,1.0902876325627524
1679688394340680,-0.7138170443274587,0.1334859235523007,0.980300602731365
1679688394356661,-0.65131609063859,0.15423819333180777,0.897779812314031
1679688394372643,-0.5763637750820174,0.22565041580834677,0.7650873579003585
1679688394388641,-0.5095902952620737,0.2647135118638895,0.6640115968566418
1679688394404622,-0.49994659342336156,0.2974288548104065,0.6033417257953761
1679688394420603,-0.5028763256275273,0.2587319752803845,0.5993133440146483
1679688394436585,-0.5200885023270008,0.19623102159151617,0.6271457999542234
1679688394452566,-0.5468223086900128,0.12103456168459559,0.6957503624017702
1679688394468547,-0.5987029831387809,-0.037781338216220206,0.8172121766994733
1679688394484528,-0.64960708018616,0.012878614480811734,0.8531013962005032
1679688394500509,-0.6759746700236513,0.1998931868467233,0.8205081254291597
1679688394516491,-0.6522926680399785,0.3225757228961621,0.8107423514152741
1679688394532472,-0.6026092927443352,0.3599298084992748,0.8069581139848934
1679688394548453,-0.5741664759288931,0.38690775921263487,0.7941405355916684
1679688394564434,-0.5597619592584113,0.40973525597009264,0.7694819562066071
1679688394580415,-0.5786831464103153,0.3969176775768677,0.7718013275349049
1679688394596397,-0.6145723659113451,0.36395819028000265,0.7763179980163271
1679688394612378,-0.6338597695887693,0.34723430228122343,0.7562981612878614
1679688394628359,-0.6372777904936293,0.346501869230182,0.7186999313344016
1679688394644340,-0.6415503166247043,0.3364919508659492,0.6950179293507288
1679688394660321,-0.636789501792935,0.3170824750133514,0.6769512474250403
1679688394676303,-0.6378881513694972,0.31219958800640857,0.6641336690318154
1679688394692284,-0.650461585412375,0.3356374456397342,0.6614480811779968
1679688394708221,-0.6652323186083771,0.36945143816281334,0.6612039368276497
1679688394724202,-0.6717021438925763,0.40289921416037267,0.6795147631036853
1679688394740183,-0.6652323186083771,0.43146410315098827,0.6725566491187918
1679688394756165,-0.64448004882887,0.467963683527886,0.656565194171054
1679688394772146,-0.6400854505226214,0.5143511100938429,0.6572976272220954
1679688394788127,-0.6394750896467536,0.5436484321355,0.6717021438925768
1679688394804108,-0.6278782330052644,0.5294880598153657,0.6594949263752197
1679688394820089,-0.6043183031967652,0.4977492942702373,0.6214084077210646
1679688394836071,-0.5792935072861831,0.468818188754101,0.5829556725413898
1679688394852052,-0.5728236820019839,0.48688487067978947,0.557564660105287
1679688394868033,-0.5651331349660489,0.4922560463874266,0.5481651026169221
1679688394884014,-0.5524376287479971,0.5000686655985351,0.5382772564278628
1679688394899995,-0.5311970702677957,0.5388876173037307,0.5436484321355
1679688394915977,-0.5375448233768214,0.616769665064469,0.560128175783932
1679688394931958,-0.555855649652857,0.6947737850003817,0.5465781643396657
1679688394947939,-0.5733119707026781,0.7433585107194629,0.5073929961089494
1679688394963920,-0.6067597467002366,0.7475089646753643,0.5009231708247501
1679688394979901,-0.6371557183184557,0.6895246814679181,0.506660563057908
1679688394995883,-0.6507057297627221,0.6381322957198448,0.499824521248188
1679688395011864,-0.6441138323033493,0.6137178606851297,0.4612497138933396
1679688395027832,-0.641916533150225,0.6134737163347825,0.46173800259403386
1679688395043813,-0.6485084306095978,0.6413061722743576,0.4977492942702373
1679688395059794,-0.6115205615320058,0.6900129701686124,0.4867627985046159
1679688395075775,-0.5537804226749063,0.721995880064088,0.41095597772182835
1679688395091756,-0.5556115053025099,0.7208972304875259,0.38654154268711416
1679688395107738,-0.6041962310215916,0.721995880064088,0.4124208438239112
1679688395123719,-0.6596169985503928,0.7460440985732815,0.4358587014572368
1679688395139700,-0.6989242389562831,0.7111314564736402,0.43866636148622895
1679688395155681,-0.7133287556267645,0.6305638208590834,0.4469672693980318
1679688395171662,-0.7053940642404823,0.5831998168917369,0.4279240100709547
1679688395187644,-0.6819562066071563,0.5994354161898219,0.4081483176928362
1679688395203625,-0.6536354619668878,0.626413366903182,0.3917906462195777
1679688395219606,-0.6369115739681086,0.6431372549019612,0.3927672236209663
1679688395235587,-0.6275120164797436,0.6576638437476161,0.395696955825132
1679688395251568,-0.6165255207141223,0.6444800488288704,0.3955748836499584
1679688395267550,-0.6172579537651637,0.6326390478370341,0.39716182192721483
1679688395283531,-0.6314183260852979,0.6383764400701919,0.4055848020141912
1679688395299512,-0.6430151827267871,0.6483863584344247,0.4149843595025562
1679688395315493,-0.6411841000991836,0.6525368123903261,0.41010147249561335
1679688395331474,-0.6298313878080415,0.6427710383764405,0.4005798428320748
1679688395347412,-0.6345922026398108,0.6382543678950183,0.39826047150377697
1679688395363392,-0.6527809567406728,0.6419165331502255,0.3972838941023884
1679688395379373,-0.6649881742580299,0.6447241931792176,0.39496452277409055
1679688395395354,-0.6601052872510871,0.6323949034866869,0.39154650186923057
1679688395411335,-0.6548561837186235,0.6253147173266198,0.38702983138780844
1679688395427315,-0.6476539253833828,0.6319066147859926,0.39032578011749486
1679688395443296,-0.6341039139391165,0.6482642862592511,0.38324559395742774
1679688395459277,-0.6055390249485009,0.6535133897917147,0.37018387121385476
1679688395475257,-0.5923552300297552,0.6627908751049061,0.36139467460135766
1679688395491238,-0.5943083848325323,0.6835431448844131,0.3519951171129927
1679688395507219,-0.6161593041886015,0.7053940642404823,0.3712825207904169
1679688395523200,-0.6449683375295643,0.744457160296025,0.36603341725795335
1679688395539180,-0.6815899900816356,0.7537346456092164,0.3842221713588163
1679688395555161,-0.6995345998321509,0.7378652628366522,0.3883726253147177
1679688395571142,-0.7051499198901352,0.713450827801938,0.38239108873121275
1679688395587123,-0.685740444037537,0.682444495307851,0.3570000762951091
1679688395603103,-0.6636453803311206,0.6216525520714118,0.3519951171129927
1679688395619084,-0.6846417944609748,0.5949187457083998,0.3485770962081327
1679688395635065,-0.7101548790722516,0.5634241245136185,0.3938658731975284
1679688395651045,-0.7396963454642558,0.5863736934462498,0.42304112306401187
1679688395667022,-0.7677729457541771,0.6145723659113447,0.4325627527275504
1679688395683003,-0.7721675440604256,0.6333714808880755,0.43329518577859183
1679688395698984,-0.7466544594491493,0.6259250782024877,0.39630731670099983
1679688395714964,-0.6980697337300681,0.5983367666132597,0.3620050354772255
1679688395730945,-0.6388647287708857,0.5181353475242236,0.38739604791332916
1679688395746926,-0.6172579537651637,0.4910353246356909,0.44110780498970037
1679688395762907,-0.6033417257953766,0.5401083390554664,0.47602044708934166
1679688395778887,-0.5924773022049288,0.6510719462882433,0.4881055924315252
1679688395794868,-0.602365148393988,0.8169680323491262,0.49530785076676587
1679688395810849,-0.6034637979705502,0.9425803006027316,0.5208209353780422
1679688395826830,-0.5905241474021516,0.9466086823834594,0.5680628671702141
1679688395842810,-0.5683070115205617,0.8678721293965053,0.5977264057373919
1679688395858791,-0.5418173495078964,0.7837644007019149,0.5807583733882655
1679688395874772,-0.5335164415960936,0.746166170748455,0.5183794918745708
1679688395890752,-0.5514610513466085,0.7178454261081866,0.4423285267414361
1679688395906733,-0.5676966506446939,0.6847638666361489,0.3573662928206298
1679688395922714,-0.5803921568627453,0.6203097581445025,0.29254596780346365
1679688395938695,-0.5979705500877395,0.5524376287479971,0.2582436865796902
1679688395954675,-0.6059052414740216,0.4927443350881209,0.22711528191042962
1679688395970656,-0.6591287098496985,0.42352941176470615,0.29584191653315006
1679688395986602,-0.8013427939269091,0.2973067826352329,0.578927290760662
1679688396002583,-0.8881361104753185,0.31317616540779714,0.6846417944609753
1679688396018564,-0.85639734493019,0.47357900358587024,0.5112993057145037
1679688396034545,-0.7772945754177156,0.5341268024719614,0.3767757686732285
1679688396050525,-0.6988021667811095,0.510933089188983,0.346501869230182
1679688396066506,-0.6437476157778286,0.4740672922865645,0.3816586556801713
1679688396082487,-0.6046845197222859,0.5102006561379415,0.41803616388189546
1679688396098467,-0.5912565804531931,0.6175020981155104,0.45343709468223103
1679688396114448,-0.6077363241016251,0.7511711299305714,0.47687495231555665
1679688396130429,-0.6430151827267871,0.8822766460669875,0.4838330663004502
1679688396146410,-0.6825665674830241,0.938185702296483,0.49164568551155874
1679688396162390,-0.6881818875410088,0.9069352254520489,0.46894026092927454
1679688396178371,-0.6897688258182653,0.815869382772564,0.4093690394445719
1679688396194352,-0.6956282902265967,0.7036850537880524,0.3812924391546506
1679688396210332,-0.7056382085908295,0.6442359044785233,0.37116044861524333
1679688396226313,-0.6853742275120163,0.6378881513694976,0.35175097276264555
1679688396242294,-0.6618142977035171,0.6604715037766082,0.34076447699702417
1679688396258275,-0.6258030060273136,0.709178301670863,0.3203784237430378
1679688396274255,-0.6164034485389487,0.7560540169375143,0.3280689707789728
1679688396290236,-0.6179903868162051,0.784863050278477,0.31561760891126855
1679688396306244,-0.6184786755168994,0.7698481727321278,0.3419851987487599
1679688396322224,-0.6155489433127337,0.7888914320592049,0.3191577019913021
1679688396338205,-0.6021210040436409,0.7404287785152972,0.3124437323567557
1679688396354186,-0.582467383840696,0.6864728770885788,0.3058518348973829
1679688396370166,-0.5716029602502481,0.658274204623484,0.29047074082551294
1679688396386147,-0.5708705271992067,0.6398413061722747,0.28290226596475154
1679688396402128,-0.5879606317235067,0.6527809567406733,0.2890058747234301
1679688396418109,-0.6226291294728008,0.6561989776455333,0.3242847333485921
1679688396434089,-0.6699931334401463,0.6593728542000461,0.36139467460135766
1679688396450070,-0.7123521782253759,0.650583657587549,0.3750667582207985
1679688396466051,-0.7351796749828337,0.6100556954299226,0.3855649652857256
1679688396482031,-0.7343251697566187,0.5790493629358355,0.38397802700846917
1679688396498012,-0.7259021896696423,0.575509269855802,0.3766536964980549
1679688396513993,-0.733104448004883,0.5830777447165634,0.3778744182497906
1679688396529974,-0.7539787899595636,0.5817349507896541,0.3910582131685363
1679688396545954,-0.7919432364385441,0.576363775082017,0.41351949340047334
1679688396561935,-0.8238040741588466,0.5725795376516363,0.4280460822461283
1679688396577916,-0.8285648889906159,0.5706263828488591,0.42902265964751685
1679688396593896,-0.8057373922331577,0.5700160219729913,0.42011139085984617
1679688396609877,-0.7718013275349049,0.5883268482490269,0.41510643167772976
1679688396625824,-0.7482413977264057,0.6033417257953761,0.42304112306401187
1679688396641804,-0.7207751583123523,0.6164034485389482,0.42987716487373184
1679688396657785,-0.7011215381094074,0.636057068741894,0.43659113450827824
1679688396673766,-0.6824444953078506,0.643747615777829,0.4431830319676511
1679688396689746,-0.6768291752498663,0.6460669871061269,0.45380331120775175
1679688396705727,-0.6784161135271227,0.6373998626688033,0.46222629129472814
1679688396721708,-0.6752422369726099,0.6314183260852984,0.46808575570305955
1679688396737689,-0.6642557412069885,0.6309300373846041,0.46857404440375383
1679688396753669,-0.6403295948729686,0.6244602121004039,0.46381322957198456
1679688396769650,-0.6050507362478066,0.5921110856794076,0.46552224002441456
1679688396785631,-0.5631799801632718,0.5630579079880977,0.46002899214160387
1679688396801612,-0.5357137407492178,0.5535362783245592,0.4599069199664303
1679688396817592,-0.5363241016250857,0.5506065461203935,0.4787060349431602
1679688396833573,-0.5574425879301135,0.5471885252155335,0.5027542534523537
1679688396849554,-0.5951628900587473,0.5469443808651864,0.5198443579766536
1679688396865534,-0.6271457999542229,0.5476768139162278,0.5353475242236971
1679688396881515,-0.6459449149309529,0.5469443808651864,0.5521934843976499
1679688396897496,-0.6497291523613336,0.5441367208361942,0.5545128557259478
1679688396913477,-0.64106202792401,0.5172808422980086,0.5440146486610207
1679688396929457,-0.6247043564507515,0.49628442816815443,0.5313191424429693
1679688396945434,-0.6247043564507515,0.4943312733653773,0.5243610284580758
1679688396961415,-0.6413061722743572,0.5065384908827344,0.5413290608072021
1679688396977396,-0.669504844739452,0.5268024719615472,0.5606164644846263
1679688396993376,-0.6828107118333713,0.53510337987335,0.5664759288929577
1679688397009357,-0.680613412680247,0.5271686884870679,0.5705043106736856
1679688397025338,-0.6698710612649728,0.5280231937132829,0.5574425879301135
1679688397041319,-0.6621805142290378,0.5287556267643243,0.5537804226749063
1679688397057299,-0.6474097810330357,0.5318074311436636,0.5546349279011213
1679688397073280,-0.6337376974135958,0.5383993286030364,0.5518272678721292
1679688397089261,-0.6190890363927672,0.5423056382085907,0.5480430304417485
1679688397105241,-0.6132295719844358,0.5482871747920957,0.5405966277561607
1679688397121222,-0.619455252918288,0.5426718547341114,0.5383993286030364
1679688397137203,-0.6295872434576943,0.5340047302967879,0.5375448233768214
1679688397153184,-0.64106202792401,0.5347371633478293,0.5366903181506064
1679688397169164,-0.6542458228427557,0.5401083390554664,0.541084916456855
1679688397185145,-0.6604715037766078,0.5409628442816814,0.5442587930113678
1679688397201126,-0.6540016784924085,0.5397421225299457,0.5386434729533836
1679688397217106,-0.6399633783474479,0.5479209582665749,0.5277790493629357
1679688397233087,-0.63080796520943,0.5537804226749063,0.5244831006332493
1679688397249068,-0.6273899443045701,0.5545128557259478,0.5191119249256122
1679688397265014,-0.6290989547570001,0.5469443808651864,0.5134966048676279
1679688397280995,-0.6310521095597772,0.5446250095368885,0.5062943465323873
1679688397296976,-0.6338597695887693,0.5398641947051193,0.5045853360799573
1679688397312956,-0.6323949034866865,0.5425497825589378,0.49835965514610514
1679688397328937,-0.6278782330052644,0.5590295262073699,0.49164568551155874
1679688397344918,-0.6283665217059586,0.5800259403372241,0.48822766460669875
1679688397360899,-0.6403295948729686,0.6070038910505833,0.4854200045777066
1679688397376879,-0.6592507820248721,0.6312962539101248,0.4881055924315252
1679688397392860,-0.6757305256733042,0.6372777904936298,0.491279468986038
1679688397408841,-0.6736552986953535,0.6323949034866869,0.4778515297169452
1679688397424821,-0.6658426794842449,0.6289768825818269,0.46686503395132384
1679688397440802,-0.6591287098496985,0.6322728313115134,0.4539253833829253
1679688397456783,-0.6680399786373692,0.6316624704356455,0.4549019607843139
1679688397472764,-0.691844052796216,0.6218966964217589,0.45758754863813245
1679688397488744,-0.7130846112764173,0.6050507362478061,0.45294880598153675
1679688397504725,-0.721995880064088,0.5967498283360033,0.4530708781567103
1679688397520706,-0.7178454261081866,0.597116044861524,0.45209430075532175
1679688397536687,-0.7022201876859695,0.607370107576104,0.44245059891660965
1679688397552667,-0.685740444037537,0.6171358815899897,0.4296330205233847
1679688397568648,-0.6770733196002134,0.6092011902037076,0.4213321126115819
1679688397584625,-0.6706034943160142,0.5973601892118712,0.41974517433432545
1679688397600606,-0.6647440299076828,0.5990691996643012,0.42011139085984617
1679688397616586,-0.6629129472800792,0.613351644159609,0.4169375143053333
1679688397632567,-0.6647440299076828,0.6328831921873812,0.41901274128328403
1679688397648548,-0.6714579995422292,0.655710688944839,0.42865644312199613
1679688397664528,-0.6834210727092391,0.6709697108415353,0.4401312275883118
1679688397680509,-0.6861066605630577,0.6806134126802474,0.44245059891660965
1679688397696490,-0.6905012588693067,0.693553063248646,0.4401312275883118
1679688397712471,-0.6992904554818038,0.6837872892347603,0.4422064545662625
1679688397728451,-0.7006332494087131,0.649729152361334,0.43952086671244395
1679688397744432,-0.687571526665141,0.6087129015030133,0.43146410315098827
1679688397760413,-0.6583962767986571,0.5778286411840998,0.4136415655756469
1679688397776394,-0.6221408407721065,0.5634241245136185,0.40509651331349694
1679688397792374,-0.5935759517814909,0.5819790951400012,0.4060730907148855
1679688397808355,-0.5808804455634395,0.6117647058823525,0.43317311360341826
1679688397824336,-0.5811245899137867,0.6452124818799119,0.4557564660105289
1679688397840316,-0.5944304570077059,0.6837872892347603,0.46894026092927454
1679688397856297,-0.6149385824368658,0.7044174868390938,0.4766308079652095
1679688397872278,-0.6343480582894636,0.7042954146639202,0.4855420767528802
1679688397888259,-0.6500953688868543,0.6896467536430917,0.4860303654535745
1679688397904205,-0.6515602349889371,0.6657206073090718,0.4691844052796217
1679688397920185,-0.6467994201571678,0.6333714808880755,0.4606393530174717
1679688397936165,-0.6378881513694972,0.617624170290684,0.45966277561608315
1679688397952146,-0.6182345311665522,0.6093232623788811,0.4556343938353553
1679688397968126,-0.5967498283360038,0.6151827267872125,0.44867627985046177
1679688397984106,-0.5757534142061496,0.6210421911955439,0.4404974441138325
1679688398000086,-0.571358815899901,0.6162813763637747,0.4494087129015032
1679688398016067,-0.5686732280460824,0.6282444495307855,0.4774853131914245
1679688398032047,-0.5623254749370563,0.6483863584344247,0.4846875715266652
1679688398048027,-0.5718471046005953,0.6883039597161824,0.48908216983291375
1679688398064007,-0.6051728084229802,0.7306630045014115,0.5127641718165865
1679688398079988,-0.6373998626688029,0.7556878004119936,0.5213092240787365
1679688398095968,-0.6623025864042114,0.7566643778133821,0.522285801480125
1679688398111948,-0.6801251239795527,0.7298084992751965,0.5163042648966201
1679688398127928,-0.6980697337300681,0.7178454261081866,0.5076371404592965
1679688398143909,-0.7033188372625316,0.7022201876859695,0.49335469596398873
1679688398159889,-0.7008773937590602,0.6438696879530026,0.4950637064164187
1679688398175869,-0.6906233310444803,0.5698939497978177,0.4834668497749295
1679688398191849,-0.6629129472800792,0.49530785076676587,0.4738231479362174
1679688398207830,-0.6215304798962387,0.4439154650186925,0.4896925307087816
1679688398223816,-0.5744106202792403,0.44208438239108894,0.5064164187075608
1679688398239796,-0.5211871519035629,0.47528801403830023,0.5326619363698786
1679688398255776,-0.48395513847562377,0.5254596780346379,0.5623254749370563
1679688398271756,-0.46564431219958813,0.5817349507896541,0.5730678263523306
1679688398287737,-0.4826123445487145,0.6000457770656897,0.5768520637827113
1679688398303717,-0.5332722972457464,0.5885709925993741,0.5840543221179519
1679688398319697,-0.6039520866712444,0.5766079194323641,0.5821011673151748
1679688398335677,-0.6775616083009077,0.5520714122224764,0.5902800030518041
1679688398351657,-0.7278553444724194,0.5037308308537423,0.6061493858243683
1679688398367638,-0.7329823758297094,0.492133974212253,0.6089570458533604
1679688398383618,-0.7150377660791944,0.5044632639047837,0.6143282215609975
1679688398399598,-0.6734111543450063,0.5230182345311665,0.613351644159609
1679688398415578,-0.6149385824368658,0.5507286182955671,0.5978484779125655
1679688398431559,-0.5623254749370563,0.5901579308766305,0.5902800030518041
1679688398447539,-0.5364461738002593,0.6372777904936298,0.5899137865262833
1679688398463519,-0.5337605859464407,0.6817120622568096,0.5835660334172577
1679688398479499,-0.5449912260624092,0.6806134126802474,0.5801480125123977
1679688398495480,-0.5657434958419167,0.6459449149309533,0.5807583733882655
1679688398511460,-0.5775844968337531,0.6052948805981533,0.5801480125123977
1679688398527440,-0.5851529716945145,0.5744106202792398,0.5745326924544134
1679688398543396,-0.5786831464103153,0.5674525062943463,0.5614709697108413
1679688398559376,-0.5623254749370563,0.5761196307316698,0.5646448462653542
1679688398575356,-0.5353475242236971,0.6199435416189818,0.5700160219729913
1679688398591336,-0.5120317387655451,0.6590066376745254,0.6009002822919047
1679688398607317,-0.504951552605478,0.656565194171054,0.6376440070191505
1679688398623297,-0.4984817273212787,0.6071259632257568,0.6615701533531704
1679688398639277,-0.4702830548561838,0.5276569771877622,0.6405737392233162
1679688398655257,-0.40521858548867007,0.4489204242008089,0.6092011902037076
1679688398671238,-0.3362478065156025,0.44245059891660965,0.5879606317235062
1679688398687218,-0.30548561837186217,0.5204547188525215,0.5923552300297548
1679688398703198,-0.35199511711299314,0.6234836346990154,0.6376440070191505
1679688398719178,-0.4485542076752882,0.6989242389562831,0.6911116197451745
1679688398735159,-0.5523155565728235,0.709178301670863,0.7561760891126879
1679688398751139,-0.6212863355458915,0.6758525978484782,0.7698481727321278
1679688398767119,-0.6491187914854657,0.6541237506675825,0.7152819104295416
1679688398783099,-0.6458228427557793,0.6687724116884111,0.616769665064469
1679688398799080,-0.63935301747158,0.6597390707255668,0.5377889677271686
1679688398815060,-0.6469214923323414,0.5651331349660484,0.5563439383535513
1679688398831040,-0.6644998855573356,0.5147173266193636,0.5987029831387805
1679688398847020,-0.6721904325932706,0.5235065232318608,0.615060654612039
1679688398863006,-0.6778057526512549,0.5242389562829022,0.6398413061722747
1679688398878986,-0.6752422369726099,0.5017776760509651,0.6542458228427561
1679688398894967,-0.6731670099946592,0.4077821011673155,0.6503395132372018
1679688398910947,-0.6846417944609748,0.2998702983138779,0.6311741817349512
1679688398926927,-0.7101548790722516,0.16266117341878417,0.6126192111085675
1679688398942907,-0.6942854962996874,0.0747692072938122,0.5665980010681313
1679688398958888,-0.6858625162127105,0.07525749599450648,0.5430380712596321
1679688398974868,-0.7013656824597545,0.1100480659189742,0.5701380941481649
1679688398990848,-0.729686427100023,0.13470664530403642,0.6387426565957126
1679688399006828,-0.7455558098725872,0.16009765774013918,0.7019760433356224
1679688399022809,-0.7229724574654766,0.16900892652780986,0.7161364156557566
1679688399038789,-0.6520485236896314,0.1423971923399714,0.685008010986496
1679688399054769,-0.560128175783932,0.1041886015106428,0.6494850080109869
1679688399070749,-0.46857404440375383,0.12066834515907487,0.6198214694438082
1679688399086730,-0.4492866407263296,0.20685130083161685,0.6443579766536969
1679688399102710,-0.47638666361486237,0.32660410467688994,0.6870832379644467
1679688399118690,-0.565377279316396,0.4640573739223317,0.7374990463111315
1679688399134670,-0.671213855191882,0.5448691538872357,0.7732661936369878
1679688399150651,-0.7754634927901121,0.5221637293049515,0.8101319905394062
1679688399166631,-0.8694590676737621,0.49713893339436943,0.7851071946288242
1679688399182586,-0.903639276722362,0.45123979552910676,0.7266346227206837
1679688399198567,-0.8830090791180285,0.3969176775768677,0.6680399786373696
1679688399214547,-0.8307621881437401,0.36737621118486263,0.6245822842755775
1679688399230527,-0.7582513160906386,0.3676203555352098,0.5995574883649955
1679688399246507,-0.694407568474861,0.38068207827878275,0.5983367666132597
1679688399262488,-0.6272678721293965,0.38825055313954415,0.5974822613870447
1679688399278468,-0.5675745784695203,0.3892271305409327,0.6105439841306168
1679688399294448,-0.5051956969558251,0.39252307927061914,0.6238498512245361
1679688399310428,-0.44489204242008107,0.40961318379491907,0.643747615777829
1679688399326408,-0.3845883878843366,0.4396429388876175,0.6663309681849396
1679688399342389,-0.3954528114747844,0.5243610284580758,0.7008773937590602
1679688399358369,-0.42377355611505285,0.5825894560158691,0.7416495002670329
1679688399374349,-0.4707713435568781,0.6122529945830468,0.7748531319142442
1679688399390329,-0.5225299458304722,0.6206759746700232,0.7736324101625085
1679688399406310,-0.5681849393453882,0.6084687571526661,0.7600823987182421
1679688399422290,-0.6059052414740216,0.575509269855802,0.7595941100175478
1679688399438270,-0.6060273136491952,0.5188677805752651,0.8159914549477376
1679688399454250,-0.6516823071641107,0.5651331349660484,0.8922865644312203
1679688399470231,-0.7244373235675594,0.6642557412069889,0.9270771343556881
1679688399486211,-0.7999999999999998,0.7106431677729459,0.9236591134508281
1679688399502197,-0.8661631189440757,0.6583962767986575,0.9639429312581065
1679688399518177,-0.8634775310902572,0.3599298084992748,1.2871900511177232
1679688399534157,-0.7394522011139086,0.22442969405661106,1.280109864957656
1679688399550138,-0.6749980926222627,0.5056839856565194,1.0575722896162354
1679688399566118,-0.598947127489128,0.4187685969329369,1.0598916609445332
1679688399582098,-0.5530479896238649,0.2351720454718853,1.2318913557640956
1679688399598078,-0.4447699702449075,0.37103837644006976,0.97261005569543
1679688399614059,-0.16510261692225514,0.5183794918745708,0.49201190203707945
1679688399630039,0.16681162737468558,0.4270695048447397,0.18780804150453978
1679688399646019,0.39960326543068625,0.2377355611505303,0.11749446860456203
1679688399661999,0.5171587701228351,0.14435034714274853,0.15387197680628706
1679688399677980,0.53510337987335,0.1995269703212026,0.23590447852292673
1679688399693960,0.49335469596398873,0.24603646906233312,0.349919890135042
1679688399709940,0.42023346303501974,0.23468375677119102,0.5327840085450521
1679688399725920,0.30951400015259,0.2162508583199818,0.7769283588921949
1679688399741901,0.17865262836652196,0.21564049744411395,1.0158236057068741
1679688399757881,0.053162432288090145,0.25384908827344166,1.173418783855955
1679688399773861,-0.0386358434424352,0.3012130922407872,1.2243228809033342
1679688399789841,-0.09710841535057613,0.306950484473945,1.1863584344243536
1679688399805822,-0.12176699473563746,0.2688639658197909,1.1084763866636145
1679688399821777,-0.13739223315785454,0.22882429236285962,1.0296177615014876
1679688399837757,-0.14740215152208735,0.18890669108110192,0.97944609750515
1679688399853737,-0.16168459601739515,0.1763332570382241,0.9722438391699093
1679688399869718,-0.16632333867399085,0.203677424277104,1.0048371099412527
1679688399885698,-0.15289539940489805,0.2628824292362859,1.0496375982299533
1679688399901678,-0.11847104600595104,0.3212329289692528,1.0799114976729989
1679688399917658,-0.08050659952697048,0.3822690165560392,1.0609903105210954
1679688399933639,-0.03973449301899734,0.4129091325246055,1.0071564812695506
1679688399949619,0.0039673456931410556,0.3800717174029149,0.9687037460898758
1679688399965599,0.03045700770580595,0.3468680857557027,0.9583276112001222
1679688399981579,0.034851606012054503,0.32745860990310494,0.9613794155794615
1679688399997560,0.028625925078202386,0.2960860608834972,0.968337529564355
1679688400013540,0.011779964904249596,0.28033875028610655,0.9690699626153965
1679688400029520,-0.009094377050431035,0.25848783093003735,0.9553978789959565
1679688400045500,-0.02679484245059882,0.2162508583199818,0.9239032578011752
1679688400061481,-0.03411917296101308,0.19208056763561476,0.8949721522850389
1679688400077461,-0.03924620431830306,0.20526436255436042,0.8856946669718475
1679688400093441,-0.05157549401083372,0.242374303807126,0.9075455863279167
1679688400109421,-0.06451514457923269,0.2947432669565879,0.930495155260548
1679688400125402,-0.07684443427176335,0.33575951781490776,0.9652857251850158
1679688400141388,-0.09454489967193114,0.34674601358052914,0.9953154802777142
1679688400157368,-0.11981383993286032,0.34161898222323916,1.0141145952544441
1679688400173348,-0.14288548104066523,0.32574959945067494,1.0069123369192035
1679688400189328,-0.15826657511253517,0.29376668955519936,0.9762722209506371
1679688400205309,-0.16205081254291587,0.2289463645380332,0.9400167849240866
1679688400221289,-0.17218280308232226,0.17865262836652196,0.9256122682536052
1679688400237269,-0.20209048599984758,0.1906157015335319,0.8968032349126425
1679688400253249,-0.22198825055313964,0.1599755855649656,0.8996108949416346
1679688400269230,-0.23114366369115746,0.1721828030823227,0.8600595101853967
1679688400285210,-0.23077744716563675,0.1806057831692991,0.8041504539559012
1679688400301190,-0.24042114900434886,0.10955977721827992,0.819287403677424
1679688400317170,-0.30548561837186217,0.11822690165560346,0.9188982986190588
1679688400333150,-0.3505302510109103,0.06842145418478651,1.0370641641870755
1679688400349131,-0.3591973754482338,0.08514534218356573,1.0951705195696952
1679688400365111,-0.32672617685206395,0.06414892805371153,1.0868696116578924
1679688400381091,-0.31293202105745044,0.06829938200961294,1.1112840466926066
1679688400397071,-0.3357595178149082,0.07403677424277078,1.1587701228351266
1679688400413052,-0.3467460135805296,0.10357824063477494,1.1618219272144659
1679688400429032,-0.3416189822232396,0.08087281605249075,1.1349660486762803
1679688400445012,-0.35199511711299314,0.04742504005493231,1.0988326848249024
1679688400460998,-0.35480277714198527,0.03729304951552592,1.0391393911650262
1679688400476978,-0.355168993667506,0.06671244373235652,0.9810330357824064
1679688400492959,-0.34686808575570316,0.0995498588540471,0.9363546196688795
1679688400508939,-0.34186312657358675,0.10760662241550278,0.9129167620355538
1679688400524919,-0.3425955596246282,0.1050431067368578,0.8893568322270546
1679688400540899,-0.353459983215076,0.04437323567559304,0.8894789044022282
1679688400556880,-0.37543297474631876,0.020691233691920274,0.9076676585030903
1679688400572860,-0.4020447089341572,0.062195773250934394,0.9337911039902345
1679688400588840,-0.4218204013122757,0.10174715800717138,0.9669947356374458
1679688400604820,-0.4201113908598457,0.13128862439917643,0.9702906843671322
1679688400620801,-0.40021362630655366,0.16034180209048632,0.9654077973601893
1679688400636781,-0.3839780270084687,0.19085984588387905,0.9641870756084536
1679688400652761,-0.38507667658503086,0.21954680704966822,0.9682154573891815
1679688400668741,-0.3815365835049973,0.23236438544289317,0.9627222095063708
1679688400684722,-0.3753109025711452,0.23834592202639815,0.9418478675516901
1679688400700702,-0.36884107728694593,0.24261844815747313,0.9049820706492717
1679688400716682,-0.3609063859006638,0.239810788128481,0.875318532082094
1679688400732662,-0.3524834058136874,0.23504997329671173,0.8515144579232468
1679688400748643,-0.3424734874494546,0.24603646906233312,0.8472419317921718
1679688400764623,-0.3429617761501489,0.2676432440680552,0.8607919432364382
1679688400780609,-0.3421072709239339,0.28546578164339653,0.878736552986954
1679688400796589,-0.34064240482185104,0.28741893644617367,0.9035172045471889
1679688400812569,-0.34052033264667747,0.29584191653315006,0.917433432516976
1679688400828549,-0.3403982604715039,0.3036545357442586,0.9214618142977038
1679688400844530,-0.3373464560921646,0.31232166018158214,0.905470359349966
1679688400860510,-0.3396658274204625,0.3284351873044935,0.8980239566643782
1679688400876490,-0.3438162813763639,0.3306324864576178,0.8988784618905932
1679688400892470,-0.34723430228122387,0.3373464560921642,0.8966811627374689
1679688400908451,-0.3512626840619517,0.34125276569771845,0.8828870069428554
1679688400924431,-0.3438162813763639,0.34796673533226485,0.8593270771343553
1679688400940411,-0.33002212558175037,0.3714045929655905,0.8361333638513768
1679688400956391,-0.30780498970016,0.3792172121766999,0.8024414435034712
1679688400972372,-0.2985275043869686,0.39288929579613985,0.7952391851682306
1679688400988352,-0.3075608453498129,0.41510643167772976,0.7860837720302127
1679688401004332,-0.3286793316548411,0.4225528343633176,0.7868162050812542
1679688401020312,-0.3848325322346837,0.4131532768749526,0.8633554589150831
1679688401036293,-0.428290226596475,0.4695506218051424,0.9163347829404138
1679688401052273,-0.43268482490272353,0.5383993286030364,0.9145037003128103
1679688401068253,-0.416327153429465,0.5665980010681313,0.8781261921110861
1679688401084233,-0.3945983062485694,0.5645227740901806,0.8208743419546805
1679688401100189,-0.38886091401541156,0.5421835660334171,0.7755855649652856
1679688401116169,-0.4005798428320744,0.5266803997863736,0.7603265430685893
1679688401132149,-0.3991149767299915,0.52143129625391,0.7490959029526207
1679688401148130,-0.4026550698100251,0.5307087815671014,0.7522697795071336
1679688401164110,-0.40656137941557935,0.5475547417410542,0.749584191653315
1679688401180090,-0.38593118181124586,0.53339436942092,0.7614251926451514
1679688401196070,-0.4131532768749522,0.6033417257953761,0.7291981383993287
1679688401212051,-0.4181582360570686,0.5612268253604942,0.7454337376974136
1679688401228031,-0.4235294117647057,0.5641565575646599,0.75727473868925
1679688401244011,-0.43781185626001395,0.5785610742351412,0.7815671015487906
1679688401259991,-0.4635690852216374,0.5960173952849619,0.8115968566414891
1679688401275972,-0.46637674525062955,0.6171358815899897,0.8322270542458226
1679688401291952,-0.47724116884107737,0.6359349965667205,0.8842298008697647
1679688401307932,-0.4984817273212787,0.654001678492409,0.9512474250400551
1679688401323912,-0.5156939040207522,0.6040741588464176,1.0648966201266497
1679688401339892,-0.5071488517586022,0.5396200503547721,1.0987106126497288
1679688401355873,-0.4762645914396888,0.508369573510338,1.0623331044480047
1679688401371853,-0.41327534905012575,0.46210421911955457,0.9635767147325858
1679688401387833,-0.38886091401541156,0.31781490806439283,1.001907377737087
1679688401403813,-0.3441824979018846,0.41351949340047334,0.8654306858930338
1679688401419799,-0.24127565423056385,0.468818188754101,0.6709697108415353
1679688401435780,-0.15545891508354304,0.39081406881818914,0.5519493400473028
1679688401451760,-0.09784084840161755,0.2503089951934081,0.5237506675822079
1679688401467740,-0.06793316548409267,0.1890287632562755,0.5415732051575493
1679688401483720,-0.05951018539711583,0.1965972381170369,0.6012664988174254
1679688401499701,-0.06024261844815726,0.2293125810635539,0.6817120622568096
1679688401515681,-0.07757686732280478,0.29413290608072007,0.789135576409552
1679688401531661,-0.10345616845960182,0.3808041504539563,0.9181658655680174
1679688401547641,-0.12713817044327458,0.47565423056382095,1.0257114518959334
1679688401563622,-0.1366598001068131,0.5289997711146714,1.0978561074235138
1679688401579602,-0.12103456168459603,0.5250934615091172,1.1156786449988552
1679688401595582,-0.08575570305943403,0.49958037689784085,1.076493476768139
1679688401611562,-0.05743495841916513,0.4931105516136416,0.9986114290074006
1679688401627543,-0.03790341039139378,0.48773937590600447,0.9162127107652402
1679688401643523,-0.030090791180285237,0.47602044708934166,0.8493171587701225
1679688401659503,-0.029968719005111666,0.4669871061264974,0.8152590218966962
1679688401675483,-0.051941710536354435,0.4498970016021975,0.8202639810788126
1679688401691464,-0.0820935378042269,0.42267490653849116,0.8565194171053632
1679688401707444,-0.11847104600595104,0.4044861524376291,0.9009536888685439
1679688401723424,-0.15374990463111304,0.39325551232166056,0.9455100328068973
1679688401739380,-0.18353551537346435,0.3822690165560392,0.9781033035782407
1679688401755360,-0.19964904249637616,0.3714045929655905,0.983718623636225
1679688401771340,-0.21319905394064254,0.37982757305256776,0.9719996948195622
1679688401787320,-0.22601663233386748,0.3936217288471813,0.9568627450980394
1679688401803300,-0.23443961242084388,0.38580910963607273,0.9577172503242544
1679688401819281,-0.22455176623178463,0.37518883039597206,0.9452658884565501
1679688401835261,-0.20514229037918685,0.3776302738994435,0.9141374837872895
1679688401851241,-0.18927290760662263,0.39447623407339627,0.8823987182421611
1679688401867221,-0.17962920576791008,0.3972838941023884,0.8668955519951167
1679688401883202,-0.17169451438162797,0.389715419241627,0.8638437476157774
1679688401899182,-0.16119630731670087,0.38153658350499775,0.8661631189440753
1679688401915162,-0.15704585336079946,0.37152666514076405,0.8826428625925082
1679688401931142,-0.1610742351415273,0.3667658503089948,0.914869916838331
1679688401947123,-0.17608911268787653,0.37482261387045046,0.9599145494773786
1679688401963103,-0.20221255817502115,0.40216678110933124,0.9997100785839628
1679688401979083,-0.22784771496147105,0.43439383535515397,1.0117952239261463
1679688401995063,-0.23651483939879459,0.4494087129015032,0.9947051194018464
1679688402011044,-0.23260852979324032,0.4254825665674833,0.9643091477836272
1679688402027024,-0.22711528191042962,0.39447623407339627,0.9302510109102009
1679688402043004,-0.2213778896772718,0.3695735103379869,0.8928969253070882
1679688402058990,-0.21783779659723823,0.3570000762951091,0.8651865415426867
1679688402074970,-0.22540627145799963,0.351628900587472,0.8568856336308839
1679688402090951,-0.2313878080415046,0.35211718928816627,0.8590829327840082
1679688402106931,-0.24261844815747313,0.3571221484702827,0.8904554818036168
1679688402122911,-0.2533607995727474,0.35883115892271267,0.9326924544136723
1679688402138891,-0.2583657587548638,0.3548027771419848,0.9680933852140079
1679688402154872,-0.25592431525139236,0.3590753032730598,0.9789578088044557
1679688402170852,-0.2494544899671931,0.3762874799725342,0.966628519111925
1679688402186832,-0.24042114900434886,0.3875181200885027,0.949294270237278
1679688402202812,-0.2305333028152896,0.383733882658122,0.936476691844053
1679688402218793,-0.22247653925383393,0.37360189211871475,0.9243915465018695
1679688402234773,-0.2150301365682461,0.36847486076142477,0.9118181124589917
1679688402250753,-0.20880445563439398,0.3721370260166319,0.8993667505912875
1679688402266733,-0.20648508430609613,0.38153658350499775,0.8897230487525754
1679688402282714,-0.21149004348821254,0.3859311818112463,0.8847180895704589
1679688402298694,-0.21441977569237824,0.3757991912718399,0.8909437705043111
1679688402314674,-0.21515220874341967,0.3640802624551762,0.9005874723430232
1679688402330654,-0.21393148699168396,0.3523613336385134,0.9104753185320824
1679688402346634,-0.20880445563439398,0.3497978179598684,0.9134050507362481
1679688402362615,-0.20599679560540185,0.3696955825131605,0.9214618142977038
1679688402378570,-0.20526436255436042,0.39118028534370985,0.929640650034333
1679688402394550,-0.21271076523994825,0.42304112306401187,0.9368429083695737
1679688402410531,-0.22186617837796607,0.4358587014572368,0.9451438162813766
1679688402426511,-0.2263828488593882,0.4270695048447397,0.9497825589379723
1679688402442491,-0.22906843671320676,0.4061951628900591,0.9402609292744337
1679688402458471,-0.2305333028152896,0.38580910963607273,0.9336690318150609
1679688402474452,-0.23492790112153816,0.3733577477683676,0.9302510109102009
1679688402490432,-0.23578240634775316,0.37152666514076405,0.9264667734798202
1679688402506412,-0.2305333028152896,0.3775082017242699,0.9142595559624631
1679688402522392,-0.2129549095902954,0.3771419851987492,0.8976577401388575
1679688402538373,-0.20086976424811187,0.3805600061036092,0.881300068665599
1679688402554353,-0.19171435111009405,0.3889829861905856,0.8678721293965053
1679688402570333,-0.19330128938735047,0.39923704890516554,0.8668955519951167
1679688402586313,-0.19671931029221046,0.40204470893415767,0.8798352025635161
1679688402602294,-0.205386434729534,0.39911497672999197,0.8942397192339975
1679688402618274,-0.20880445563439398,0.39166857404440414,0.9015640497444117
1679688402634254,-0.20819409475852613,0.37567711909666635,0.9000991836423289
1679688402650234,-0.20465400167849257,0.3670099946593419,0.8905775539787903
1679688402666215,-0.2083161669336997,0.37445639734492975,0.8925307087815675
1679688402682195,-0.2246738384069582,0.3902037079423213,0.9147478446631574
1679688402698181,-0.24933241779201953,0.4196231021591519,0.9401388570992602
1679688402714161,-0.28070496681162727,0.46637674525062955,0.9611352712291144
1679688402730141,-0.3189135576409554,0.5170366979476615,0.9710231174181736
1679688402746122,-0.3513847562371253,0.5501182574196992,0.964919508659495
1679688402762102,-0.3676203555352102,0.5650110627908749,0.951003280689708
1679688402778082,-0.3591973754482338,0.4867627985046159,0.952712291142138
1679688402794062,-0.3823910887312123,0.388006408789197,0.9713893339436943
1679688402810042,-0.3996032654306858,0.4103456168459605,0.98286411841001
1679688402826023,-0.38348973830777444,0.4822461280231938,0.9829861905851836
1679688402842003,-0.3579766536964981,0.5121538109407187,0.9922636758983749
1679688402857983,-0.32587167162584896,0.5098344396124208,0.9838406958113985
1679688402873963,-0.2885175860227358,0.4776073853665981,0.9546654459449151
1679688402889944,-0.2520180056458381,0.4320744640268561,0.9129167620355538
1679688402905924,-0.22284275577935464,0.38397802700846917,0.8793469138628218
1679688402921904,-0.18963912413214334,0.34747844663157057,0.8583504997329667
1679688402937884,-0.14312962539101237,0.32733653772793136,0.8485847257190811
1679688402953865,-0.09991607537956826,0.31476310368505356,0.8395513847562368
1679688402969845,-0.05926604104676869,0.31464103150988,0.8496833752956432
1679688402985825,-0.036438544289310926,0.30511940184634145,0.8662851911192488
1679688403001805,-0.033630884260318794,0.28241397726405726,0.8947280079346918
1679688403017761,-0.03350881208514522,0.2592202639810788,0.9081559472037846
1679688403033741,-0.051941710536354435,0.22442969405661106,0.9259784847791259
1679688403049720,-0.0724498359655148,0.204531929503319,0.9333028152895402
1679688403065700,-0.08184939345387976,0.20465400167849257,0.9478294041351951
1679688403081680,-0.09491111619745185,0.18316929884794408,0.9805447470817121
1679688403097660,-0.10431067368581681,0.17486839093614126,1.007034409094377
1679688403113639,-0.10406652933546967,0.15851071946288275,1.0280308232242312
1679688403129619,-0.10516517891203181,0.14117647058823568,1.0375524528877698
1679688403145599,-0.09405661097123685,0.14593728542000495,1.0370641641870755
1679688403161579,-0.07171740291447337,0.16937514305333057,1.0270542458228427
1679688403177559,-0.04058899824521234,0.1914702067597469,1.0059357595178149
1679688403193538,-0.005676356145571049,0.22162203402761893,0.9870145723659114
1679688403209518,0.0016479743648432077,0.2562905317769131,0.9816433966582743
1679688403225498,-0.002868696116578917,0.29132524605172794,0.9805447470817121
1679688403241478,-0.01483176928358887,0.308659494926375,0.9829861905851836
1679688403257457,-0.03961242084382377,0.29047074082551294,0.9995880064087892
1679688403273437,-0.0791638056000612,0.2246738384069582,1.0413366903181505
1679688403289417,-0.12274357213702602,0.11151293202105705,1.097245746547646
1679688403305397,-0.17169451438162797,-0.013488975356679589,1.1781795986877244
1679688403321376,-0.2894941634241244,-0.28412298771648725,1.4717631799801634
1679688403337371,-0.30560769054703574,-0.2973067826352329,1.4739604791332876
1679688403353352,-0.3148851758602276,-0.21564049744411395,1.3631189440756843
1679688403369332,-0.2821698329137101,-0.15387197680628661,1.1804989700160222
1679688403385312,-0.239810788128481,-0.0017700465400167786,0.9932402532997635
1679688403401292,-0.2284580758373389,0.2003814755474176,0.8444342717631796
1679688403417273,-0.19183642328526762,0.3876401922636763,0.7234607461661708
1679688403433253,-0.10907148851758608,0.4979934386205844,0.6452124818799119
1679688403449233,0.02777141985198739,0.5383993286030364,0.609933623254749
1679688403465213,0.17230487525749627,0.563546196688792,0.6122529945830468
1679688403481194,0.31891355764095497,0.6170138094148161,0.6134737163347825
1679688403497174,0.4833447775997559,0.6729228656443125,0.6115205615320054
1679688403513154,0.6319066147859926,0.7476310368505379,0.6198214694438082
1679688403529134,0.7248035400930801,0.7967040512703134,0.6432593270771347
1679688403545115,0.75727473868925,0.7971923399710077,0.6648661020828568
1679688403561095,0.7454337376974136,0.7656977187762264,0.6887922484168767
1679688403577075,0.7062485694666973,0.710032806897078,0.695262073701076
1679688403593055,0.6537575341420618,0.5939421683070112,0.6942854962996874
1679688403609036,0.5790493629358355,0.4719920653086138,0.6963607232776381
1679688403625016,0.4973830777447166,0.3755550469214928,0.7122301060502023
1679688403640996,0.431830319676509,0.2936446173800258,0.7396963454642558
1679688403656952,0.38287937743190703,0.22528419928282606,0.7794918745708399
1679688403672931,0.35260547798886055,0.16559090562294987,0.8285648889906154
1679688403688911,0.3361257343404285,0.13043411917296144,0.8814221408407725
1679688403704891,0.3212329289692528,0.13287556267643286,0.9289082169832916
1679688403720871,0.3079270618753336,0.18927290760662263,0.968337529564355
1679688403736850,0.2838788433661401,0.28168154421301583,1.0088654917219806
1679688403752830,0.25897611963073164,0.3750667582207985,1.0412146181429769
1679688403768810,0.25262836652170595,0.4057068741893648,1.059403372243839
1679688403784790,0.2709391927977416,0.38568703746089916,1.047440299076829
1679688403800769,0.3014572365911343,0.3817807278553449,0.990554665445945
1679688403816749,0.3440604257267106,0.36810864423590406,0.9226825360494395
1679688403832729,0.3809262226291299,0.32660410467688994,0.8788586251621275
1679688403848709,0.40473029678797623,0.2936446173800258,0.8635996032654303
1679688403864688,0.4144960708018619,0.29462119478141435,0.8555428397039746
1679688403880668,0.41181048294804334,0.30780498970016,0.859693293659876
1679688403896648,0.40753795681696836,0.3217212176699471,0.8456549935149154
1679688403912628,0.4002136263065541,0.3380788891432056,0.8098878461890591
1679688403928608,0.40973525597009264,0.3306324864576178,0.7705806057831692
1679688403944587,0.42572671091783043,0.3145189593347064,0.74189364461738
1679688403960567,0.4384222171358818,0.3058518348973829,0.7472648203250172
1679688403976562,0.44159609369039465,0.29217975127794293,0.7791256580453192
1679688403992542,0.4463569085221639,0.2948653391317615,0.8258793011367969
1679688404008522,0.4635690852216374,0.3037766079194322,0.8539559014267182
1679688404024501,0.47479972533760595,0.3217212176699471,0.8698252841992824
1679688404040481,0.4898146028839552,0.35516899366750554,0.8603036545357439
1679688404056461,0.495551995117113,0.4061951628900591,0.836377508201724
1679688404072441,0.4893263141832609,0.4539253833829253,0.8164797436484319
1679688404088420,0.4650339513237203,0.49713893339436943,0.815869382772564
1679688404104400,0.424139772640574,0.5355916685740443,0.834668497749294
1679688404120380,0.37897306782635276,0.5460898756389714,0.867383840695811
1679688404136360,0.32904554818036136,0.5114213778896772,0.8985122453650725
1679688404152340,0.29169146257724865,0.44196231021591537,0.9093766689555203
1679688404168319,0.2704509040970473,0.3528496223392077,0.9077897306782639
1679688404184299,0.26190585183489734,0.2688639658197909,0.8930189974822618
1679688404200279,0.26361486228732733,0.21551842526894038,0.8771496147096975
1679688404216259,0.26813153276874946,0.20904859998474112,0.8722667277027538
1679688404232238,0.27570000762951086,0.2630045014114595,0.8743419546807045
1679688404248218,0.27313649195086587,0.3864194705119406,0.8861829556725418
1679688404264198,0.24689097428854812,0.5365682459754328,0.9193865873197531
1679688404280178,0.2229648279545282,0.603097581445029,0.9739528496223393
1679688404296142,0.2121004043640804,0.5713588158999006,1.024979018844892
1679688404312122,0.21771572442206466,0.5138628213931486,1.0199740596627755
1679688404328102,0.22394140535591678,0.45722133211261173,0.9738307774471657
1679688404344082,0.23822384985122458,0.393987945372702,0.9087663080796524
1679688404360061,0.24835584039063097,0.3460135805294877,0.8457770656900889
1679688404376041,0.25848783093003735,0.3272144655527578,0.8023193713282977
1679688404392021,0.26556801709010447,0.3375906004425113,0.7914549477378499
1679688404408001,0.2650797283894102,0.37775234607461705,0.8119630731670098
1679688404423980,0.24872205691615168,0.4368352788586254,0.8599374380102232
1679688404439960,0.22565041580834677,0.48273441672388806,0.9202410925459681
1679688404455940,0.2083161669336997,0.48114747844663164,0.9658960860608836
1679688404471920,0.1973296711680783,0.4409857328145268,0.9860379949645228
1679688404487899,0.1914702067597469,0.3787289234760056,0.98457312886244
1679688404503879,0.18841840238040763,0.3360036621652549,0.9590600442511636
1679688404519859,0.18512245365072122,0.32697032120241065,0.914869916838331
1679688404535839,0.18548867017624193,0.33502708476386633,0.868238345922026
1679688404551818,0.19330128938735047,0.3325856412603949,0.8299076829175247
1679688404567798,0.20587472343022828,0.3346608682383456,0.8129396505683983
1679688404583778,0.21307698176546896,0.3729915312428469,0.8009765774013884
1679688404599758,0.21063553826199755,0.432684824902724,0.803662165255207
1679688404615753,0.19549858854047475,0.4787060349431602,0.8391851682307161
1679688404631733,0.17071793698023985,0.5061722743572137,0.8885023270008396
1679688404647712,0.1474021515220878,0.5139848935683222,0.9309834439612423
1679688404663692,0.1301899748226143,0.49408712901503016,0.9550316624704358
1679688404679672,0.11395437552452847,0.46930647745479526,0.9605249103532465
1679688404695652,0.09710841535057568,0.45294880598153675,0.9519798580910965
1679688404711631,0.08184939345387932,0.4351262684061954,0.9392843518730452
1679688404727611,0.07257190814068792,0.4254825665674833,0.9259784847791259
1679688404743591,0.06475928892957938,0.4341496910048068,0.9010757610437174
1679688404759571,0.048035400930800165,0.4501411459525446,0.8803234912642104
1679688404775550,0.032288090333409514,0.4456244754711225,0.8705577172503238
1679688404791530,0.0252079041733424,0.4367132066834518,0.8649423971923396
1679688404807510,0.022034027618829555,0.4385442893110554,0.8524910353246353
1679688404823490,0.025818265049210254,0.45294880598153675,0.8335698481727318
1679688404839470,0.0214236667429617,0.4741893644617381,0.8238040741588462
1679688404855449,0.008117799649042468,0.49616235599298086,0.8435797665369646
1679688404871429,-0.007629510948348184,0.5154497596704051,0.8776379034103918
1679688404887409,-0.028625925078202386,0.5449912260624092,0.9084000915541317
1679688404903389,-0.06439307240405912,0.5706263828488591,0.9342793926909287
1679688404919368,-0.09832913710231184,0.576363775082017,0.9478294041351951
1679688404935363,-0.13409628442816812,0.5724574654764627,0.9448996719310294
1679688404951343,-0.16473640039673443,0.5585412375066756,0.9314717326619366
1679688404967323,-0.19000534065766406,0.527412832837415,0.9228046082246131
1679688404983303,-0.2091706721599147,0.48236820019836735,0.9164568551155874
1679688404999282,-0.21515220874341967,0.4385442893110554,0.903761348897536
1679688405015262,-0.20563057907988114,0.4024109254596784,0.8710460059510181
1679688405031242,-0.18439002059967935,0.37445639734492975,0.8288090333409626
1679688405047222,-0.16534676127260228,0.34125276569771845,0.8003662165255205
1679688405063202,-0.16632333867399085,0.2999923704890515,0.7948729686427098
1679688405079181,-0.18744182497901862,0.26434729533836876,0.8170901045242998
1679688405095161,-0.22223239490348679,0.22980086976424818,0.8482185091935603
1679688405111141,-0.2175936522468911,0.1386129549095907,0.8548104066529332
1679688405127121,-0.2124666208896011,0.18988326848249049,0.7686274509803921
1679688405143100,-0.29169146257724865,0.5122758831158922,0.6344701304646376
1679688405159080,-0.3858091096360723,0.8550545510032803,0.5723353933012891
1679688405175060,-0.42597085526817713,0.9748073548485543,0.6146944380865182
1679688405191040,-0.4273136491950864,0.9748073548485543,0.7017318989852752
1679688405207019,-0.40949111161974505,0.9732204165712979,0.779736018921187
1679688405222999,-0.382757305256733,0.9630884260318915,0.8302738994430454
1679688405238979,-0.36530098420691237,0.9440451667048144,0.8509040970473789
1679688405254974,-0.3596856641489281,0.9259784847791259,0.8394293125810632
1679688405270954,-0.36163881895170524,0.8767833981841768,0.800244144350347
1679688405286934,-0.355168993667506,0.7880369268329899,0.7445792324711986
1679688405302913,-0.34723430228122387,0.7204089417868316,0.6801251239795532
1679688405318893,-0.3419851987487603,0.6697489890897996,0.6201876859693289
1679688405334873,-0.3362478065156025,0.6262912947280084,0.5725795376516363
1679688405350853,-0.34528114747844674,0.5915007248035398,0.5620813305867092
1679688405366832,-0.3693293659876402,0.5595178149080642,0.5984588387884333
1679688405382812,-0.3937438010223544,0.5504844739452199,0.6439917601281762
1679688405398792,-0.41791409170672145,0.5600061036087585,0.6859845883878846
1679688405414772,-0.43817807278553467,0.5774624246585791,0.7227283131151294
1679688405430751,-0.45844205386434744,0.593698023956664,0.7454337376974136
1679688405446731,-0.4745555809872588,0.6063935301747154,0.7631342030975814
1679688405462711,-0.47431143663691167,0.6126192111085675,0.7616693369954985
1679688405478691,-0.4569771877622646,0.6045624475471119,0.7384756237125201
1679688405494670,-0.4340276188296328,0.6034637979705497,0.7031967650873581
1679688405510650,-0.40863660639353006,0.6026092927443347,0.6736552986953539
1679688405526630,-0.3828793774319066,0.5951628900587469,0.6537575341420618
1679688405542610,-0.35736629282063026,0.5923552300297548,0.6366674296177619
1679688405558590,-0.3454032196536203,0.610788128480964,0.6143282215609975
1679688405574554,-0.34027618829633033,0.635202563515679,0.5925993743801019
1679688405590534,-0.36078431372549025,0.6625467307545589,0.5991912718394747
1679688405606514,-0.39569695582513154,0.683299000534066,0.6465552758068212
1679688405622493,-0.4396429388876175,0.6964827954528117,0.7119859616998552
1679688405638473,-0.47431143663691167,0.6956282902265967,0.7630121309224078
1679688405654453,-0.49616235599298086,0.6801251239795532,0.784863050278477
1679688405670433,-0.5022659647516594,0.6511940184634168,0.7658197909514
1679688405686412,-0.48322270542458234,0.6203097581445025,0.7189440756847487
1679688405702392,-0.4573434042877853,0.5972381170366976,0.6588845654993518
1679688405718372,-0.44110780498970037,0.5924773022049283,0.6140840772106504
1679688405734352,-0.44916456855115605,0.5807583733882655,0.6214084077210646
1679688405750332,-0.4632028686961167,0.5683070115205613,0.6652323186083775
1679688405766311,-0.48773937590600447,0.575509269855802,0.7300526436255437
1679688405782291,-0.5203326466773479,0.5762417029068434,0.8065918974593727
1679688405798271,-0.5386434729533836,0.5672083619439992,0.8573739223315782
1679688405814251,-0.5331502250705729,0.578927290760662,0.8607919432364382
1679688405830230,-0.5114213778896772,0.6023651483939876,0.8383306630045011
1679688405846210,-0.47736324101625094,0.6098115510795754,0.796826123445487
1679688405862190,-0.4373235675593192,0.6070038910505833,0.7455558098725872
1679688405878170,-0.3942320897230487,0.605661097123674,0.6889143205920503
1679688405894165,-0.35065232318608386,0.6081025406271454,0.6415503166247047
1679688405910144,-0.3154955367360954,0.6104219119554433,0.6194552529182875
1679688405926124,-0.2804608224612801,0.5974822613870447,0.6154268711375597
1679688405942104,-0.26019684138246735,0.5825894560158691,0.6338597695887698
1679688405958084,-0.24798962386511025,0.5775844968337527,0.6580300602731368
1679688405974063,-0.24786755168993668,0.5884489204242005,0.6795147631036853
1679688405990043,-0.2482337682154574,0.6060273136491947,0.7001449607080188
1679688406006023,-0.25812161440451664,0.6344701304646376,0.7229724574654766
1679688406022003,-0.2717936980239566,0.6662088960097661,0.7421377889677272
1679688406037983,-0.29169146257724865,0.6804913405050739,0.7542229343099107
1679688406053962,-0.306950484473945,0.6840314335851074,0.7575188830395971
1679688406069942,-0.32086671244373255,0.6869611657892731,0.7407949950408179
1679688406085922,-0.33258564126039536,0.6851300831616696,0.722850385290303
1679688406101902,-0.3446707866025789,0.6776836804760817,0.7011215381094074
1679688406117881,-0.3436942092011903,0.6221408407721061,0.677317463950561
1679688406133861,-0.3239185168230718,0.5196002136263065,0.6592507820248725
1679688406149841,-0.30548561837186217,0.4251163500419626,0.6624246585793854
1679688406165821,-0.2924238956282901,0.3367360952162963,0.693553063248646
1679688406181800,-0.2608072022583352,0.25128557259479667,0.7333485923552301
1679688406197780,-0.22711528191042962,0.24286259250782027,0.7549553673609521
1679688406213745,-0.19586480506599546,0.2990157930876629,0.747875181200885
1679688406229725,-0.21612878614480824,0.496406500343328,0.7183337148088809
1679688406245704,-0.3319752803845275,0.8185549706263826,0.7005111772335395
1679688406261684,-0.4612497138933396,1.047440299076829,0.7438467994201572
1679688406277664,-0.5463340199893185,1.0506141756313419,0.8341802090485997
1679688406293644,-0.578194857709621,0.9049820706492717,0.908888380254826
1679688406309623,-0.5949187457084002,0.7718013275349049,0.9176775768673231
1679688406325603,-0.5944304570077059,0.6226291294728004,0.9008316166933703
1679688406341583,-0.5907682917524988,0.500679026474403,0.8659189745937281
1679688406357563,-0.5774624246585796,0.4409857328145268,0.813305867093919
1679688406373542,-0.5667200732433053,0.43024338139925256,0.7541008621347371
1679688406389522,-0.5551232166018156,0.4414740215152211,0.7075913633936066
1679688406405502,-0.546211947814145,0.46210421911955457,0.6857404440375374
1679688406421482,-0.5348592355230029,0.4649118791485467,0.678171969176776
1679688406437461,-0.5293659876401922,0.4530708781567103,0.673899443045701
1679688406453441,-0.5125200274662394,0.42475013351644186,0.6647440299076832
1679688406469421,-0.49579613946746015,0.36017395284962195,0.6742656595712218
1679688406485401,-0.4302433813992521,0.2410315098802167,0.6896467536430917
1679688406501381,-0.3148851758602276,0.13287556267643286,0.6837872892347603
1679688406517360,-0.23065537499046318,0.11371023117418133,0.679026474402991
1679688406533355,-0.205386434729534,0.2318760967421989,0.6666971847104604
1679688406549335,-0.24200808728160528,0.4581979095140003,0.6592507820248725
1679688406565315,-0.33295185778591607,0.74531166552224,0.6780498970016025
1679688406581295,-0.4147402151522086,0.9044937819485774,0.7392080567635615
1679688406597274,-0.46515602349889384,0.8762951094834825,0.8393072404058897
1679688406613254,-0.4816357671473259,0.7473868925001907,0.919142442969406
1679688406629234,-0.49042496375982303,0.648020141908904,0.9301289387350273
1679688406645214,-0.491279468986038,0.5375448233768214,0.8964370183871218
1679688406661193,-0.5072709239337758,0.46100556954299243,0.8474860761425189
1679688406677173,-0.5465781643396657,0.4456244754711225,0.7989013504234377
1679688406693153,-0.5802700846875717,0.45465781643396674,0.7631342030975814
1679688406709133,-0.605783169298848,0.45246051728084247,0.7422598611429008
1679688406725113,-0.6135957885099566,0.4184023804074162,0.7256580453192951
1679688406741092,-0.6116426337071794,0.3816586556801713,0.7035629816128788
1679688406757072,-0.5983367666132602,0.3469901579308763,0.6911116197451745
1679688406773052,-0.5779507133592738,0.30389868009460574,0.6929427023727781
1679688406789032,-0.5589074540321963,0.2743572137026016,0.7096665903715573
1679688406805011,-0.5473105973907071,0.26898603799496446,0.7359121080338751
1679688406820991,-0.5482871747920957,0.2969405661097122,0.7588616769665064
1679688406836971,-0.5530479896238649,0.3583428702220184,0.7781490806439306
1679688406852935,-0.5518272678721292,0.41095597772182835,0.8007324330510412
1679688406868915,-0.5396200503547721,0.44782177462424677,0.8213626306553747
1679688406884895,-0.5182574196993972,0.4597848477912567,0.8289311055161361
1679688406900875,-0.4862745098039216,0.4494087129015032,0.8253910124361026
1679688406916854,-0.4569771877622646,0.4337834744792861,0.8179446097505148
1679688406932834,-0.4385442893110554,0.44672312504768463,0.8012207217517355
1679688406948814,-0.43476005188067424,0.4767528801403831,0.7873044937819484
1679688406964794,-0.4417181658655682,0.4898146028839552,0.7808346684977492
1679688406980774,-0.4586861982146946,0.49713893339436943,0.7777828641184099
1679688406996753,-0.4712596322575724,0.48029297322041664,0.7739986266880292
1679688407012733,-0.4758983749141681,0.4536812390325782,0.7722896162355992
1679688407028713,-0.49164568551155874,0.4401312275883118,0.7714351110093842
1679688407044693,-0.508369573510338,0.422430762188144,0.7665522240024414
1679688407060672,-0.5145952544441901,0.3950865949492641,0.7591058213168536
1679688407076652,-0.5077592126344701,0.36102845807583694,0.7500724803540093
1679688407092632,-0.49237811856260016,0.32611581597619566,0.7527580682078279
1679688407108612,-0.47443350881208524,0.3074387731746393,0.7566643778133821
1679688407124591,-0.46308079652094314,0.31488517586022713,0.75727473868925
1679688407140571,-0.45123979552910676,0.34003204394598274,0.7614251926451514
1679688407156551,-0.4446478980697339,0.3814145113298242,0.7672846570534828
1679688407172546,-0.4446478980697339,0.4242618448157476,0.7697261005569542
1679688407188526,-0.4527046616311896,0.4649118791485467,0.7747310597390706
1679688407204506,-0.4686961165789274,0.498115510795758,0.7775387197680628
1679688407220485,-0.47907225146868093,0.49994659342336156,0.7844968337529563
1679688407236465,-0.4831006332494088,0.48566414892805376,0.7807125963225756
1679688407252445,-0.48957045853360803,0.48187991149767306,0.7698481727321278
1679688407268425,-0.4997024490730144,0.48395513847562377,0.7562981612878614
1679688407284404,-0.5043411917296101,0.4729686427100024,0.7393301289387351
1679688407300384,-0.5018997482261387,0.458564126039521,0.7226062409399558
1679688407316364,-0.497261005569543,0.457709620813306,0.711741817349508
1679688407332344,-0.4967727168688487,0.46015106431677744,0.710032806897078
1679688407348323,-0.4988479438467994,0.46845197222858026,0.7259021896696423
1679688407364303,-0.5047074082551308,0.4783398184176395,0.7467765316243229
1679688407380283,-0.5044632639047837,0.49201190203707945,0.7678950179293507
1679688407396263,-0.5011673151750973,0.5160601205462729,0.7727779049362935
1679688407412243,-0.4901808194094759,0.5353475242236971,0.7621576256961928
1679688407428222,-0.4721141374837874,0.5551232166018156,0.7415274280918593
1679688407444202,-0.4439154650186925,0.5598840314335849,0.7167467765316244
1679688407460182,-0.4302433813992521,0.5742885481040663,0.6950179293507288
1679688407476162,-0.4329289692530707,0.6006561379415576,0.6725566491187918
1679688407492126,-0.43781185626001395,0.6144502937361711,0.6602273594262611
1679688407508106,-0.44757763027389963,0.6076142519264511,0.6660868238345925
1679688407524086,-0.4603952086671246,0.5925993743801019,0.671335927367056
1679688407540065,-0.4783398184176395,0.5800259403372241,0.6809796292057682
1679688407556045,-0.496406500343328,0.5692835889219499,0.6859845883878846
1679688407572025,-0.5147173266193636,0.5674525062943463,0.6822003509575039
1679688407588005,-0.5324177920195314,0.559273670557717,0.685008010986496
1679688407603984,-0.5430380712596321,0.5435263599603264,0.6775616083009082
1679688407619964,-0.5554894331273363,0.5281452658884564,0.6729228656443125
1679688407635944,-0.5669642175936525,0.5155718318455786,0.6701152056153203
1679688407651924,-0.5831998168917374,0.5098344396124208,0.6690165560387582
1679688407667904,-0.5943083848325323,0.5138628213931486,0.6620584420538647
1679688407683883,-0.6024872205691616,0.5159380483710994,0.6571755550469218
1679688407699863,-0.6019989318684673,0.5014114595254444,0.6551003280689711
1679688407715843,-0.5939421683070116,0.47772945754177165,0.6569314106965747
1679688407731823,-0.5818570229648281,0.45709925993743816,0.656565194171054
1679688407747802,-0.5736781872281989,0.45246051728084247,0.6586404211490047
1679688407763782,-0.5664759288929582,0.4573434042877853,0.6623025864042118
1679688407779762,-0.5663538567177846,0.47943846799420164,0.6566872663462275
1679688407795742,-0.5626916914625775,0.4821240558480202,0.6519264515144583
1679688407811737,-0.5624475471122299,0.4724803540093081,0.6455786984054326
1679688407827716,-0.5587853818570228,0.42975509269855827,0.6417944609750519
1679688407843696,-0.5340047302967879,0.3175707637140457,0.6442359044785233
1679688407859676,-0.501533531700618,0.15558098725871705,0.6391088731212333
1679688407875656,-0.48322270542458234,-0.06390478370336483,0.637766079194324
1679688407891636,-0.5105668726634622,-0.2121004043640804,0.6078583962767983
1679688407907615,-0.7139391165026323,-0.041565575646600905,0.5188677805752651
1679688407923595,-0.9615014877546351,0.2129549095902954,0.45429159990844603
1679688407939575,-1.1322804608224613,0.40875867856870407,0.4165712977798126
1679688407955555,-1.2714427405203326,0.609933623254749,0.4187685969329369
1679688407971534,-1.279255359731441,0.7377431906614786,0.4464789806973375
1679688407987514,-1.171587701228351,0.7456778820477608,0.4896925307087816
1679688408003494,-1.0183871213855191,0.6825665674830246,0.5297322041657129
1679688408019474,-0.87519645990692,0.6487525749599454,0.5485313191424428
1679688408035453,-0.7879148546578163,0.6746318760967425,0.5399862668802928
1679688408051433,-0.7301747158007172,0.7362783245593958,0.510078583962768
1679688408067413,-0.6822003509575034,0.7887693598840313,0.4674753948271917
1679688408083393,-0.6321507591363393,0.8006103608758677,0.430975814450294
1679688408099372,-0.6009002822919052,0.7803463797970549,0.40888075074387764
1679688408115352,-0.6002899214160373,0.75385671778439,0.4081483176928362
1679688408131347,-0.6222629129472801,0.713450827801938,0.4166933699549862
1679688408147327,-0.6320286869611658,0.6624246585793854,0.42279697871366473
1679688408163307,-0.6498512245365071,0.6015106431677726,0.4431830319676511
1679688408179287,-0.6616922255283435,0.5407186999313343,0.46344701304646385
1679688408195266,-0.6776836804760813,0.4796826123445488,0.4863965819790952
1679688408211246,-0.6913557640955217,0.42865644312199613,0.5018997482261387
1679688408227226,-0.7042954146639202,0.3959411001754791,0.5131303883421072
1679688408243206,-0.7161364156557566,0.3642023346303498,0.5285114824139772
1679688408259185,-0.7311512932021058,0.33453879606317205,0.5383993286030364
1679688408275165,-0.7456778820477608,0.31696040283817783,0.5451132982375828
1679688408291145,-0.7561760891126879,0.31354238193331785,0.5421835660334171
1679688408307125,-0.7610589761196307,0.3134203097581443,0.5391317616540778
1679688408323104,-0.7622796978713664,0.3136644541084914,0.5503624017700464
1679688408339084,-0.7514152742809186,0.31122301060502,0.5545128557259478
1679688408355064,-0.7406729228656443,0.3200122072175171,0.5582970931563285
1679688408371044,-0.7333485923552301,0.3423514152742806,0.5492637521934842
1679688408387024,-0.7345693141069658,0.3783627069504849,0.535957885099565
1679688408403003,-0.7400625619897765,0.4124208438239112,0.5272907606622415
1679688408418983,-0.7423819333180743,0.457709620813306,0.5120317387655451
1679688408434963,-0.7306630045014115,0.5353475242236971,0.47895017929350736
1679688408450927,-0.7146715495536737,0.5546349279011213,0.4489204242008089
1679688408466907,-0.7064927138170445,0.4334172579537654,0.47724116884107737
1679688408482887,-0.7591058213168536,0.2877851529716944,0.5759975585564963
1679688408498867,-0.8140383001449609,0.21319905394064254,0.6691386282139318
1679688408514846,-0.8333257038223851,0.28448920424200796,0.6779278248264289
1679688408530826,-0.825391012436103,0.37604333562218706,0.6316624704356455
1679688408546806,-0.8021972991531241,0.395696955825132,0.5875944151979855
1679688408562786,-0.7670405127031357,0.3557793545433734,0.566109712367437
1679688408578765,-0.7486076142519265,0.33453879606317205,0.5482871747920957
1679688408594745,-0.7445792324711986,0.340520332646677,0.5326619363698786
1679688408610725,-0.76752880140383,0.35883115892271267,0.52143129625391
1679688408626705,-0.7987792782482641,0.36945143816281334,0.5095902952620737
1679688408642685,-0.8181887541008623,0.3725032425421526,0.5004348821240558
1679688408658664,-0.8544441901274129,0.3495536736095213,0.5056839856565194
1679688408674644,-0.891676203555352,0.3209887846189057,0.5210650797283893
1679688408690624,-0.9333028152895397,0.32648203250171637,0.5283894102388036
1679688408706604,-0.9590600442511636,0.36310368505378765,0.5283894102388036
1679688408722583,-0.9585717555504694,0.4031433585107198,0.5192339971007858
1679688408738563,-0.9220721751735712,0.41144426642252263,0.5138628213931486
1679688408754543,-0.8787365529869535,0.42987716487373184,0.4893263141832609
1679688408770538,-0.8532234683756772,0.46088349736781886,0.46137178606851315
1679688408786518,-0.8133058670939195,0.4425726710917832,0.4489204242008089
1679688408802497,-0.7877927824826427,0.4179140917067219,0.43366140230411254
1679688408818477,-0.7714351110093842,0.37994964522774133,0.42438391699092115
1679688408834457,-0.7587396047913328,0.3230640115968564,0.424994277866789
1679688408850437,-0.7460440985732815,0.2763103685053787,0.4347600518806747
1679688408866417,-0.7354238193331808,0.242374303807126,0.43744563973449324
1679688408882396,-0.7339589532310979,0.22943465323872747,0.43903257801174966
1679688408898376,-0.7381094071869994,0.2296787975890746,0.44037537193865894
1679688408914356,-0.7471427481498436,0.24213015945677885,0.44000915541313823
1679688408930336,-0.7595941100175478,0.2847333485923551,0.4350041962310218
1679688408946315,-0.7794918745708399,0.3591973754482334,0.4356145571068897
1679688408962295,-0.7862058442053863,0.45624475471122317,0.44367132066834536
1679688408978275,-0.7858396276798656,0.5442587930113678,0.4535591668574046
1679688408994255,-0.7687495231555657,0.5906462195773248,0.46210421911955457
1679688409010234,-0.7467765316243229,0.6190890363927668,0.4716258487830931
1679688409026214,-0.730540932326238,0.6560769054703597,0.4762645914396888
1679688409042194,-0.7405508506904708,0.6863508049134053,0.47309071488517596
1679688409058174,-0.7484855420767529,0.6825665674830246,0.46930647745479526
1679688409074154,-0.756420233463035,0.6485084306095983,0.4644235904478524
1679688409090118,-0.7610589761196307,0.6045624475471119,0.45258258945601604
1679688409106098,-0.7642328526741435,0.5531700617990385,0.4376897840848404
1679688409122078,-0.7687495231555657,0.5070267795834287,0.419867246509499
1679688409138057,-0.7743648432135499,0.47357900358587024,0.39752803845273554
1679688409154037,-0.7785152971694513,0.4490424963759825,0.3783627069504849
1679688409170017,-0.7868162050812542,0.44574654764629607,0.3667658503089948
