Timestamp (microseconds),Gyro X (°/s),Gyro Y (°/s),Gyro Z (°/s)
1679688383841034,12.558175020981139,6.515602349889377,-3.341725795376533
1679688383857030,12.64972915236126,4.806591897459384,-2.5787747005416577
1679688383873026,13.473716334782921,4.592965590905578,-2.853437094682249
1679688383889021,13.595788509956492,5.2338445105668825,-3.8605325398641526
1679688383905017,12.985427634088637,5.386434729533789,-4.226749065384865
1679688383921013,9.872587167162578,3.799496452277367,-3.768978408484031
1679688383937009,3.097581445029391,1.4496070801861833,-3.585870145723675
1679688383953005,-6.240939955748786,-1.144426642252256,-3.8300144960708167
1679688383969001,-14.511329823758274,-3.9826047150377235,-3.9520866712443876
1679688383984997,-20.157167925535987,-5.874723430228073,-3.6469062333104603
1679688384000993,-20.76752880140384,-6.0578316929884295,-3.341725795376533
1679688384016989,-18.417639429312658,-4.470893415732007,-3.9826047150377235
1679688384032985,-15.091172655832679,-1.7242694743266611,-5.1117723353933116
1679688384048981,-11.764705882352928,0.5340657663844013,-5.50850690470736
1679688384064977,-11.795223926146264,0.22888532845047393,-3.9520866712443876
1679688384080973,-16.22034027618838,-2.6092927443351073,-1.2359807736323773
1679688384096969,-21.591515983825502,-5.142290379186647,2.059967956054038
1679688384112965,-26.71854734111548,-5.53902494850081,5.50850690470736
1679688384128961,-29.80086976424809,-4.409857328145222,9.231708247501274
1679688384144957,-30.319676508735824,-2.761882963302014,13.107499809262208
1679688384160919,-29.43465323872738,-1.9073777370870175,15.2437628747997
1679688384176915,-27.481498435950243,-2.334630350194516,16.647592889295765
1679688384192911,-23.575188830395973,-4.83710994125272,17.715724422064454
1679688384208907,-19.394216830701225,-7.766842145418423,18.783855954833257
1679688384224903,-18.63126573586635,-9.353780422674845,20.675974670023606
1679688384240899,-18.570229648279565,-9.842069123369129,22.049286640726223
1679688384256895,-21.011673151750983,-10.940718699931267,22.598611429007292
1679688384272891,-28.24444953078512,-16.22034027618838,21.9577325093461
1679688384288887,-37.308308537422704,-24.216067750057277,20.706492713816942
1679688384304883,-44.571602960250175,-30.014496070801897,18.173495078965402
1679688384320879,-49.30189974822622,-32.60852979324022,14.602883955138395
1679688384336875,-50.98039215686276,-34.073395895323074,11.123826962691624
1679688384352871,-50.73624780651562,-35.416189822232354,8.651865415426869
1679688384368867,-55.008773937590604,-37.12520027466235,8.07202258335235
1679688384384863,-62.45517662317843,-41.00099183642328,11.581597619592571
1679688384400859,-77.16487373159373,-46.25009536888683,16.769665064469336
1679688384416854,-94.46860456244758,-50.156404974441216,17.441062027923977
1679688384432850,-97.00160219729912,-53.17769130998704,15.060654612039343
1679688384448846,-76.15777828641183,-58.67093919279773,12.924391546501852
1679688384464842,-63.24864576180664,-64.86610208285651,8.74341954680699
1679688384480804,-69.41329060807197,-63.21812771801331,-1.6632333867398756
1679688384496800,-76.34088654917218,-54.581521324483106,-12.619211108567924
1679688384512795,-79.02647440299086,-45.151445792324694,-17.31898985275052
1679688384528791,-76.73762111848623,-40.817883573662925,-15.976195925841239
1679688384544786,-70.7866025787747,-41.336690318150545,-11.30693522545198
1679688384560782,-61.875333791104026,-42.801556420233396,-7.949950408178779
1679688384576777,-49.42397192339979,-41.15358205539019,-7.034409094376997
1679688384592773,-33.09681849393451,-35.538261997405925,-6.698710612649734
1679688384608768,-13.138017853055544,-27.57305256733048,-7.3090714885175885
1679688384624764,7.40062561989771,-18.020904859998495,-10.696574349584125
1679688384640759,23.208972304875147,-7.827878233005208,-15.793087663080883
1679688384656755,30.9605554283969,2.059967956054038,-15.793087663080883
1679688384672750,30.746929121843095,8.957045853360796,-8.438239108873063
1679688384688746,24.399176012817406,11.825741969939713,2.9449912260623705
1679688384704741,13.962005035477205,10.75761043717091,15.426871137560056
1679688384720737,5.294880598153668,7.888914320591994,23.819333180743
1679688384736732,1.2970168612191628,4.745555809872599,23.819333180743
1679688384752728,0.93080033569845,1.4801251239795192,17.410543984130527
1679688384768723,2.30411230640118,-2.0294499122605885,7.125963225757232
1679688384784719,3.7079423208972457,-4.654001678492364,-3.7079423208972457
1679688384800445,5.050736247806526,-5.355916685740453,-11.703669794766142
1679688384816440,5.264362554360218,-4.928664072632955,-14.938582436865772
1679688384832434,4.257267109178315,-4.226749065384865,-13.107499809262208
1679688384848429,0.8697642481116645,-2.548256656748322,-7.858396276798658
1679688384864423,-6.454566262302592,2.639810788128443,0.6561379415579722
1679688384880418,-15.487907225146841,12.436102845807568,14.419775692378039
1679688384896412,-25.34523537041275,27.145799954222866,32.42542153047998
1679688384912407,-41.06202792401007,48.87464713511872,54.06271457999537
1679688384928402,-70.7866025787747,81.62050812542907,86.1982146944381
1679688384944396,-115.80071717402916,122.39261463340199,134.63035019455242
1679688384960391,-159.0142671854734,160.0823987182423,180.28534370946818
1679688384976385,-186.7856870374609,189.25764858472576,197.74166475928882
1679688384992380,-180.7125963225758,202.2888532845045,183.18455786984055
1679688385008374,-148.18036163881902,193.37758449683383,147.05119401846332
1679688385024369,-88.45654993514916,158.46494239719254,102.70847638666373
1679688385040363,-18.722819867246585,102.89158464942398,64.74402990768294
1679688385056358,32.516975661860215,40.42114900434899,37.03364614328234
1679688385072353,59.739070725566535,-5.142290379186647,32.455939574273316
1679688385088347,95.109483482109,-32.730601968413794,25.07057297627216
1679688385104342,124.49835965514603,-36.17914091706723,21.71358815899896
1679688385120056,140.4592965590905,-26.077668421454177,1.4190890363927338
1679688385136049,129.99160753795672,-18.966964217593727,-27.389944304570122
1679688385152042,100.51117723353946,-15.426871137560056,-48.538948653391344
1679688385168035,61.35652704661629,-18.75333791103992,-53.940642404821915
1679688385184028,28.000305180437863,-25.13160906385906,-49.17982757305265
1679688385200021,11.520561532005786,-32.181277180132724,-43.99176012817577
1679688385216014,15.823605706874105,-39.62767986572055,-44.724193179217195
1679688385232008,29.8924238956281,-47.10460059510194,-48.264286259250866
1679688385248001,40.207522697795184,-52.567330434119185,-47.40978103303587
1679688385263994,31.23521782253738,-57.32814526588845,-39.07835507743948
1679688385279987,-5.416952773327239,-65.47646295872437,-27.481498435950243
1679688385295980,-46.890974288548136,-61.753261615930455,-22.69016556038764
1679688385311973,-73.04493781948577,-52.597848477912635,-21.927214465552765
1679688385327966,-76.09674219882504,-43.350881208514465,-23.056382085908353
1679688385343959,-59.6475165941863,-34.40909437705045,-22.323949034866928
1679688385359953,-39.597161821927216,-23.23949034866871,-20.614938582436935
1679688385375946,-24.124513618677042,-14.480811779964824,-17.929350728618374
1679688385391939,-8.651865415426869,-10.818646524757696,-14.511329823758274
1679688385407932,4.287785152971651,-7.0954451819637825,-10.940718699931267
1679688385423925,7.949950408178779,-1.6632333867398756,-4.348821240558436
1679688385439666,5.050736247806526,1.7547875181201107,3.555352101930225
1679688385455659,6.2714579995422355,-1.2054627298390415,8.22461280231937
1679688385471651,17.22743572137017,-11.581597619592571,3.8605325398641526
1679688385487643,41.85549706263828,-27.603570611123814,-10.269321736476627
1679688385503635,83.11589227130526,-42.64896620126649,-28.976882581826544
1679688385519627,128.22156099794006,-52.719920653086206,-44.174868390936126
1679688385535619,159.96032654306873,-60.83772030212867,-54.032196536202036
1679688385551612,175.31090257114533,-63.0045014114595,-62.11947814145117
1679688385567604,184.46631570916315,-62.76035706111236,-64.86610208285651
1679688385583596,180.10223544670794,-63.492790112153784,-58.57938506141761
1679688385599588,128.86243991760125,-48.691538872358365,-57.93850614175631
1679688385615580,68.37567711909674,-37.00312809948878,-87.60204470893416
1679688385631572,36.942092011902105,-31.998168917372368,-127.1839475089647
1679688385647565,23.788815136949665,-34.16495002670331,-150.46921492332342
1679688385663557,8.010986495765565,-45.63973449301898,-162.24917982757302
1679688385679549,-22.629129472800855,-61.23445487144272,-162.76798657206075
1679688385695541,-59.67803463797975,-80.61341268024728,-147.69207293812474
1679688385711533,-71.15281910429542,-101.82345311665517,-120.92774853131914
1679688385727525,-47.50133516441599,-121.20241092545973,-94.95689326314186
1679688385743518,-13.99252307927054,-139.8184176394293,-78.78233005264372
1679688385759277,2.1515220874341594,-160.6012054627298,-77.83627069504837
1679688385775268,-5.813687342641288,-184.52735179674983,-90.65384908827343
1679688385791259,-29.983978027008447,-207.08018616006723,-109.20881971465622
1679688385807251,-51.499198901350496,-221.14900434882122,-124.49835965514615
1679688385823242,-56.83985656519417,-222.67490653849086,-135.05760280766003
1679688385839233,-48.47791256580456,-218.15823605706873,-142.1072709239338
1679688385855224,-35.446707866025804,-215.07591363393612,-148.69916838330664
1679688385871215,-23.849851224536565,-217.82253757534147,-153.79568169680329
1679688385887207,-12.283512626840547,-222.61387045090407,-158.28183413443196
1679688385903198,5.355916685740453,-224.35339894712752,-162.61539635309373
1679688385919189,36.301213092240914,-218.58548867017623,-163.68352788586253
1679688385935180,70.3593499656672,-202.0752269779507,-156.6643778133822
1679688385951172,88.3649958037688,-177.7828641184101,-139.4522011139086
1679688385967163,85.2826733806362,-145.15907530327308,-113.23720149538417
1679688385983154,60.01373311970701,-107.77447165636681,-87.08323796444654
1679688385999145,12.558175020981139,-79.02647440299086,-64.25574120698866
1679688386015136,-39.07835507743948,-61.69222552834367,-42.130159456778756
1679688386031128,-67.49065384908829,-47.56237125200278,-21.74410620279241
1679688386047119,-64.19470511940187,-36.636911573968064,-6.851300831616641
1679688386063110,-43.106736858167324,-30.533302815289517,2.426184481574751
1679688386078888,-22.842755779354547,-25.986114290074056,7.461661707484495
1679688386094878,-14.785992217898752,-18.75333791103992,11.886778057526499
1679688386110869,-21.19478141451134,-8.07202258335235,20.06561379415575
1679688386126860,-36.331731136034136,2.9144731822690346,33.06630045014117
1679688386142851,-50.91935606927598,12.100404364080191,51.0109102006561
1679688386158841,-57.99954222934309,19.302662699320877,69.87106126497292
1679688386174832,-56.56519417105369,26.016632333867392,86.1371786068512
1679688386190823,-49.42397192339979,31.754024567025454,96.63538567177852
1679688386206813,-41.15358205539019,33.95132372014973,100.81635767147327
1679688386222804,-34.348058289463665,32.76112001220736,99.22941939421685
1679688386238795,-28.671702143892617,29.526207370107386,92.24078736552974
1679688386254786,-22.4460212100405,26.840619516288825,83.51262684061953
1679688386270776,-13.748378728923399,26.41336690318144,76.09674219882504
1679688386286767,-4.287785152971651,28.85481040665286,73.04493781948577
1679688386302758,2.8229190508887996,34.53116655222402,75.42534523537029
1679688386318749,3.6469062333104603,43.04570077058065,82.20035095750359
1679688386334739,-3.250171663996298,52.048523689631566,92.45441367208355
1679688386350730,-12.405584802014118,56.473640039673455,104.17334248874658
1679688386366721,-16.739147020676,54.82566567483036,111.28404669260703
1679688386382712,-13.534752422369706,51.0109102006561,111.34508278019393
1679688386398498,-6.790264744029855,48.142214084077295,106.09597924773038
1679688386414488,-0.106813153276903,44.90730144197755,98.55802243076232
1679688386430478,3.372243839169869,41.06202792401018,86.86961165789262
1679688386446468,3.250171663996298,35.62981612878616,75.51689936675052
1679688386462457,5.142290379186647,29.312581063553807,67.33806363012127
1679688386478447,14.969100480659108,26.99320973525596,60.53253986419463
1679688386494437,27.603570611123814,34.04287785152974,52.81147478446633
1679688386510427,34.04287785152974,46.738384069581116,45.88387884336612
1679688386526416,33.82925154497616,57.45021744106202,38.10177767605114
1679688386542406,29.67879758907452,61.783779659723905,32.394903486686644
1679688386558396,33.340962844281876,62.424658579385095,29.80086976424809
1679688386574386,43.930724040588984,57.02296482795464,33.737697413595924
1679688386590376,53.02510109102013,53.086137178606805,42.069123369192084
1679688386606365,52.41474021515228,53.269245441367275,55.008773937590604
1679688386622355,44.96833752956445,52.59784847791252,73.10597390707244
1679688386638345,35.019455252918306,48.2948043030442,91.38628213931474
1679688386654335,23.84985122453645,37.36934462500972,106.79789425497825
1679688386670324,17.868314641031475,18.99748226138695,113.48134584573131
1679688386686314,25.833524071106922,-5.2338445105668825,108.20172426947443
1679688386702304,45.91439688715968,-28.091859311818098,96.51331349660495
1679688386718109,65.01869230182342,-32.883192187380814,82.62760357061097
1679688386734098,71.58007171740292,-15.915159838254453,68.16205081254293
1679688386750086,64.59143968871604,11.33745326924543,54.15426871137561
1679688386766075,52.170595864805136,34.256504158083544,41.550316624704465
1679688386782064,46.12802319371326,42.28274967574589,31.692988479438554
1679688386798053,53.87960631723513,30.83848325322333,27.267872129396437
1679688386814042,75.30327306019672,4.623483634699028,25.864042114900258
1679688386830031,98.40543221179541,-22.598611429007406,24.155031662470265
1679688386846019,110.85679407949965,-36.97261005569544,25.528343633173108
1679688386862008,111.16197451743346,-25.558861676966558,31.50988021667831
1679688386877997,99.8397802700847,16.739147020675887,42.893110551613745
1679688386893986,85.31319142442953,84.79438467994191,60.19684138246748
1679688386909975,71.24437323567554,161.18104829480444,82.10879682612335
1679688386925964,61.203936827649386,219.22636758983754,101.88448920424207
1679688386941952,61.5091172655832,248.6762798504617,113.54238193331821
1679688386957941,69.50484473945221,252.1858548867017,116.07537956816964
1679688386973930,76.49347676813909,239.8260471503777,109.5445181963837
1679688386989919,72.03784237430386,218.92118715190372,96.9710841535059
1679688387005908,61.81429770351724,194.20157167925527,83.26848249027239
1679688387021896,71.61058976119625,157.76302738994445,72.73975738155173
1679688387037719,72.77027542534529,106.21805142290395,50.09536888685443
1679688387053708,44.2969405661097,52.048523689631566,24.795910582131683
1679688387069696,21.774624246585745,4.898146028839506,2.9144731822690346
1679688387085684,25.46730754558621,-29.190508888380236,-14.084077210650776
1679688387101673,39.627679865720665,-48.2948043030442,-30.014496070801897
1679688387117661,51.16350041962323,-54.09323262378882,-49.17982757305265
1679688387133649,46.76890211337468,-45.57869840543219,-69.81002517738614
1679688387149638,37.97970550087757,-20.462348363469914,-90.22659647516593
1679688387165626,42.55741206988637,15.640497444113748,-103.59349965667195
1679688387181615,46.25009536888683,54.88670176241703,-104.53955901426718
1679688387197603,45.151445792324694,93.49202716105879,-91.26420996414129
1679688387213591,32.42542153047998,131.70061799038672,-64.286259250782
1679688387229580,-1.5716792553597543,171.3740749217975,-39.78027008468757
1679688387245568,-77.9278248264286,207.75158312352164,-24.03295948729692
1679688387261556,-182.97093156328685,232.99000534065772,-14.175631342030897
1679688387277545,-258.3199816891737,238.60532539864198,-4.287785152971651
1679688387293533,-281.54421301594573,205.82894636453807,-4.623483634699028
1679688387309521,-266.102082856489,137.49904631113145,-24.399176012817634
1679688387325510,-217.36476691844052,52.23163195239181,-47.470817120622655
1679688387341498,-134.84397650110623,-25.986114290074056,-62.63828488593879
1679688387357360,-68.34515907530329,-84.03143358510727,-64.01159685664152
1679688387373348,-34.317540245670216,-97.82558937972078,-53.54390783550775
1679688387389336,-4.531929503318793,-74.11306935225446,-38.55954833295186
1679688387405324,15.976195925841125,-24.185549706263828,-34.775310902571164
1679688387421312,25.925078202487157,33.76821545738926,-41.73342488746471
1679688387437300,35.41618982223258,112.41321431296251,-62.02792401007093
1679688387453288,75.51689936675052,179.40032043945985,-82.13931486991692
1679688387469276,128.16052491035316,234.45487144274057,-75.05912870984969
1679688387485263,167.6508735790037,251.05668726634622,-35.78240634775307
1679688387501251,195.54436560616455,224.4754711223011,-7.40062561989771
1679688387517239,216.17456321049804,186.20584420538648,-23.422598611429066
1679688387533227,239.79552910658435,173.69344625009535,-77.74471656366825
1679688387549215,258.960860608835,190.295262073701,-139.72686350804906
1679688387565203,248.7678339818417,200.1525902189669,-175.12779430838486
1679688387581191,207.4158846417945,166.5827420462349,-161.60830090791183
1679688387597179,152.91065842679473,75.82207980468456,-105.66872663462266
1679688387613166,97.764553292134,-35.20256351567866,-37.94918745708401
1679688387629154,46.76890211337468,-118.48630502784772,17.624170290684333
1679688387645142,-1.2970168612191628,-157.39681086442363,53.57442587930109
1679688387661130,-47.25719081406885,-159.86877241168838,71.61058976119625
1679688387676971,-88.94483863584344,-135.05760280766003,80.12512397955288
1679688387692958,-113.66445410849167,-88.9143205920501,78.17196917677575
1679688387708945,-116.13641565575654,-37.430380712596275,69.19966430151817
1679688387724932,-110.49057755397882,3.0670634012359415,59.89166094453344
1679688387740919,-97.36781872281983,25.00953688868526,53.57442587930109
1679688387756906,-67.12443732356758,32.42542153047998,51.31609063859014
1679688387772893,-18.844892042420156,37.064164187075676,54.24582284275584
1679688387788879,35.11100938429854,44.78522926680398,57.41969939726869
1679688387804866,69.9320973525596,53.788052185854895,49.54604409857325
1679688387820853,71.64110780498959,64.37781338216223,29.221026932173572
1679688387836840,64.22522316319532,79.60631723506526,1.6937514305333252
1679688387852827,68.37567711909674,92.1492332341495,-21.77462424658586
1679688387868814,74.60135805294885,93.67513542381926,-38.83421072709234
1679688387884801,92.48493171587688,90.01297016861213,-48.35584039063099
1679688387900788,120.56153200579843,87.87670710307452,-43.259327077134344
1679688387916775,124.80354009308007,80.52185854886693,-23.971923399710136
1679688387932762,83.81780727855335,61.63118944075677,2.9144731822690346
1679688387948749,22.3849851224536,38.13229571984448,34.04287785152974
1679688387964736,-16.250858319981717,19.211108567940755,60.6546120393682
1679688387980723,-38.925764858472576,3.0670634012359415,61.69222552834367
1679688387996582,-60.13580529488058,-4.409857328145222,30.807965209429995
1679688388012568,-69.50484473945221,-0.8087281605248791,2.0294499122605885
1679688388028555,-65.7816433966583,7.156481269550568,-4.989700160219741
1679688388044541,-56.41260395208667,9.506370641641865,5.783169298847952
1679688388060527,-44.93781948577089,8.865491721980561,19.91302357518873
1679688388076514,-29.922941939421662,10.63553826199734,32.0897230487526
1679688388092500,-17.83779659723814,17.92935072861826,40.23804074158852
1679688388108487,-17.19691767757695,22.964827954528005,43.411917296101365
1679688388124473,-25.68093385214013,19.485770962081233,45.91439688715968
1679688388140460,-39.62767986572055,14.145113298237561,46.95201037613492
1679688388156446,-58.365758754863805,9.99465934233615,45.456626230258735
1679688388172433,-76.0051880674448,6.424048218509142,41.82497901884494
1679688388188419,-82.23086900129704,5.477988860914024,37.766079194323765
1679688388204405,-72.89234760051875,9.262226291294724,34.19546807049687
1679688388220392,-52.81147478446633,13.443198290989471,31.204699778744043
1679688388236378,-28.45807583733881,14.206149385824347,27.542534523536915
1679688388252365,-1.6632333867398756,12.252994583047212,22.537575341420506
1679688388268351,32.42542153047998,10.971236743724717,14.999618524452558
1679688388284338,70.48142214084078,9.41481651026163,6.72922865644307
1679688388300324,109.84969863431752,5.844205386434737,0.38147554741738077
1679688388316162,150.37766079194307,2.182040131227609,-8.438239108873063
1679688388332148,189.19661249713886,-0.3204394598305953,-27.26787212939655
1679688388348134,227.52727550164036,-1.4496070801861833,-61.5701533531701
1679688388364120,239.76501106279102,12.039368276493406,-100.41962310215911
1679688388380106,204.82185091935594,24.734874494544783,-140.30670634012358
1679688388396092,115.1903562981613,50.49210345616848,-168.32227054245823
1679688388412078,30.13656824597524,66.81925688563365,-167.19310292210264
1679688388428063,16.00671396963446,64.07263294422819,-161.8829633020523
1679688388444049,43.38139925230803,38.95628290226614,-141.46639200427262
1679688388460035,59.739070725566535,0.41199359121083035,-124.34576943617913
1679688388476021,47.74547951476325,-28.824292362859524,-115.28191042954154
1679688388492007,20.157167925535873,-41.06202792401007,-104.38696879530016
1679688388507993,-10.208285648889841,-49.210345616845984,-89.15846494239725
1679688388523979,-30.411230640115946,-58.85404745555809,-74.32669565880826
1679688388539965,-33.34096284428165,-63.82848859388116,-62.91294728007938
1679688388555951,-25.528343633173108,-59.80010681315332,-57.969024185549756
1679688388571937,-19.394216830701225,-49.332417792019555,-57.145037003128095
1679688388587923,-13.778896772716848,-32.333867399099745,-57.20607309071488
1679688388603909,-1.846341649500232,-13.107499809262208,-55.31395437552453
1679688388619895,15.518425268940177,1.846341649500232,-49.240863660639434
1679688388635803,34.16495002670331,7.766842145418423,-35.90447852292664
1679688388651788,47.40978103303587,4.043640802624509,-17.19691767757695
1679688388667774,45.09040970473802,-4.715037766079149,1.266498817425827
1679688388683759,28.21393148699167,-14.236667429617683,17.25795376516362
1679688388699745,6.637674525062948,-23.23949034866871,30.167086289768804
1679688388715730,-7.1869993133440175,-28.946364538033095,33.096818493934734
1679688388731716,-8.712901503013654,-31.47936217288475,26.199740596627635
1679688388747701,-4.776073853665935,-29.465171282520828,12.893873502708402
1679688388763687,-2.6092927443351073,-21.652552071412288,-2.5177386129548722
1679688388779672,-3.463797970550104,-11.764705882352928,-16.49500267032886
1679688388795658,-4.928664072632955,-2.1515220874341594,-26.657511253528696
1679688388811643,-4.348821240558436,4.592965590905578,-30.25864042114904
1679688388827629,1.1749446860455919,7.55321583886473,-28.61066605630583
1679688388843614,10.879682612344482,8.255130846112706,-23.941405355916686
1679688388859600,20.553902494850036,7.736324101625087,-17.013809414816592
1679688388875585,24.67383840695811,7.034409094376997,-8.22461280231937
1679688388891571,21.469443808651818,5.783169298847952,0.19836728465702436
1679688388907556,14.54184786755161,4.1046768902112944,3.4332799267566543
1679688388923542,7.064927138170447,3.555352101930225,1.5716792553597543
1679688388939527,-5.600061036087595,3.0670634012359415,-1.0833905546654705
1679688388955383,-36.27069504844735,4.348821240558436,-3.921568627450938
1679688388971368,-84.3366140230412,7.370107576104374,-5.996795605401644
1679688388987353,-126.20737010757614,8.194094758525921,-5.569542992294146
1679688389003338,-142.8702220187687,8.010986495765565,-2.639810788128443
1679688389019323,-130.1136797131304,7.705806057831637,3.799496452277367
1679688389035308,-97.21522850385293,7.064927138170447,13.687342641336613
1679688389051293,-63.736934462500926,9.56740672922865,24.216067750057164
1679688389067278,-41.458762493324116,15.854123750667554,32.30334935530641
1679688389083263,-32.15075913633939,20.981155107957534,35.9349965667202
1679688389099248,-29.983978027008447,24.94850080109859,33.76821545738926
1679688389115233,-30.075532158388683,29.098954757,29.098954757
1679688389131218,-32.76112001220724,28.45807583733881,25.436789501792873
1679688389147203,-35.29411764705878,18.753337911039807,21.652552071412174
1679688389163188,-30.838483253223444,4.928664072632955,18.265049210345524
1679688389179173,-16.372930495155288,-5.691615167467717,15.671015487907198
1679688389195158,-0.6256198977645226,-10.543984130617218,12.252994583047212
1679688389211143,1.7547875181201107,-10.391393911650198,6.515602349889377
1679688389227128,-5.1117723353933116,-6.1493858243686645,-0.8697642481116645
1679688389243113,-3.128099488822727,0.41199359121083035,-7.156481269550568
1679688389259098,12.436102845807568,7.064927138170447,-9.201190203707938
1679688389274994,28.91584649423953,11.33745326924543,-8.194094758525921
1679688389290979,37.003128099489004,11.97833218890662,-8.346684977492941
1679688389306964,39.96337834744804,10.574502174410554,-8.651865415426869
1679688389322949,44.113832303349454,6.301976043335571,-7.125963225757232
1679688389338934,45.48714427405207,-1.7853055619134466,-4.135194934004744
1679688389354919,40.93995574883661,-10.66605630579079,-0.7782101167315432
1679688389370904,34.74479285877783,-18.08194094758528,2.5787747005416577
1679688389386889,28.85481040665286,-24.246585793850613,5.996795605401644
1679688389402874,23.57518883039586,-26.932173647669174,9.536888685435201
1679688389418859,18.99748226138695,-25.22316319523918,11.123826962691624
1679688389434844,14.450293736171488,-20.462348363469914,9.109636072327703
1679688389450829,11.154345006485073,-11.551079575799122,3.4027618829633184
1679688389466814,8.957045853360796,0.22888532845047393,-2.30411230640118
1679688389482799,5.905241474021523,10.910200656137931,-5.661097123674381
1679688389498784,2.2735942626077303,18.72281986724647,-5.966277561608308
1679688389514769,1.052872510872021,22.720683604180863,-4.592965590905578
1679688389530754,4.86762798504617,22.323949034866814,-1.052872510872021
1679688389546739,9.262226291294724,17.25795376516362,7.522697795071281
1679688389562724,11.062790875104838,8.316166933699492,19.516289005874683
1679688389578709,15.640497444113748,-3.097581445029391,30.533302815289517
1679688389594604,19.39421683070111,-15.976195925841239,37.7965972381171
1679688389610589,14.114595254444112,-28.702220187685953,40.39063096055543
1679688389626573,8.041504539559014,-34.68375677119093,36.942092011902105
1679688389642558,9.29274433508806,-32.76112001220724,27.176317998016202
1679688389658542,15.76256961928732,-24.216067750057277,12.741283283741495
1679688389674527,21.622034027618724,-11.703669794766142,-3.9520866712443876
1679688389690511,22.690165560387527,3.0365453574426056,-19.88250553139551
1679688389706496,21.469443808651818,18.142977035171953,-30.289158464942375
1679688389722480,22.598611429007292,28.885328450446195,-34.56168459601736
1679688389738465,27.939269092850964,32.73060196841402,-33.85976958876938
1679688389754449,34.40909437705045,30.71641107804976,-29.00740062561988
1679688389770434,35.019455252918306,23.941405355916572,-22.018768596933
1679688389786419,29.465171282520714,15.304798962386485,-14.450293736171488
1679688389802403,23.392080567635503,5.600061036087595,-5.783169298847952
1679688389818388,19.638361181048253,-4.470893415732007,3.006027313649156
1679688389834372,13.3211261158159,-14.57236591134506,9.140154116121153
1679688389850357,4.257267109178315,-23.11741817349514,10.849164568551146
1679688389866341,-0.045777065690117524,-29.068436713206665,9.536888685435201
1679688389882326,-1.5716792553597543,-32.12024109254594,8.255130846112706
1679688389898310,-2.8229190508887996,-33.43251697566188,8.865491721980561
1679688389914215,-5.142290379186647,-33.21889066910808,12.039368276493406
1679688389930199,-7.339589532310924,-33.3714808880751,15.976195925841125
1679688389946183,-7.583733882658066,-34.50064850843057,18.35660334172576
1679688389962167,-1.7242694743266611,-31.876096742198797,17.318989852750406
1679688389978151,4.959182116426291,-25.314717326619416,13.260090028229115
1679688389994135,6.240939955748786,-18.63126573586635,8.926527809567347
1679688390010119,4.531929503318793,-11.703669794766142,4.654001678492364
1679688390026103,4.623483634699028,-4.470893415732007,-0.6256198977645226
1679688390042087,5.783169298847952,1.5716792553597543,-5.996795605401644
1679688390058071,8.560311284046634,5.142290379186647,-10.269321736476627
1679688390074055,14.511329823758274,4.776073853665935,-13.565270466163042
1679688390090039,20.035095750362302,2.7008468757152286,-13.015945677881973
1679688390106023,20.92011902037075,1.144426642252256,-8.499275196459848
1679688390122007,18.234531166552188,-0.6866559853513081,-4.654001678492364
1679688390137992,16.800183108262672,-1.937895780880467,-2.059967956054038
1679688390153976,15.304798962386485,-1.2970168612191628,0.3509575036240449
1679688390169960,10.543984130617218,0.16784924086368846,2.0294499122605885
1679688390185944,3.921568627450938,1.4190890363927338,0.6866559853513081
1679688390201928,2.334630350194516,4.379339284351886,-4.013122758831173
1679688390217912,4.745555809872599,8.468757152666512,-9.842069123369129
1679688390233795,6.759746700236519,11.215381094071859,-15.823605706874218
1679688390249778,6.21042191195545,11.917296101319835,-19.272144655527654
1679688390265762,4.074158846417959,10.055695429922935,-17.624170290684447
1679688390281746,3.768978408484031,6.1493858243686645,-11.642633707179357
1679688390297729,4.623483634699028,2.30411230640118,-3.9826047150377235
1679688390313713,-0.3204394598305953,-0.9918364232852355,3.0365453574426056
1679688390329696,-8.682383459220205,-2.182040131227609,8.377203021286277
1679688390345680,-15.396353093766606,-3.555352101930225,11.33745326924543
1679688390361663,-23.270008392462046,-8.77393759060044,12.375066758220783
1679688390377647,-33.06630045014117,-15.304798962386485,11.703669794766142
1679688390393631,-34.866865033951285,-20.0961318379492,12.619211108567924
1679688390409614,-24.185549706263828,-24.917982757305253,16.495002670328745
1679688390425598,-16.983291371023142,-32.82215609979403,23.758297093156216
1679688390441581,-26.04715037766084,-42.74052033264661,33.89028763256283
1679688390457565,-42.557412069886254,-54.52048523689632,43.80865186541541
1679688390473549,-52.26214999618526,-65.01869230182342,55.74120698863203
1679688390489532,-60.379949645227725,-78.38559548332955,71.51903562981602
1679688390505516,-81.71206225680942,-94.65171282520794,87.51049057755381
1679688390521499,-111.31456473640048,-109.60555428397049,99.50408178835755
1679688390537483,-131.09025711451898,-114.27481498435952,103.19676508735802
1679688390553405,-138.44510566872657,-109.36140993362324,100.02288853284517
1679688390569389,-156.11505302510113,-107.1946288242923,97.45937285420018
1679688390585373,-190.81406881818873,-109.78866254673085,99.07682917524994
1679688390601356,-222.40024414435038,-119.79858091096366,103.44090943770516
1679688390617340,-232.25757228961618,-137.34645609216443,107.6829175249868
1679688390633323,-221.66781109330896,-154.19241626611733,105.24147402151539
1679688390649307,-205.03547722590986,-167.6508735790036,90.40970473792618
1679688390665290,-195.45281147478443,-178.60685130083164,65.41542687113747
1679688390681274,-195.48332951857788,-182.11642633707186,37.064164187075676
1679688390697258,-207.32433051041437,-182.0859082932784,13.168535896848994
1679688390713241,-220.53864347295337,-180.8651865415427,-2.212558175020945
1679688390729225,-220.87434195468074,-176.0738536659801,-7.125963225757232
1679688390745208,-208.4229800869765,-170.21438925764858,-2.3956664377813013
1679688390761192,-195.17814908064395,-166.27756160830086,10.940718699931267
1679688390777176,-184.95460440985732,-157.4578469520104,26.626993209735247
1679688390793159,-166.64377813382157,-139.3911650263218,44.02227817196922
1679688390809143,-137.28542000457765,-116.3195239185169,63.70641641870748
1679688390825126,-100.78583962767982,-88.45654993514916,80.30823224231312
1679688390841110,-52.81147478446633,-56.90089265278095,87.60204470893405
1679688390857093,5.355916685740453,-25.406271457999537,84.85542076752881
1679688390872985,64.80506599526962,12.405584802014118,67.3685816739146
1679688390888969,111.61974517433441,59.52544441901273,36.45380331120782
1679688390904952,135.48485542076742,102.7695124742504,8.255130846112706
1679688390920935,135.75951781490812,130.81559472037839,-8.529793240253298
1679688390936918,128.3131151293203,136.36987869077598,-22.720683604180977
1679688390952901,129.28969253070886,121.38551918822009,-40.23804074158841
1679688390968884,141.06965743495834,103.65453574425896,-58.12161440451666
1679688390984867,139.1775387197681,89.49416342412451,-59.739070725566535
1679688391000850,111.49767299916084,68.52826733806364,-39.10887312123293
1679688391016833,65.5069810025177,41.82497901884494,-11.581597619592571
1679688391032817,20.645456626230157,12.558175020981139,10.147249561303056
1679688391048800,-2.548256656748322,-14.236667429617683,22.995345998321454
1679688391064783,-7.644769970244852,-33.524071107042005,29.282063019760244
1679688391080766,-9.536888685435201,-39.38353551537341,29.159990844586673
1679688391096749,-13.412680247196135,-32.82215609979403,24.582284275577877
1679688391112732,-11.612115663385907,-17.105363546196713,18.99748226138695
1679688391128715,-2.883955138475585,2.4567025253680868,13.046463721675423
1679688391144698,8.712901503013654,20.798046845197177,6.21042191195545
1679688391160681,19.577325093461468,34.80582894636473,1.3885709925993979
1679688391176664,27.817196917677393,42.313267719539226,1.1139085984588064
1679688391192596,32.120241092546166,40.42114900434899,6.790264744029855
1679688391208579,32.394903486686644,30.685893034256424,15.732051575493983
1679688391224562,31.357289997711177,18.32608529793231,20.248722056916108
1679688391240545,31.47936217288475,5.53902494850081,17.990386816205046
1679688391256528,31.570916304264983,-3.463797970550104,8.74341954680699
1679688391272512,29.80086976424809,-8.529793240253298,-3.372243839169869
1679688391288495,25.436789501792873,-10.482948043030433,-13.717860685130063
1679688391304478,20.157167925535873,-10.177767605096506,-20.157167925535987
1679688391320461,17.044327458609814,-9.506370641641865,-22.018768596933
1679688391336444,16.372930495155174,-8.865491721980561,-20.889600976577412
1679688391352427,18.509193560692665,-6.912336919203426,-18.722819867246585
1679688391368410,22.415503166246936,-4.287785152971651,-15.457389181353392
1679688391384393,26.718547341115254,-2.0294499122605885,-11.33745326924543
1679688391400376,30.77744716563666,0.3509575036240449,-7.827878233005208
1679688391416360,33.737697413595924,3.8605325398641526,-5.966277561608308
1679688391432343,35.81292439154663,8.133058670939135,-4.83710994125272
1679688391448326,37.43038071259639,12.314030670633997,-3.128099488822727
1679688391464309,38.13229571984448,15.36583504997327,-0.8697642481116645
1679688391480292,38.406958113984956,16.6781109330891,1.0833905546654705
1679688391496275,38.925764858472576,15.274280918593035,2.1515220874341594
1679688391512207,37.582970931563295,11.85626001373305,0.4730296787976158
1679688391528189,35.14152742809188,7.949950408178779,-3.2806897077897474
1679688391544172,34.47013046463735,5.050736247806526,-7.736324101625087
1679688391560155,36.60639353017473,4.684519722285813,-11.825741969939713
1679688391576137,38.590066376745426,5.661097123674381,-13.99252307927054
1679688391592120,39.13939116502638,6.546120393682713,-14.297703517204468
1679688391608102,37.705043106736866,9.170672159914488,-13.87045090409697
1679688391624085,34.439612420844014,13.19905394064233,-12.52765697718769
1679688391640068,31.50988021667831,17.868314641031475,-9.079118028534367
1679688391656050,28.54962996871882,22.23239490348658,-3.6469062333104603
1679688391672033,25.101091020065496,25.101091020065496,1.8768596932936816
1679688391688016,22.47653925383372,24.460212100404306,6.759746700236519
1679688391703998,22.110322728313008,21.83566033417253,10.513466086823769
1679688391719981,21.469443808651818,20.4623483634698,14.602883955138395
1679688391735963,20.58442053864337,20.401312275883015,21.9577325093461
1679688391751946,22.140840772106458,23.941405355916572,29.159990844586673
1679688391767929,21.774624246585745,28.641184100099053,29.404135194933815
1679688391783911,16.617074845502316,27.145799954222866,21.377889677271583
1679688391799894,14.267185473411132,16.03723201342791,8.987563897154132
1679688391815877,16.098268101014696,0.6561379415579722,-1.1139085984588064
1679688391831848,18.32608529793231,-10.910200656137931,-5.783169298847952
1679688391847830,19.516289005874683,-14.724956130311966,-6.820782787823305
1679688391863813,18.905928130006828,-13.229571984435779,-5.0202182040130765
1679688391879796,15.671015487907198,-10.147249561303056,-2.090485999847374
1679688391895778,14.877546349278987,-7.461661707484495,-0.9918364232852355
1679688391911761,20.126649881742537,-7.797360189211872,-1.5106431677729688
1679688391927744,32.97474631876116,-10.177767605096506,-3.128099488822727
1679688391943726,48.081177996490396,-10.910200656137931,-6.9733730067902115
1679688391959709,57.66384374761583,-7.217517357137353,-13.534752422369706
1679688391975691,56.90089265278107,1.0833905546654705,-22.81223773556121
1679688391991674,49.82070649271395,13.19905394064233,-34.65323872739759
1679688392007657,46.46372167544064,23.788815136949665,-45.88387884336612
1679688392023639,49.45448996719324,28.183413443198106,-54.18478675516906
1679688392039622,54.67307545586323,25.65041580834668,-58.73197528038452
1679688392055605,58.67093919279773,16.098268101014696,-58.12161440451666
1679688392071587,59.46440833142606,0.22888532845047393,-53.42183566033418
1679688392087570,60.28839551384749,-20.309758144503007,-47.83703364614337
1679688392103552,63.248645761806756,-41.18410009918364,-46.31113145647362
1679688392119535,58.67093919279773,-60.65461203936832,-53.69649805447477
1679688392135518,48.966201266498956,-76.79865720607302,-69.68795300221257
1679688392151428,42.98466468299398,-86.1982146944381,-89.28053711757082
1679688392167410,36.66742961776163,-92.08819714656295,-103.34935530632481
1679688392183392,21.59151598382539,-104.38696879530016,-105.39406424048218
1679688392199374,2.4567025253680868,-124.22369726100555,-94.9874113069352
1679688392215356,-3.9826047150377235,-147.3868925001908,-85.1300831616694
1679688392231339,2.6703288319218927,-171.95391775387202,-81.46791790646228
1679688392247321,4.898146028839506,-198.16891737239644,-78.69077592126348
1679688392263303,-3.097581445029391,-223.1937132829786,-74.66239414053553
1679688392279285,-17.929350728618374,-243.94598306248577,-74.72343022812231
1679688392295267,-34.62272068360414,-261.1276417181658,-81.58999008163585
1679688392311249,-48.661020828564915,-275.2574959945068,-86.4118410009919
1679688392327232,-57.99954222934309,-275.92889295796147,-81.19325551232168
1679688392343214,-61.84481574731058,-260.94453345540546,-68.711375600824
1679688392359196,-64.40833142595557,-240.95521477073328,-54.337376974135964
1679688392375178,-63.065537499046286,-220.56916151674682,-41.886015106431614
1679688392391160,-52.78095674067299,-195.7885099565118,-34.25650415808343
1679688392407142,-33.98184176394295,-163.71404592965587,-33.92080567635617
1679688392423124,-16.433966582742073,-127.21446555275804,-40.0854505226215
1679688392439107,-7.55321583886473,-88.2734416723888,-51.59075303273062
1679688392455089,-5.996795605401644,-54.70359349965668,-67.002365148394
1679688392471038,-1.9989318684672526,-28.549629968719046,-80.9185931181812
1679688392487021,8.010986495765565,-6.179903868162,-89.40260929274439
1679688392503003,15.182726787212914,15.945677882047676,-90.83695735103379
1679688392518985,14.175631342030897,35.04997329671187,-86.71702143892583
1679688392534967,5.172808422980097,45.975432974746354,-78.6297398336767
1679688392550949,-3.4332799267566543,48.722056916151814,-71.15281910429542
1679688392566931,-9.29274433508806,42.52689402609303,-67.06340123598079
1679688392582914,-13.290608072022565,27.664606698710486,-61.69222552834367
1679688392598896,-13.656824597543277,8.74341954680699,-55.89379720759905
1679688392614878,-15.121690699626129,-11.520561532005786,-52.53681239032585
1679688392630860,-20.370794232089793,-28.793774319066188,-50.553139543755265
1679688392646842,-27.756160830090835,-39.566643778133766,-48.691538872358365
1679688392662824,-32.79163805600058,-46.18905928130005,-46.52475776302731
1679688392678806,-32.12024109254594,-51.74334325169764,-44.90730144197755
1679688392694789,-27.359426260776672,-56.87037460898762,-45.45662623025862
1679688392710771,-21.07270923933777,-61.5701533531701,-49.72915236133372
1679688392726753,-14.175631342030897,-65.14076447699699,-54.8561837186237
1679688392742735,-8.651865415426869,-67.27702754253448,-56.10742351415274
1679688392758717,-4.3183031967651,-67.36858167391472,-53.20820935378049
1679688392774699,-1.2970168612191628,-65.75112535286485,-47.83703364614337
1679688392790619,-2.0294499122605885,-63.065537499046286,-41.79446097505149
1679688392806600,-4.898146028839506,-62.88242923628593,-35.08049134050509
1679688392822582,-6.546120393682713,-67.97894254978257,-28.305485618371904
1679688392838564,-6.759746700236519,-75.08964675364302,-22.720683604180977
1679688392854545,-7.217517357137353,-77.98886091401539,-19.42473487449456
1679688392870527,-12.283512626840547,-76.61554894331266,-18.936446173800277
1679688392886509,-18.20401312275885,-75.79156176089111,-20.0961318379492
1679688392902490,-19.05851834897385,-78.93492027161062,-22.232394903486693
1679688392918472,-14.755474174105416,-87.6935988403144,-26.413366903181554
1679688392934454,-6.1493858243686645,-100.29755092698554,-34.897383077744735
1679688392950435,5.081254291599862,-108.29327840085443,-44.81574731059732
1679688392966417,10.360875867856862,-96.84901197833221,-48.08117799649051
1679688392982399,1.4801251239795192,-71.76317998016327,-48.05065995269706
1679688392998380,-13.656824597543277,-48.20325017166408,-51.68230716411085
1679688393014362,-22.323949034866928,-37.82711528191044,-59.37285420004582
1679688393030344,-23.544670786602637,-40.0854505226215,-68.22308690012972
1679688393046325,-18.417639429312658,-46.86045624475469,-75.63897154192409
1679688393062307,-15.36583504997327,-51.224536507209905,-78.8433661402305
1679688393078289,-18.600747692073014,-50.46158541237514,-75.66948958571754
1679688393094270,-24.948500801098703,-45.3040360112916,-65.99526970321199
1679688393110229,-30.960555428397015,-37.18623636224913,-46.616311894407545
1679688393126211,-27.847714961470956,-29.068436713206665,-21.286335545891575
1679688393142192,-16.708628976882665,-21.98825055313955,0.1373311970702389
1679688393158174,-2.059967956054038,-16.06775005722136,15.76256961928732
1679688393174156,12.52765697718769,-6.332494087129021,27.75616083009072
1679688393190137,21.9577325093461,5.1117723353933116,37.27779049362948
1679688393206119,25.314717326619302,13.595788509956492,45.60921644922564
1679688393222101,23.544670786602524,19.516289005874683,53.971160448615365
1679688393238083,13.076981765468759,27.542534523536915,64.13366903181509
1679688393254064,-7.705806057831637,36.27069504844758,76.55451285572599
1679688393270046,-30.10605020218202,40.451667048142326,86.74753948271905
1679688393286028,-48.7220569161517,41.550316624704465,93.61409933623236
1679688393302009,-64.46936751354235,42.28274967574589,96.7574578469521
1679688393317991,-78.66025787747014,42.86259250782041,95.9029526207371
1679688393333973,-86.5644312199588,36.14862287327401,90.10452429999236
1679688393349954,-81.71206225680942,18.539711604486115,80.24719615472645
1679688393365936,-66.51407644769972,-2.8229190508887996,69.84054322117959
1679688393381918,-49.75967040512705,-20.55390249485015,56.534676127260354
1679688393397899,-37.1557183184558,-29.312581063553807,40.36011291676209
1679688393413881,-26.535439078355125,-25.92507820248727,22.995345998321454
1679688393429809,-15.884641794461004,-13.3211261158159,6.546120393682713
1679688393445791,-5.325398641947004,4.348821240558436,-3.1891355764095124
1679688393461773,9.079118028534367,26.077668421454064,-3.585870145723675
1679688393477754,23.941405355916572,50.583657587548714,4.348821240558436
1679688393493736,33.92080567635617,71.18333714808887,16.891737239642907
1679688393509718,36.91157396810877,81.6510261692224,34.16495002670331
1679688393525699,34.47013046463735,78.20248722056908,52.26214999618537
1679688393541681,32.24231326771974,60.685130083161766,64.65247577630271
1679688393557663,33.61562523842235,35.8739604791333,68.71137560082389
1679688393573644,38.31540398260472,12.68024719615471,66.1478599221789
1679688393589626,43.25932707713446,-2.1515220874341594,60.99031052109558
1679688393605608,45.975432974746354,-3.6163881895170107,55.16136415655751
1679688393621589,44.174868390936126,5.783169298847952,48.63050278477158
1679688393637571,34.439612420844014,20.06561379415575,39.383535515373524
1679688393653553,22.659647516594077,32.639047837033786,24.36865796902407
1679688393669534,18.32608529793231,36.48432135500116,6.9733730067902115
1679688393685516,26.077668421454064,33.737697413595924,-8.89600976577401
1679688393701498,40.81788357366304,30.655374990463088,-24.368657969024184
1679688393717479,52.35370412756538,32.05920500495927,-39.658197909514
1679688393733461,55.37499046311132,37.33882658121615,-55.954833295185836
1679688393749420,51.68230716411085,48.69153887235825,-72.6482032501716
1679688393765401,47.47081712062254,67.67376211184865,-86.86961165789273
1679688393781383,45.63973449301898,94.34653238727401,-93.91927977416651
1679688393797365,39.44457160296042,120.7446402685589,-85.22163729304953
1679688393813346,23.331044480048718,135.30174715800717,-60.410467689021175
1679688393829328,3.8605325398641526,131.45647364003958,-29.12947280079345
1679688393845310,-1.266498817425827,109.63607232776394,-1.266498817425827
1679688393861292,17.89883268482481,78.50766765850312,17.38002594033719
1679688393877273,44.174868390936126,52.689402609292756,26.443884946974777
1679688393893255,61.14290074006249,40.17700465400185,29.251544975966908
1679688393909237,58.15213244831011,39.53612573434043,33.82925154497616
1679688393925218,40.024414435034714,51.46868085755705,41.76394293125827
1679688393941200,23.971923399710022,73.28908216983291,54.12375066758227
1679688393957182,20.950637064164084,98.0392156862747,74.845502403296
1679688393973163,21.83566033417253,119.49340047302962,104.32593270771349
1679688393989145,16.98329137102303,129.56435492484934,134.59983215075908
1679688394005127,10.238803692683291,123.49126420996413,159.04478522926684
1679688394021108,12.741283283741495,108.99519340810252,174.3648432135501
1679688394037090,19.974059662775517,96.48279545281162,181.35347524223698
1679688394053072,20.157167925535873,94.37705043106757,183.4897383077746
1679688394069000,12.314030670633997,104.63111314564753,182.1469443808653
1679688394084981,6.179903868162,119.829098954757,177.84390020599676
1679688394100962,11.215381094071859,133.92843518730456,169.9397268635082
1679688394116943,31.14366369115737,148.63813229571974,158.2207980468454
1679688394132925,61.32600900282296,166.5827420462349,143.7552452887769
1679688394148906,90.19607843137237,180.31586175326174,121.11085679407961
1679688394164887,103.8986800946061,182.02487220569174,92.27130540932308
1679688394180868,101.97604333562231,173.81551842526892,70.45090409704744
1679688394196849,92.11871519035617,169.84817273212798,63.85900663767461
1679688394212831,76.0662241550317,179.3698023956665,69.41329060807197
1679688394228812,49.02723735408563,199.38963912413215,81.62050812542907
1679688394244793,5.661097123674381,212.11566338597686,92.72907606622402
1679688394260774,-41.55031662470435,211.81048294804305,96.17761501487757
1679688394276755,-75.97467002365147,193.6522468909743,92.24078736552974
1679688394292737,-82.13931486991692,157.48836499580398,81.7120622568093
1679688394308718,-65.5069810025177,105.5466544594492,70.48142214084078
1679688394324699,-61.41756313420308,48.63050278477158,49.85122453650729
1679688394340680,-73.89944304570076,6.759746700236519,23.02586404211479
1679688394356661,-56.77882047760738,-14.358739604791253,2.1515220874341594
1679688394372643,-18.11245899137873,-18.448157473105994,8.77393759060044
1679688394388641,-1.846341649500232,-12.924391546501852,19.27214465552754
1679688394404622,-6.72922865644307,-0.07629510948345342,22.50705729762717
1679688394420603,-17.56313420309766,16.55603875791553,28.54962996871882
1679688394436585,-14.114595254444112,33.676661326009025,36.39276722362115
1679688394452566,10.452429999236983,47.89806973373015,43.015182726787316
1679688394468547,48.661020828564915,54.82566567483036,43.35088120851469
1679688394484528,83.02433813992525,49.02723735408563,29.922941939421662
1679688394500509,89.52468146791784,36.60639353017473,8.255130846112706
1679688394516491,73.89944304570076,27.084763866635967,-3.219653620202962
1679688394532472,69.16914625772483,24.582284275577877,0.07629510948345342
1679688394548453,77.22590981918052,27.603570611123814,10.269321736476627
1679688394564434,74.1435873960479,30.228122377355476,18.57022964827945
1679688394580415,54.032196536202036,32.05920500495927,23.239490348668596
1679688394596397,34.28702220187688,30.563820859082853,24.032959487296694
1679688394612378,26.138704509040963,25.00953688868526,23.84985122453645
1679688394628359,27.664606698710486,18.539711604486115,24.185549706263828
1679688394644340,29.465171282520714,13.687342641336613,22.659647516594077
1679688394660321,30.44174868390928,11.062790875104838,18.87541008621338
1679688394676303,37.705043106736866,11.215381094071859,13.778896772716848
1679688394692284,49.301899748226106,12.13092240787364,8.590829327840083
1679688394708221,62.241550316624625,11.520561532005786,5.325398641947004
1679688394724202,74.35721370260171,8.133058670939135,3.6469062333104603
1679688394740183,85.31319142442953,2.7924010070954637,3.8605325398641526
1679688394756165,89.95193408102523,-0.6561379415579722,4.348821240558436
1679688394772146,84.15350576028072,-1.7242694743266611,3.463797970550104
1679688394788127,69.32173647669174,-3.372243839169869,2.212558175020945
1679688394804108,54.12375066758227,-6.942854962996876,2.7924010070954637
1679688394820089,48.47791256580467,-9.811551079575793,4.928664072632955
1679688394836071,55.34447241931798,-8.804455634393776,6.1493858243686645
1679688394852052,70.32883192187387,-4.043640802624509,5.996795605401644
1679688394868033,87.60204470893405,1.052872510872021,7.522697795071281
1679688394884014,108.90363927672252,5.9357595178148586,10.025177386129485
1679688394899995,120.43945983062486,11.184863050278409,7.614251926451516
1679688394915977,110.52109559777227,15.945677882047676,-0.3204394598305953
1679688394931958,91.84405279621569,18.72281986724647,-2.334630350194516
1679688394947939,75.12016479743647,21.103227283131105,3.0365453574426056
1679688394963920,56.04638742656607,23.117418173495025,9.689478904402222
1679688394979901,37.43038071259639,20.34027618829623,16.525520714122194
1679688394995883,26.138704509040963,12.771801327534831,19.79095140001516
1679688395011864,25.833524071106922,6.301976043335571,19.82146944380861
1679688395027832,30.89951934081023,6.0578316929884295,16.58655680170898
1679688395043813,34.74479285877783,2.883955138475585,13.839932860303634
1679688395059794,33.89028763256283,-3.463797970550104,8.834973678187225
1679688395075775,26.749065384908818,3.5248340581368893,-2.1515220874341594
1679688395091756,15.335317006179821,24.94850080109859,-13.87045090409697
1679688395107738,6.851300831616641,44.44953078507683,-19.485770962081347
1679688395123719,-2.0294499122605885,49.45448996719324,-19.516289005874796
1679688395139700,-16.61707484550243,43.65606164644851,-19.394216830701225
1679688395155681,-27.084763866636195,33.31044480048831,-19.119554436560634
1679688395171662,-20.706492713817056,21.68307011520551,-15.396353093766606
1679688395187644,-3.097581445029391,11.032272831311502,-8.804455634393776
1679688395203625,8.590829327840083,4.074158846417959,-6.088349736781879
1679688395219606,12.64972915236126,1.7853055619134466,-4.074158846417959
1679688395235587,12.13092240787364,0.3509575036240449,0.6561379415579722
1679688395251568,7.675288014038301,-0.7782101167315432,4.135194934004744
1679688395267550,5.0202182040130765,0.44251163500416624,5.874723430228073
1679688395283531,5.142290379186647,2.9144731822690346,5.325398641947004
1679688395299512,5.783169298847952,4.409857328145222,4.226749065384865
1679688395315493,5.0202182040130765,3.891050583657602,2.8229190508887996
1679688395331474,4.135194934004744,3.0365453574426056,2.761882963302014
1679688395347412,5.50850690470736,2.731364919508678,3.250171663996298
1679688395363392,9.628442816815436,1.937895780880467,4.83710994125272
1679688395379373,14.908064393072323,-0.3204394598305953,6.637674525062948
1679688395395354,18.783855954833257,-4.226749065384865,7.675288014038301
1679688395411335,23.331044480048718,-7.644769970244852,7.949950408178779
1679688395427315,29.343099107347143,-8.74341954680699,7.614251926451516
1679688395443296,33.24940871290164,-8.560311284046634,5.783169298847952
1679688395459277,34.19546807049687,-6.393530174715806,3.219653620202962
1679688395475257,32.9442282749676,-3.097581445029391,2.5177386129548722
1679688395491238,33.06630045014117,-0.9613183794918996,3.677424277103796
1679688395507219,31.540398260471648,-0.2594033722438098,5.264362554360218
1679688395523200,28.0308232242312,-0.6256198977645226,7.40062561989771
1679688395539180,23.117418173495025,-3.2806897077897474,13.90096894789042
1679688395555161,15.976195925841125,-11.734187838559478,20.126649881742537
1679688395571142,5.783169298847952,-23.08690012970169,20.92011902037075
1679688395587123,-2.059967956054038,-33.92080567635617,17.593652246890883
1679688395603103,-8.1025406271458,-41.30617227435721,10.452429999236983
1679688395619084,-17.19691767757695,-46.31113145647362,-2.0294499122605885
1679688395635065,-20.065613794155865,-50.003814755474195,-17.349507896543855
1679688395651045,-7.278553444724139,-51.377126726176925,-32.852674143587365
1679688395667022,4.562447547112242,-49.63759822995348,-44.052796215762555
1679688395683003,7.583733882658066,-45.97543297474624,-52.65888456549942
1679688395698984,-0.3204394598305953,-42.89311055161363,-60.74616617074844
1679688395714964,-22.720683604180977,-40.115968566414836,-71.39696345464256
1679688395730945,-43.80865186541541,-36.54535744258794,-86.5644312199588
1679688395746926,-35.81292439154652,-32.5169756618601,-101.5487907225147
1679688395762907,2.2735942626077303,-30.47226672770273,-108.07965209430074
1679688395778887,47.68444342717635,-27.450980392156907,-105.14991989013504
1679688395794868,72.67872129396505,-21.43892576485848,-97.27626459143971
1679688395810849,62.6382848859389,-13.595788509956492,-82.26138704509049
1679688395826830,29.251544975966908,-6.820782787823305,-59.6475165941863
1679688395842810,-2.059967956054038,-5.416952773327239,-33.005264362554385
1679688395858791,-18.387121385519208,-9.201190203707938,-7.064927138170447
1679688395874772,-26.657511253528696,-14.908064393072323,14.57236591134506
1679688395890752,-35.965514610513424,-18.295567254139087,33.31044480048831
1679688395906733,-43.350881208514465,-14.724956130311966,50.003814755474195
1679688395922714,-45.365072098878386,-1.4801251239795192,66.02578774700532
1679688395938695,-41.916533150225064,18.32608529793231,78.32455939574265
1679688395954675,-34.8058289463645,38.62058442053876,85.77096208133048
1679688395970656,-23.025864042114904,59.18974593728535,87.78515297169452
1679688395986602,-5.447470817120575,68.68085755703055,81.19325551232168
1679688396002583,11.551079575799122,45.91439688715968,60.959792477302244
1679688396018564,18.692301823453022,8.804455634393776,37.61348897535686
1679688396034545,30.44174868390928,-11.245899137865194,25.98611429007383
1679688396050525,58.213168535896784,-13.076981765468759,23.666742961776094
1679688396066506,90.22659647516593,-6.0578316929884295,22.751201647974312
1679688396082487,114.70206759746702,2.212558175020945,16.00671396963446
1679688396098467,126.90928511482412,9.719996948195558,6.820782787823305
1679688396114448,126.87876707103078,14.328221560997918,1.6937514305333252
1679688396130429,110.58213168535895,14.877546349278987,0.2899214160372594
1679688396146410,72.37354085603101,14.480811779964824,0.2899214160372594
1679688396162390,24.185549706263828,11.551079575799122,0.6561379415579722
1679688396178371,-14.389257648584703,10.605020218204004,0.6561379415579722
1679688396194352,-29.95345998321511,10.727092393377575,-1.7853055619134466
1679688396210332,-27.54253452353703,5.813687342641288,-7.919432364385443
1679688396226313,-16.281376363775166,-2.731364919508678,-13.778896772716848
1679688396242294,-1.0833905546654705,-7.492179751277945,-18.844892042420156
1679688396258275,8.255130846112706,-6.759746700236519,-26.87113756008239
1679688396274255,4.013122758831173,-0.6561379415579722,-35.20256351567866
1679688396290236,-9.872587167162578,5.325398641947004,-41.15358205539019
1679688396306244,-26.016632333867392,9.41481651026163,-44.846265354390766
1679688396322224,-33.676661326009025,9.353780422674845,-43.0151827267872
1679688396338205,-39.96337834744793,9.536888685435201,-35.32463569085223
1679688396354186,-40.20752269779507,8.957045853360796,-28.91584649423976
1679688396370166,-33.92080567635617,8.1025406271458,-22.629129472800855
1679688396386147,-27.328908216983336,10.08621347371627,-16.86121919584957
1679688396402128,-24.368657969024184,14.54184786755161,-14.267185473411132
1679688396418109,-23.78881513694978,19.180590524147306,-9.658960860608772
1679688396434089,-22.934309910734783,22.171358815899794,-3.3112077515830833
1679688396450070,-25.284199282825966,22.323949034866814,2.883955138475585
1679688396466051,-28.58014801251238,20.645456626230157,8.89600976577401
1679688396482031,-27.328908216983336,18.05142290379183,12.344548714427333
1679688396498012,-23.178454261081924,15.274280918593035,13.19905394064233
1679688396513993,-18.6617837796598,12.954909590295188,13.687342641336613
1679688396529974,-15.152208743419465,10.66605630579079,14.450293736171488
1679688396545954,-14.145113298237561,6.820782787823305,13.717860685130063
1679688396561935,-15.548943312733627,0.045777065690117524,11.245899137865194
1679688396577916,-15.152208743419465,-8.957045853360796,8.316166933699492
1679688396593896,-11.551079575799122,-17.715724422064568,5.294880598153668
1679688396609877,-6.851300831616641,-23.392080567635617,2.059967956054038
1679688396625824,-4.043640802624509,-26.56595712214846,-0.44251163500416624
1679688396641804,-3.9520866712443876,-29.404135194934042,-2.1515220874341594
1679688396657785,-6.485084306095928,-30.655374990463088,-3.4332799267566543
1679688396673766,-10.971236743724717,-30.960555428397015,-2.3651483939879654
1679688396689746,-16.64759288929588,-31.296253910124392,-1.3580529488059483
1679688396705727,-23.147936217288475,-31.326771953917728,-1.5411612115663047
1679688396721708,-28.061341268024762,-31.17418173495082,-3.1586175326161765
1679688396737689,-31.662470435645105,-31.0215915159838,-5.294880598153668
1679688396753669,-35.019455252918306,-30.991073472190465,-7.156481269550568
1679688396769650,-36.97261005569544,-30.10605020218202,-7.370107576104374
1679688396785631,-34.40909437705045,-27.084763866636195,-6.0578316929884295
1679688396801612,-29.03791866941333,-21.530479896238717,-5.264362554360218
1679688396817592,-24.734874494544897,-15.2437628747997,-5.0202182040130765
1679688396833573,-21.19478141451134,-9.506370641641865,-3.799496452277367
1679688396849554,-17.86831464103159,-4.592965590905578,-1.7242694743266611
1679688396865534,-15.487907225146841,-0.8087281605248791,0.16784924086368846
1679688396881515,-14.419775692378039,1.2054627298390415,2.30411230640118
1679688396897496,-14.02304112306399,1.0833905546654705,4.135194934004744
1679688396913477,-13.046463721675423,0.015259021896667946,5.966277561608308
1679688396929457,-9.44533455405508,-0.106813153276903,6.912336919203426
1679688396945434,-3.4943160143434397,0.9918364232852355,7.156481269550568
1679688396961415,2.426184481574751,2.426184481574751,6.942854962996876
1679688396977396,5.386434729533789,3.1891355764095124,6.424048218509142
1679688396993376,4.3183031967651,2.4872205691615363,5.477988860914024
1679688397009357,2.639810788128443,0.7782101167315432,3.6163881895170107
1679688397025338,2.2430762188143945,-0.8087281605248791,0.8087281605248791
1679688397041319,2.731364919508678,-0.93080033569845,-1.7242694743266611
1679688397057299,4.043640802624509,-0.7476920729380936,-3.4027618829633184
1679688397073280,4.989700160219741,-0.5035477225909517,-4.16571297779808
1679688397089261,4.898146028839506,0.045777065690117524,-3.8300144960708167
1679688397105241,4.959182116426291,0.9613183794918996,-2.639810788128443
1679688397121222,4.654001678492364,2.334630350194516,-1.5411612115663047
1679688397137203,5.325398641947004,3.2806897077897474,-0.7171740291447577
1679688397153184,7.40062561989771,4.470893415732007,-0.3204394598305953
1679688397169164,9.689478904402222,5.844205386434737,-0.22888532845047393
1679688397185145,11.97833218890662,5.783169298847952,-0.16784924086368846
1679688397201126,14.633401998931845,4.3183031967651,-0.38147554741738077
1679688397217106,17.13588158999005,3.4027618829633184,-0.5035477225909517
1679688397233087,18.844892042420042,3.7079423208972457,-0.2594033722438098
1679688397249068,20.309758144502894,4.745555809872599,0.6866559853513081
1679688397265014,21.866178377965866,6.088349736781879,1.6021972991530902
1679688397280995,24.032959487296694,7.461661707484495,2.090485999847374
1679688397296976,26.93217364766906,8.712901503013654,2.212558175020945
1679688397312956,30.685893034256424,9.262226291294724,1.846341649500232
1679688397328937,34.62272068360426,9.872587167162578,1.4190890363927338
1679688397344918,37.97970550087757,11.276417181658644,1.5716792553597543
1679688397360899,38.925764858472576,13.687342641336613,1.9989318684672526
1679688397376879,34.62272068360426,15.945677882047676,1.846341649500232
1679688397392860,27.389944304570008,16.15930418860148,1.1749446860455919
1679688397408841,20.828564888990513,15.487907225146841,-0.015259021896667946
1679688397424821,15.732051575493983,15.88464179446089,-1.9989318684672526
1679688397440802,12.405584802014118,16.525520714122194,-3.6469062333104603
1679688397456783,8.987563897154132,16.342412451361838,-4.226749065384865
1679688397472764,4.83710994125272,14.053559166857326,-4.074158846417959
1679688397488744,3.463797970550104,10.208285648889841,-2.7924010070954637
1679688397504725,5.691615167467717,5.630579079880931,-1.4496070801861833
1679688397520706,9.323262378881509,1.7547875181201107,-0.045777065690117524
1679688397536687,12.64972915236126,-1.2359807736323773,1.937895780880467
1679688397552667,12.619211108567924,-3.128099488822727,4.440375371938671
1679688397568648,10.055695429922935,-3.768978408484031,7.248035400930803
1679688397584625,8.285648889906156,-3.372243839169869,9.41481651026163
1679688397600606,7.888914320591994,-2.7008468757152286,10.177767605096506
1679688397616586,8.89600976577401,-1.968413824673803,10.391393911650198
1679688397632567,10.452429999236983,-1.144426642252256,10.360875867856862
1679688397648548,10.330357824063412,-1.2970168612191628,9.872587167162578
1679688397664528,7.980468451972229,-2.548256656748322,9.811551079575793
1679688397680509,4.1962310215915295,-3.8605325398641526,9.99465934233615
1679688397696490,-1.846341649500232,-4.86762798504617,9.719996948195558
1679688397712471,-8.804455634393776,-6.698710612649734,9.384298466468294
1679688397728451,-13.168535896848994,-9.811551079575793,9.201190203707938
1679688397744432,-12.344548714427333,-13.382162203402686,8.407721065079727
1679688397760413,-6.332494087129021,-15.518425268940177,6.851300831616641
1679688397776394,2.9449912260623705,-15.182726787212914,4.83710994125272
1679688397792374,12.497138933394353,-12.252994583047212,2.1210040436408235
1679688397808355,18.753337911039807,-8.438239108873063,0.7476920729380936
1679688397824336,22.079804684519672,-6.179903868162,2.1210040436408235
1679688397840316,20.157167925535873,-4.592965590905578,4.074158846417959
1679688397856297,11.612115663385907,-3.372243839169869,5.50850690470736
1679688397872278,1.846341649500232,-2.97550926985582,6.301976043335571
1679688397888259,-5.691615167467717,-4.013122758831173,6.546120393682713
1679688397904205,-11.001754787518053,-6.363012130922357,5.630579079880931
1679688397920185,-12.13092240787364,-7.766842145418423,3.341725795376533
1679688397936165,-9.170672159914488,-8.407721065079727,0.1373311970702389
1679688397952146,-5.0202182040130765,-8.499275196459848,-2.7924010070954637
1679688397968126,-0.5035477225909517,-7.980468451972229,-4.287785152971651
1679688397984106,2.883955138475585,-6.515602349889377,-4.1962310215915295
1679688398000086,5.203326466773433,-4.1962310215915295,-2.8229190508887996
1679688398016067,6.637674525062948,-1.2359807736323773,-1.6327153429465397
1679688398032047,4.379339284351886,1.052872510872021,-0.5645838101777372
1679688398048027,-0.41199359121083035,5.172808422980097,-0.6866559853513081
1679688398064007,-11.093308918898288,10.66605630579079,-2.5177386129548722
1679688398079988,-26.077668421454177,12.893873502708402,-3.0365453574426056
1679688398095968,-40.45166704814221,10.574502174410554,-0.5035477225909517
1679688398111948,-51.346608682383476,4.470893415732007,3.7384603646905816
1679688398127928,-57.41969939726869,-2.9144731822690346,7.675288014038301
1679688398143909,-63.27916380560009,-10.482948043030433,10.360875867856862
1679688398159889,-68.49774929427019,-17.380025940337305,11.764705882352928
1679688398175869,-66.3614862287327,-22.995345998321568,10.574502174410554
1679688398191849,-56.41260395208667,-25.25368123903263,6.668192568856284
1679688398207830,-39.68871595330734,-24.795910582131683,0.3509575036240449
1679688398223816,-18.295567254139087,-22.41550316624705,-5.050736247806526
1679688398239796,-1.6327153429465397,-17.715724422064568,-7.217517357137353
1679688398255776,4.226749065384865,-10.66605630579079,-5.50850690470736
1679688398271756,1.846341649500232,-3.1891355764095124,-0.7171740291447577
1679688398287737,-5.447470817120575,3.9826047150377235,6.88181887541009
1679688398303717,-13.35164415960935,8.957045853360796,14.57236591134506
1679688398319697,-17.41054398413064,10.11673151750972,19.39421683070111
1679688398335677,-17.654688334477783,7.522697795071281,19.66887922484159
1679688398351657,-12.52765697718769,0.7476920729380936,15.396353093766606
1679688398367638,-0.2899214160372594,-8.316166933699492,6.454566262302592
1679688398383618,12.069886320286855,-15.884641794461004,-4.745555809872599
1679688398399598,20.279240100709444,-22.4460212100405,-13.717860685130063
1679688398415578,25.345235370412638,-26.626993209735247,-18.448157473105994
1679688398431559,26.962691691462396,-27.176317998016316,-19.241626611734205
1679688398447539,23.880369268329787,-25.89456015869382,-15.671015487907312
1679688398463519,16.891737239642907,-24.063477531090257,-7.766842145418423
1679688398479499,6.027313649195094,-21.286335545891575,2.30411230640118
1679688398495480,-5.203326466773433,-18.173495078965516,10.299839780270077
1679688398511460,-12.00885023270007,-16.830701152056236,13.382162203402686
1679688398527440,-11.30693522545198,-17.013809414816592,13.015945677881973
1679688398543396,-2.731364919508678,-17.807278553444803,10.574502174410554
1679688398559376,8.041504539559014,-16.678110933089215,7.888914320591994
1679688398575356,14.54184786755161,-12.68024719615471,4.715037766079149
1679688398591336,12.863355458915066,-7.766842145418423,2.8229190508887996
1679688398607317,6.454566262302592,-4.013122758831173,3.2806897077897474
1679688398623297,-0.8392462043183286,-2.5787747005416577,4.348821240558436
1679688398639277,-6.179903868162,-2.0294499122605885,3.128099488822727
1679688398655257,-5.325398641947004,0.19836728465702436,-2.8229190508887996
1679688398671238,4.86762798504617,6.851300831616641,-10.605020218204004
1679688398687218,15.091172655832679,18.417639429312544,-16.281376363775166
1679688398703198,13.3211261158159,32.79163805600069,-16.006713969634575
1679688398719178,-2.334630350194516,44.69367513542397,-10.08621347371627
1679688398735159,-29.95345998321511,48.05065995269706,-2.182040131227609
1679688398751139,-58.487830930037376,41.672388799878036,7.156481269550568
1679688398767119,-80.21667811093312,31.50988021667831,15.152208743419465
1679688398783099,-96.87953002212555,27.206836041809538,21.072709239337655
1679688398799080,-116.28900587472344,33.340962844281876,25.680933852140015
1679688398815060,-136.8276493476768,46.25009536888683,27.63408865491715
1679688398831040,-146.99015793087665,56.32104982070655,24.856946669718354
1679688398847020,-153.18532082093543,61.75326161593034,18.6007476920729
1679688398863006,-166.39963378347443,65.62905317769128,12.985427634088637
1679688398878986,-185.5039291981384,68.10101472495603,14.236667429617683
1679688398894967,-206.89707789730687,69.84054322117959,22.140840772106458
1679688398910947,-220.8438239108873,71.0612649729153,29.098954757
1679688398926927,-214.9233234149691,67.2159914549477,33.82925154497616
1679688398942907,-179.67498283360044,55.03929198138394,35.9349965667202
1679688398958888,-127.00083924620435,44.78522926680398,32.48645761806688
1679688398974868,-72.19043259327077,39.07835507743971,22.446021210040385
1679688398990848,-24.795910582131683,29.282063019760244,10.147249561303056
1679688399006828,10.421911955443647,10.574502174410554,-1.6632333867398756
1679688399022809,35.50774395361259,-14.02304112306399,-10.940718699931267
1679688399038789,57.96902418554964,-35.17204547188521,-13.3211261158159
1679688399054769,82.29190508888382,-44.022278171969106,-8.834973678187225
1679688399070749,106.09597924773038,-38.1628137636377,-1.4190890363927338
1679688399086730,122.20950637064175,-19.913023575188845,8.438239108873063
1679688399102710,126.6041046768903,2.4872205691615363,24.216067750057164
1679688399118690,115.00724803540106,23.14793621728836,40.7873655298697
1679688399134670,85.00801098649572,34.59220263981092,53.391317616540846
1679688399150651,44.38849469748993,35.11100938429854,56.870374608987504
1679688399166631,8.560311284046634,26.1081864652474,49.179827573052535
1679688399182586,-16.09826810101481,10.971236743724717,38.55954833295186
1679688399198567,-24.216067750057277,-6.820782787823305,22.26291294728003
1679688399214547,-12.283512626840547,-24.3076218814374,3.5248340581368893
1679688399230527,11.459525444419,-40.97047379262983,-10.818646524757696
1679688399246507,35.599298084992824,-54.67307545586334,-20.706492713817056
1679688399262488,54.97825589379727,-66.54459449149306,-26.32181277180132
1679688399278468,70.3593499656672,-73.80788891432053,-27.847714961470956
1679688399294448,82.74967574578454,-73.74685282673374,-25.986114290074056
1679688399310428,90.31815060654594,-65.56801709010449,-21.74410620279241
1679688399326408,91.08110170138093,-50.034332799267645,-17.86831464103159
1679688399342389,81.28480964370169,-29.251544975967022,-14.02304112306399
1679688399358369,61.783779659723905,-9.170672159914488,-4.531929503318793
1679688399374349,36.20965896086068,6.118867780575215,6.088349736781879
1679688399390329,6.240939955748786,13.565270466163042,13.015945677881973
1679688399406310,-23.300526436255495,12.558175020981139,16.647592889295765
1679688399422290,-43.53398947127482,5.996795605401644,18.417639429312544
1679688399438270,-50.46158541237514,-8.499275196459848,15.182726787212914
1679688399454250,-43.32036316472113,-37.552452887769846,6.72922865644307
1679688399470231,-31.784542610818676,-74.17410543984124,10.208285648889841
1679688399486211,-35.568780041199375,-111.49767299916084,23.422598611428953
1679688399502197,-93.67513542381937,-141.46639200427262,24.521248187990977
1679688399518177,-167.77294575417716,-164.3854428931105,3.4027618829633184
1679688399534157,-121.93484397650116,-199.93896391241321,-23.697261005569544
1679688399550138,-91.72198062104223,-245.1056687266347,-35.8739604791333
1679688399566118,-146.25772487983522,-272.35828183413446,-43.96124208438232
1679688399582098,-136.91920347905693,-289.14320592050046,-51.43816281376371
1679688399598078,-19.97405966277563,-320.2105745021744,-37.82711528191044
1679688399614059,39.16990920881972,-341.7257953765163,-6.912336919203426
1679688399630039,-23.575188830395973,-314.83939879453726,4.1962310215915295
1679688399646019,-102.52536812390326,-241.9012741283284,-7.980468451972229
1679688399661999,-108.90363927672229,-148.882276646067,-11.551079575799122
1679688399677980,-56.80933852140083,-58.7930113679713,5.294880598153668
1679688399693960,-1.7853055619134466,14.969100480659108,35.721370260166395
1679688399709940,38.55954833295186,69.71847104600602,66.45304036011294
1679688399725920,64.77454795147628,103.77660791943254,89.03639276722356
1679688399741901,73.68581673914696,114.24429694056607,100.87739375906017
1679688399757881,67.97894254978246,104.32593270771349,102.89158464942398
1679688399773861,50.67521171892895,82.74967574578454,98.55802243076232
1679688399789841,28.366521705958576,60.86823834592201,91.02006561379403
1679688399805822,11.673151750972693,45.334554055085164,80.94911116197454
1679688399821777,3.463797970550104,37.064164187075676,66.1478599221789
1679688399837757,2.30411230640118,33.737697413595924,46.82993820096135
1679688399853737,10.63553826199734,32.66956588082712,24.82642862592502
1679688399869718,24.76539253833812,30.380712596322383,2.090485999847374
1679688399885698,31.876096742199024,24.82642862592502,-18.692301823453136
1679688399901678,26.565957122148347,15.548943312733627,-34.897383077744735
1679688399917658,14.847028305485537,5.325398641947004,-44.11383230334934
1679688399933639,0.6561379415579722,0.5035477225909517,-43.28984512092768
1679688399949619,-9.689478904402222,3.128099488822727,-36.97261005569544
1679688399965599,-11.062790875104838,9.628442816815436,-30.045014114595233
1679688399981579,-12.893873502708402,15.152208743419465,-23.08690012970169
1679688399997560,-14.297703517204468,17.288471808956956,-15.152208743419465
1679688400013540,-10.879682612344482,16.861219195849458,-8.987563897154132
1679688400029520,-7.370107576104374,15.21324483100625,-4.959182116426291
1679688400045500,-1.5716792553597543,14.816510261692201,-4.013122758831173
1679688400061481,9.689478904402222,18.57022964827945,-7.248035400930803
1679688400077461,20.34027618829623,26.199740596627635,-15.579461356526963
1679688400093441,21.25581750209801,33.676661326009025,-27.90875104905774
1679688400109421,15.457389181353392,39.04783703364615,-40.39063096055543
1679688400125402,6.301976043335571,42.710002288853275,-47.62340733958956
1679688400141388,-3.6163881895170107,44.26642252231636,-47.80651560234992
1679688400157368,-12.375066758220783,43.62554360265517,-43.28984512092768
1679688400173348,-24.42969405661097,40.36011291676209,-37.308308537422704
1679688400189328,-38.40695811398484,37.27779049362948,-32.54749370565344
1679688400205309,-48.96620126649884,37.09468223086901,-30.411230640115946
1679688400221289,-50.73624780651562,40.726329442282804,-31.876096742198797
1679688400237269,-46.066987106126476,43.90020599679565,-36.7284657053483
1679688400253249,-47.62340733958956,44.32745860990326,-41.489280537117565
1679688400269230,-48.87464713511872,46.616311894407545,-47.07408255130849
1679688400285210,-57.23659113450833,57.23659113450822,-49.51552605477991
1679688400301190,-73.38063630121303,75.82207980468456,-52.14007782101169
1679688400317170,-69.68795300221257,92.17975127794307,-56.77882047760738
1679688400333150,-48.50843060959801,92.2102693217364,-55.10032806897084
1679688400349131,-26.779583428702267,75.36430914778362,-54.09323262378882
1679688400365111,-19.943541618982294,55.9243152513925,-54.55100328068977
1679688400381091,-22.65964751659419,48.020141908903724,-53.29976348516061
1679688400397071,-18.326085297932423,43.595025558861835,-46.76890211337445
1679688400413052,-7.583733882658066,32.36438544289331,-33.89028763256272
1679688400429032,-7.675288014038301,16.250858319981603,-21.683070115205624
1679688400445012,-12.405584802014118,1.052872510872021,-14.053559166857326
1679688400460998,-12.893873502708402,-13.595788509956492,-10.238803692683291
1679688400476978,-5.050736247806526,-21.683070115205624,-6.088349736781879
1679688400492959,8.07202258335235,-22.41550316624705,1.7853055619134466
1679688400508939,24.032959487296694,-17.56313420309766,12.222476539253762
1679688400524919,37.55245288776996,-11.001754787518053,21.774624246585745
1679688400540899,42.252231631952554,-4.684519722285813,26.840619516288825
1679688400556880,47.623407339589676,0.93080033569845,23.57518883039586
1679688400572860,54.39841306172275,5.1117723353933116,15.854123750667554
1679688400588840,59.40337224383916,5.966277561608308,9.597924773021987
1679688400604820,63.004501411459614,3.891050583657602,6.515602349889377
1679688400620801,62.88242923628604,3.5248340581368893,6.515602349889377
1679688400636781,58.73197528038463,5.203326466773433,7.827878233005208
1679688400652761,50.003814755474195,4.623483634699028,9.231708247501274
1679688400668741,38.89524681467924,0.5645838101777372,10.08621347371627
1679688400684722,29.587243457694285,-3.5248340581368893,11.612115663385907
1679688400700702,24.185549706263828,-4.776073853665935,14.297703517204468
1679688400716682,24.063477531090257,-2.97550926985582,16.830701152056122
1679688400732662,30.380712596322383,0.8087281605248791,19.058518348973735
1679688400748643,41.18410009918375,6.546120393682713,20.737010757610392
1679688400764623,51.59075303273062,12.252994583047212,22.171358815899794
1679688400780609,55.954833295185836,14.816510261692201,23.72777904936288
1679688400796589,54.76462958724346,14.328221560997918,24.88746471351169
1679688400812569,50.644693675135386,11.154345006485073,24.155031662470265
1679688400828549,44.235904478523025,6.332494087129021,22.47653925383372
1679688400844530,39.688715953307565,2.9144731822690346,21.71358815899896
1679688400860510,37.21675440604258,3.8300144960708167,21.866178377965866
1679688400876490,35.019455252918306,6.21042191195545,21.68307011520551
1679688400892470,34.71427481498449,7.339589532310924,20.4623483634698
1679688400908451,35.75188830395973,7.125963225757232,18.753337911039807
1679688400924431,38.467994201571855,6.912336919203426,16.739147020675887
1679688400940411,43.533989471274936,9.323262378881509,15.88464179446089
1679688400956391,50.217441062028,16.46448462653541,17.25795376516362
1679688400972372,58.06057831692988,27.45098039215668,18.081940947585167
1679688400988352,66.39200427252604,38.22384985122471,18.47867551689933
1679688401004332,76.40192263675885,48.23376821545753,20.004577706568966
1679688401020312,92.39337758449665,54.45944914930965,21.9577325093461
1679688401036293,96.84901197833233,48.69153887235825,18.72281986724647
1679688401052273,72.77027542534529,32.913710231174264,7.919432364385443
1679688401068253,37.521934843976624,18.692301823453022,-1.9073777370870175
1679688401084233,16.250858319981603,11.215381094071859,-3.4943160143434397
1679688401100189,11.612115663385907,9.384298466468294,0.7782101167315432
1679688401116169,14.54184786755161,10.025177386129485,4.592965590905578
1679688401132149,18.32608529793231,10.605020218204004,4.959182116426291
1679688401148130,20.06561379415575,11.520561532005786,2.9449912260623705
1679688401164110,20.49286640726325,11.947814145113284,1.6327153429465397
1679688401180090,20.431830319676465,14.175631342030897,1.6937514305333252
1679688401196070,18.631265735866236,12.100404364080191,0.07629510948345342
1679688401212051,17.837796597238025,12.52765697718769,4.684519722285813
1679688401228031,16.46448462653541,14.02304112306399,6.088349736781879
1679688401244011,10.330357824063412,12.863355458915066,5.722133211261166
1679688401259991,1.2970168612191628,8.62134737163342,5.325398641947004
1679688401275972,-11.001754787518053,1.4801251239795192,5.783169298847952
1679688401291952,-30.869001297016894,-8.560311284046634,9.872587167162578
1679688401307932,-58.76249332417797,-25.10109102006561,17.074845502403264
1679688401323912,-88.88380254825665,-51.74334325169764,26.199740596627635
1679688401339892,-109.39192797741669,-87.8461890592813,29.80086976424809
1679688401355873,-129.16762035553518,-125.59700923170828,25.375753414205974
1679688401371853,-141.5884641794462,-154.9553673609522,17.13588158999005
1679688401387833,-111.92492561226834,-168.4443427176318,6.759746700236519
1679688401403813,-38.101777676050915,-176.04333562218665,5.264362554360218
1679688401419799,-12.588693064774475,-173.35774776836809,10.421911955443647
1679688401435780,-36.02655069810021,-150.13351644159616,1.9073777370870175
1679688401451760,-52.96406500343335,-110.33798733501192,-14.999618524452558
1679688401467740,-36.362249179827586,-66.69718471046008,-33.06630045014117
1679688401483720,-7.522697795071281,-28.48859388113226,-49.27138170443277
1679688401499701,15.2437628747997,-0.7476920729380936,-64.31677729457545
1679688401515681,29.55672541390095,16.647592889295765,-76.52399481193254
1679688401531661,36.17914091706734,23.514152742809074,-82.38345922026406
1679688401547641,36.57587548638139,19.69939726863504,-79.51476310368514
1679688401563622,33.70717936980259,8.62134737163342,-68.49774929427019
1679688401579602,28.305485618371677,-5.53902494850081,-53.84908827344168
1679688401595582,19.82146944380861,-18.692301823453136,-41.00099183642328
1679688401611562,7.3090714885175885,-25.619897764553343,-33.43251697566188
1679688401627543,-6.9733730067902115,-24.00244144350347,-28.763256275272738
1679688401643523,-14.236667429617683,-14.66392004272518,-22.354467078660264
1679688401659503,-12.832837415121617,0.5340657663844013,-13.687342641336613
1679688401675483,-9.231708247501274,16.525520714122194,-3.555352101930225
1679688401691464,-5.050736247806526,26.901655603875724,7.40062561989771
1679688401707444,1.6327153429465397,30.502784771495953,17.288471808956956
1679688401723424,6.546120393682713,28.15289539940477,23.636224917982645
1679688401739380,5.905241474021523,21.71358815899896,25.803006027313586
1679688401755360,3.921568627450938,14.938582436865772,25.040054932478824
1679688401771340,3.250171663996298,11.062790875104838,21.377889677271583
1679688401787320,1.022354467078685,10.513466086823769,16.55603875791553
1679688401803300,-3.372243839169869,10.482948043030433,11.154345006485073
1679688401819281,-5.966277561608308,8.590829327840083,5.264362554360218
1679688401835261,-5.722133211261166,7.0954451819637825,-0.7171740291447577
1679688401851241,-5.752651255054502,8.560311284046634,-5.905241474021523
1679688401867221,-5.416952773327239,12.80231937132828,-8.163576714732585
1679688401883202,-1.2054627298390415,17.92935072861826,-7.370107576104374
1679688401899182,5.416952773327239,23.14793621728836,-5.600061036087595
1679688401915162,10.391393911650198,27.847714961470956,-4.257267109178315
1679688401931142,12.405584802014118,31.38780804150474,-3.9826047150377235
1679688401947123,11.123826962691624,32.02868696116593,-4.898146028839506
1679688401963103,6.72922865644307,27.389944304570008,-6.088349736781879
1679688401979083,1.0833905546654705,18.234531166552188,-4.928664072632955
1679688401995063,-4.226749065384865,8.74341954680699,-0.7171740291447577
1679688402011044,-8.316166933699492,1.7242694743266611,5.2338445105668825
1679688402027024,-9.536888685435201,-1.266498817425827,8.89600976577401
1679688402043004,-10.147249561303056,-1.022354467078685,9.536888685435201
1679688402058990,-10.055695429922935,1.6327153429465397,8.22461280231937
1679688402074970,-7.827878233005208,5.752651255054502,6.698710612649734
1679688402090951,-2.7924010070954637,10.299839780270077,5.722133211261166
1679688402106931,2.8229190508887996,14.328221560997918,5.081254291599862
1679688402122911,5.50850690470736,15.609979400320412,4.135194934004744
1679688402138891,4.898146028839506,12.863355458915066,2.2735942626077303
1679688402154872,3.1586175326161765,6.88181887541009,0.22888532845047393
1679688402170852,0.8697642481116645,0.5340657663844013,-1.3275349050126124
1679688402186832,-2.853437094682249,-4.470893415732007,-1.8158236057068962
1679688402202812,-5.325398641947004,-7.888914320591994,-1.022354467078685
1679688402218793,-4.989700160219741,-10.452429999236983,0.5645838101777372
1679688402234773,-3.341725795376533,-12.191958495460426,1.4496070801861833
1679688402250753,-1.937895780880467,-12.00885023270007,1.7242694743266611
1679688402266733,-0.7782101167315432,-8.987563897154132,2.0294499122605885
1679688402282714,0.2594033722438098,-4.409857328145222,2.639810788128443
1679688402298694,1.7853055619134466,-0.38147554741738077,4.013122758831173
1679688402314674,4.501411459525457,2.1515220874341594,4.16571297779808
1679688402330654,6.790264744029855,3.1891355764095124,2.731364919508678
1679688402346634,8.22461280231937,4.135194934004744,0.5951018539711868
1679688402362615,8.682383459220205,5.9357595178148586,-1.968413824673803
1679688402378570,7.583733882658066,6.698710612649734,-3.5248340581368893
1679688402394550,7.766842145418423,6.1493858243686645,-2.639810788128443
1679688402410531,7.705806057831637,4.592965590905578,0.93080033569845
1679688402426511,5.722133211261166,1.8158236057068962,4.928664072632955
1679688402442491,3.6163881895170107,-0.6866559853513081,7.40062561989771
1679688402458471,1.4190890363927338,-1.6632333867398756,7.919432364385443
1679688402474452,-0.9002822919051141,-2.426184481574751,6.179903868162
1679688402490432,-1.9989318684672526,-4.074158846417959,3.4027618829633184
1679688402506412,-1.6021972991530902,-5.783169298847952,1.0833905546654705
1679688402522392,-0.44251163500416624,-6.301976043335571,-0.19836728465702436
1679688402538373,1.2970168612191628,-4.135194934004744,-1.1749446860455919
1679688402554353,2.7924010070954637,0.8392462043183286,-1.6021972991530902
1679688402570333,4.16571297779808,7.675288014038301,-0.5951018539711868
1679688402586313,6.0578316929884295,13.99252307927054,1.7547875181201107
1679688402602294,8.438239108873063,18.35660334172576,4.409857328145222
1679688402618274,10.421911955443647,20.737010757610392,6.576638437476163
1679688402634254,12.314030670633997,21.988250553139437,7.919432364385443
1679688402650234,15.671015487907198,24.12451361867693,7.827878233005208
1679688402666215,18.631265735866236,28.427557793545247,6.179903868162
1679688402682195,17.80727855344469,32.60852979324045,3.3112077515830833
1679688402698181,14.02304112306399,34.13443198290997,-0.5951018539711868
1679688402714161,7.797360189211872,31.754024567025454,-2.97550926985582
1679688402730141,-0.2899214160372594,25.406271457999537,-1.5411612115663047
1679688402746122,-8.133058670939135,17.074845502403264,4.898146028839506
1679688402762102,-11.673151750972693,9.475852597848416,15.182726787212914
1679688402778082,-9.842069123369129,2.731364919508678,24.3076218814374
1679688402794062,-6.9733730067902115,-3.768978408484031,20.645456626230157
1679688402810042,-9.628442816815436,-10.391393911650198,6.027313649195094
1679688402826023,-16.09826810101481,-16.372930495155288,-6.9733730067902115
1679688402842003,-25.192645151445845,-22.14084077210657,-12.710765239948046
1679688402857983,-35.29411764705878,-30.563820859082966,-11.398489356832215
1679688402873963,-45.60921644922553,-41.367208361943995,-5.264362554360218
1679688402889944,-52.29266803997871,-51.46868085755705,1.9073777370870175
1679688402905924,-53.116655222400254,-57.93850614175631,8.62134737163342
1679688402921904,-47.07408255130849,-59.34233615625237,14.419775692378039
1679688402937884,-38.31540398260472,-55.832761120012265,18.844892042420042
1679688402953865,-31.60143434805832,-48.59998474097813,22.537575341420506
1679688402969845,-27.725642786297385,-39.10887312123293,26.657511253528583
1679688402985825,-26.71854734111548,-29.28206301976047,30.289158464942375
1679688403001805,-26.626993209735247,-20.79804684519729,34.13443198290997
1679688403017761,-26.230258640421198,-14.084077210650776,37.705043106736866
1679688403033741,-28.122377355611548,-7.766842145418423,39.658197909514
1679688403049720,-28.61066605630583,-3.372243839169869,38.681620508125434
1679688403065700,-23.63622491798276,-1.6021972991530902,37.003128099489004
1679688403081680,-15.304798962386485,-2.30411230640118,37.27779049362948
1679688403097660,-6.88181887541009,-5.691615167467717,37.521934843976624
1679688403113639,0.19836728465702436,-10.391393911650198,34.80582894636473
1679688403129619,5.081254291599862,-14.908064393072323,28.91584649423953
1679688403145599,7.583733882658066,-18.722819867246585,20.401312275883015
1679688403161579,7.980468451972229,-22.201876859693357,10.482948043030433
1679688403177559,7.949950408178779,-24.521248187991205,2.6703288319218927
1679688403193538,5.264362554360218,-24.277103837644063,-1.8768596932936816
1679688403209518,-4.074158846417959,-21.560997940032053,-4.074158846417959
1679688403225498,-14.938582436865772,-19.241626611734205,-2.9144731822690346
1679688403241478,-24.368657969024184,-17.746242465858018,2.4872205691615363
1679688403257457,-32.974746318760936,-16.86121919584957,8.987563897154132
1679688403273437,-42.22171358815899,-18.051422903791945,13.015945677881973
1679688403289417,-50.37003128099491,-24.399176012817634,11.33745326924543
1679688403305397,-49.42397192339979,-38.223849851224486,1.4190890363927338
1679688403321376,-18.936446173800277,-66.72770275425341,-15.274280918593035
1679688403337371,35.9349965667202,-126.32944228274971,-50.61417563134205
1679688403353352,28.824292362859524,-187.2129396505684,-110.55161364156561
1679688403369332,-21.286335545891575,-231.7082475013351,-181.26192111085686
1679688403385312,-55.924315251392386,-246.66208896009766,-239.21568627450984
1679688403401292,-58.640421149004396,-234.2107270923933,-271.83947508964684
1679688403417273,-49.63759822995348,-215.04539559014268,-281.11696040283823
1679688403433253,-39.10887312123293,-196.39887083237966,-270.9544518196384
1679688403449233,-24.185549706263828,-177.69130998702985,-251.05668726634622
1679688403465213,-8.712901503013654,-159.89929045548183,-230.39597161821928
1679688403481194,-0.7782101167315432,-146.1661707484551,-212.02410925459685
1679688403497174,0.8087281605248791,-131.8837262531472,-190.75303273060194
1679688403513154,0.9613183794918996,-110.15487907225156,-163.04264896620123
1679688403529134,-0.2594033722438098,-83.32951857785918,-125.26131074998091
1679688403545115,0.2594033722438098,-57.694361791409165,-78.66025787747014
1679688403561095,5.813687342641288,-35.35515373464557,-30.22812237735559
1679688403577075,11.825741969939713,-16.403448538948737,14.328221560997918
1679688403593055,13.87045090409697,1.4801251239795192,51.83489738307776
1679688403609036,15.060654612039343,19.974059662775517,78.35507743953599
1679688403625016,16.739147020675887,36.20965896086068,93.52254520485235
1679688403640996,19.15007248035397,47.47081712062254,99.47356374456399
1679688403656952,23.208972304875147,54.18478675516894,96.81849393453899
1679688403672931,28.244449530785005,56.44312199588012,86.86961165789262
1679688403688911,32.97474631876116,54.76462958724346,70.57297627222101
1679688403704891,34.897383077744735,50.09536888685443,48.69153887235825
1679688403720871,31.78454261081879,43.65606164644851,24.277103837643836
1679688403736850,22.018768596932887,36.7284657053483,2.6092927443351073
1679688403752830,7.431143663691159,27.51201647974358,-11.001754787518053
1679688403768810,-5.661097123674381,15.274280918593035,-14.145113298237561
1679688403784790,-7.919432364385443,1.7853055619134466,-9.903105210955914
1679688403800769,-1.2970168612191628,-10.055695429922935,-4.531929503318793
1679688403816749,0.07629510948345342,-18.295567254139087,-1.052872510872021
1679688403832729,-4.470893415732007,-20.706492713817056,-0.045777065690117524
1679688403848709,-5.600061036087595,-18.814373998626706,-1.2359807736323773
1679688403864688,-1.8768596932936816,-16.464484626535523,-3.128099488822727
1679688403880668,1.8768596932936816,-16.403448538948737,-3.921568627450938
1679688403896648,5.813687342641288,-18.448157473105994,-2.7924010070954637
1679688403912628,11.673151750972693,-19.150072480354083,-0.19836728465702436
1679688403928608,18.966964217593613,-15.457389181353392,5.050736247806526
1679688403944587,26.87113756008239,-5.386434729533789,9.384298466468294
1679688403960567,30.655374990463088,9.44533455405508,7.919432364385443
1679688403976562,28.000305180437863,23.392080567635503,2.334630350194516
1679688403992542,23.331044480048718,31.448844129091412,-5.447470817120575
1679688404008522,19.058518348973735,33.27992675669498,-12.68024719615471
1679688404024501,15.396353093766606,31.78454261081879,-18.844892042420156
1679688404040481,11.764705882352928,28.27496757457834,-25.528343633173108
1679688404056461,7.370107576104374,25.223163195239067,-31.0215915159838
1679688404072441,3.6469062333104603,24.88746471351169,-30.991073472190465
1679688404088420,3.921568627450938,28.427557793545247,-24.124513618677042
1679688404104400,7.339589532310924,33.95132372014973,-11.520561532005786
1679688404120380,9.597924773021987,38.864728770885904,5.050736247806526
1679688404136360,10.177767605096506,41.30617227435732,22.110322728313008
1679688404152340,11.886778057526499,40.970473792629946,36.27069504844758
1679688404168319,12.863355458915066,39.20042725261328,42.52689402609303
1679688404184299,11.673151750972693,36.66742961776163,38.590066376745426
1679688404200279,9.384298466468294,34.59220263981092,25.131609063858832
1679688404216259,8.834973678187225,33.0052643625545,4.86762798504617
1679688404232238,11.673151750972693,31.113145647363808,-16.61707484550243
1679688404248218,14.602883955138395,30.655374990463088,-32.05920500495915
1679688404264198,11.001754787518053,32.1507591363395,-36.636911573968064
1679688404280178,2.5787747005416577,32.88319218738093,-27.481498435950243
1679688404296142,-0.41199359121083035,29.159990844586673,-9.872587167162578
1679688404312122,4.745555809872599,20.37079423208968,8.133058670939135
1679688404328102,7.278553444724139,11.917296101319835,19.851987487601946
1679688404344082,2.9449912260623705,8.1025406271458,22.26291294728003
1679688404360061,-1.7853055619134466,9.689478904402222,17.288471808956956
1679688404376041,-2.3651483939879654,15.609979400320412,8.987563897154132
1679688404392021,1.4496070801861833,23.788815136949665,0.7476920729380936
1679688404408001,7.1869993133440175,32.24231326771974,-4.16571297779808
1679688404423980,10.879682612344482,38.681620508125434,-4.379339284351886
1679688404439960,10.330357824063412,40.39063096055543,0.9918364232852355
1679688404455940,8.1025406271458,37.15571831845591,10.543984130617218
1679688404471920,6.1493858243686645,31.47936217288475,20.309758144502894
1679688404487899,3.677424277103796,24.155031662470265,25.925078202487157
1679688404503879,2.426184481574751,16.31189440756839,24.3076218814374
1679688404519859,2.7924010070954637,10.971236743724717,17.22743572137017
1679688404535839,4.226749065384865,10.605020218204004,9.201190203707938
1679688404551818,7.0954451819637825,15.793087663080769,3.1891355764095124
1679688404567798,13.046463721675423,25.253681239032403,-1.2054627298390415
1679688404583778,19.577325093461468,35.41618982223258,-6.088349736781879
1679688404599758,22.995345998321454,44.815747310597544,-8.957045853360796
1679688404615753,23.270008392461932,53.391317616540846,-6.240939955748786
1679688404631733,23.666742961776094,58.70145723659107,1.052872510872021
1679688404647712,24.521248187990977,60.04425116350035,10.513466086823769
1679688404663692,24.093995574883593,58.457312886243926,19.058518348973735
1679688404679672,21.499961852445153,56.32104982070655,23.880369268329787
1679688404695652,15.671015487907198,53.33028152895395,24.36865796902407
1679688404711631,9.323262378881509,49.60708018616015,22.598611429007292
1679688404727611,7.675288014038301,46.03646906233325,20.737010757610392
1679688404743591,9.689478904402222,44.14435034714279,19.638361181048253
1679688404759571,10.330357824063412,44.5716029602504,18.417639429312544
1679688404775550,9.109636072327703,45.67025253681254,17.563134203097547
1679688404791530,10.63553826199734,46.89097428854825,17.1053635461966
1679688404807510,16.15930418860148,48.722056916151814,16.617074845502316
1679688404823490,22.35446707866015,52.9335469596399,16.098268101014696
1679688404839470,26.718547341115254,61.38704509040963,15.487907225146841
1679688404855449,27.51201647974358,72.12939650568387,15.121690699626129
1679688404871429,24.917982757305253,79.94201571679241,14.877546349278987
1679688404887409,21.194781414511226,82.62760357061097,15.854123750667554
1679688404903389,18.112458991378617,80.18616006713955,19.79095140001516
1679688404919368,17.13588158999005,73.0754558632791,26.626993209735247
1679688404935363,18.753337911039807,63.70641641870748,34.0123598077364
1679688404951343,19.302662699320877,53.81857022964823,38.803692683299005
1679688404967323,17.166399633783385,44.54108491645684,39.93286030365471
1679688404983303,15.640497444113748,36.08758678568711,36.91157396810877
1679688404999282,17.715724422064454,27.939269092850964,30.228122377355476
1679688405015262,23.483634699015738,21.408407721065032,19.363698786907662
1679688405031242,30.106050202181905,19.15007248035397,4.989700160219741
1679688405047222,35.17204547188544,21.896696421759316,-12.405584802014118
1679688405063202,40.54322117952256,27.603570611123814,-32.730601968413794
1679688405079181,49.362935835813005,29.587243457694285,-55.283436331731195
1679688405095161,62.546730754558666,22.659647516594077,-80.43030441748692
1679688405111141,82.01724269474312,5.813687342641288,-106.64530403601123
1679688405127121,110.70420386053252,-11.062790875104838,-136.00366216525515
1679688405143100,123.94903486686508,-12.222476539253762,-168.84107728694585
1679688405159080,96.57434958419185,1.7853055619134466,-185.41237506675827
1679688405175060,52.567330434119185,22.323949034866814,-174.3648432135501
1679688405191040,33.0052643625545,39.383535515373524,-144.91493095292594
1679688405207019,40.207522697795184,46.494239719233974,-108.65949492637515
1679688405222999,53.23872739757394,43.86968795300231,-70.48142214084078
1679688405238979,55.191882200351074,35.04997329671187,-38.010223544670794
1679688405254974,40.848401617456375,23.17845426108181,-14.053559166857326
1679688405270954,14.755474174105416,11.398489356832215,4.135194934004744
1679688405286934,-9.140154116121153,3.006027313649156,18.295567254138973
1679688405302913,-19.88250553139551,0.5645838101777372,27.695124742503822
1679688405318893,-22.751201647974426,3.463797970550104,33.18837262531474
1679688405334873,-23.392080567635617,10.605020218204004,34.683756771191156
1679688405350853,-23.422598611429066,21.866178377965866,33.12733653772807
1679688405366832,-22.110322728313122,31.967650873579032,29.343099107347143
1679688405382812,-17.685206378271232,36.545357442588056,23.941405355916572
1679688405398792,-10.605020218204004,37.39986266880305,18.844892042420042
1679688405414772,-4.379339284351886,35.96551461051354,15.21324483100625
1679688405430751,-1.5411612115663047,32.42542153047998,12.375066758220783
1679688405446731,-1.144426642252256,26.23025864042097,9.475852597848416
1679688405462711,-1.2970168612191628,17.65468833447767,6.72922865644307
1679688405478691,0.015259021896667946,7.980468451972229,5.172808422980097
1679688405494670,3.921568627450938,1.1749446860455919,3.891050583657602
1679688405510650,8.1025406271458,-0.41199359121083035,2.853437094682249
1679688405526630,10.208285648889841,2.3956664377813013,0.9613183794918996
1679688405542610,11.062790875104838,7.980468451972229,-1.937895780880467
1679688405558590,11.123826962691624,15.609979400320412,-5.142290379186647
1679688405574554,10.147249561303056,25.07057297627216,-7.40062561989771
1679688405590534,9.170672159914488,36.27069504844758,-7.40062561989771
1679688405606514,7.339589532310924,44.632639047837074,-4.83710994125272
1679688405622493,4.3183031967651,46.3721675440604,-0.6866559853513081
1679688405638473,-0.16784924086368846,41.367208361943995,4.043640802624509
1679688405654453,-4.83710994125272,31.0215915159838,8.438239108873063
1679688405670433,-8.712901503013654,18.32608529793231,11.367971313038765
1679688405686412,-10.940718699931267,7.156481269550568,11.886778057526499
1679688405702392,-11.33745326924543,0.7476920729380936,9.628442816815436
1679688405718372,-10.543984130617218,0.106813153276903,5.53902494850081
1679688405734352,-8.499275196459848,2.853437094682249,1.5106431677729688
1679688405750332,-4.715037766079149,1.1749446860455919,-3.4943160143434397
1679688405766311,-0.44251163500416624,-6.2714579995422355,-8.560311284046634
1679688405782291,-0.3204394598305953,-20.584420538643485,-13.076981765468759
1679688405798271,-4.562447547112242,-42.64896620126649,-19.241626611734205
1679688405814251,-11.245899137865194,-69.59639887083233,-26.260776684214534
1679688405830230,-19.638361181048367,-92.6985580224308,-30.869001297016894
1679688405846210,-26.108186465247627,-106.73685816739146,-31.265735866330942
1679688405862190,-26.04715037766084,-112.44373235675596,-29.373617151140593
1679688405878170,-18.692301823453136,-110.00228885328454,-26.626993209735247
1679688405894165,-9.842069123369129,-100.20599679560542,-22.995345998321568
1679688405910144,-4.86762798504617,-84.64179446097512,-18.966964217593727
1679688405926124,-3.372243839169869,-66.51407644769972,-15.152208743419465
1679688405942104,-2.0294499122605885,-48.2948043030442,-12.191958495460426
1679688405958084,2.3651483939879654,-31.662470435645105,-9.41481651026163
1679688405974063,7.583733882658066,-17.502098115510876,-6.485084306095928
1679688405990043,9.140154116121153,-6.607156481269499,-4.715037766079149
1679688406006023,5.53902494850081,2.0294499122605885,-4.1046768902112944
1679688406022003,-0.4730296787976158,9.079118028534367,-2.426184481574751
1679688406037983,-5.9357595178148586,14.938582436865772,1.266498817425827
1679688406053962,-9.475852597848416,20.34027618829623,5.966277561608308
1679688406069942,-11.123826962691624,25.955596246280493,12.252994583047212
1679688406085922,-11.154345006485073,32.30334935530641,20.126649881742537
1679688406101902,-12.222476539253762,38.6511024643321,28.091859311818098
1679688406117881,-14.480811779964824,45.24299992370493,37.94918745708401
1679688406133861,-10.66605630579079,52.1400778210118,48.20325017166397
1679688406149841,5.691615167467717,60.563057907988195,55.832761120012265
1679688406165821,27.023727779049295,66.84977492942699,55.9243152513925
1679688406181800,44.54108491645684,65.26283665217056,45.21248187991159
1679688406197780,57.32814526588845,58.213168535896784,19.79095140001516
1679688406213745,65.32387273975746,54.76462958724346,-13.87045090409697
1679688406229725,58.82352941176464,59.06767376211178,-55.98535133897917
1679688406245704,28.946364538033095,70.84763866636149,-90.28763256275272
1679688406261684,-21.10322728313122,80.85755703059431,-97.61196307316698
1679688406277664,-61.11238269626915,82.01724269474312,-69.53536278324555
1679688406293644,-64.9271381704433,70.87815671015483,-23.147936217288475
1679688406309623,-45.88387884336612,48.50843060959801,20.004577706568966
1679688406325603,-37.36934462500949,19.79095140001516,46.12802319371326
1679688406341583,-42.46585793850613,-9.903105210955914,48.20325017166397
1679688406357563,-52.75043869687954,-34.988937209124856,35.17204547188544
1679688406373542,-61.23445487144272,-49.60708018616015,19.424734874494447
1679688406389522,-63.8590066376745,-53.97116044861525,7.858396276798658
1679688406405502,-62.180514229037954,-54.581521324483106,2.212558175020945
1679688406421482,-56.53467612726024,-54.27634088654918,1.6327153429465397
1679688406437461,-44.32745860990303,-51.31609063859014,3.0670634012359415
1679688406453441,-26.56595712214846,-44.66315709163041,4.257267109178315
1679688406469421,-10.574502174410554,-35.62981612878616,5.172808422980097
1679688406485401,0.2899214160372594,-28.88532845044631,-3.0365453574426056
1679688406501381,10.849164568551146,-22.476539253833835,-22.65964751659419
1679688406517360,21.988250553139437,-8.346684977492941,-51.83489738307776
1679688406533355,29.068436713206665,8.74341954680699,-88.0598153658351
1679688406549335,25.65041580834668,26.29129472800787,-115.8922713054094
1679688406565315,12.13092240787364,45.91439688715968,-122.91142137788972
1679688406581295,-8.957045853360796,61.69222552834367,-100.8468757152666
1679688406597274,-20.065613794155865,69.01655603875793,-54.36789501792941
1679688406613254,-9.323262378881509,65.14076447699699,-4.379339284351886
1679688406629234,4.3183031967651,52.78095674067299,30.31967650873571
1679688406645214,-2.2735942626077303,38.31540398260472,48.87464713511872
1679688406661193,-18.936446173800277,28.366521705958576,53.81857022964823
1679688406677173,-31.60143434805832,23.331044480048718,51.04142824444966
1679688406693153,-39.84130617227436,18.32608529793231,47.318226901655635
1679688406709133,-45.273517967498265,12.405584802014118,45.63973449301898
1679688406725113,-45.48714427405196,7.3090714885175885,47.07408255130849
1679688406741092,-38.5900663767452,5.569542992294146,47.68444342717635
1679688406757072,-30.22812237735559,6.88181887541009,44.48004882887017
1679688406773052,-25.162127107652395,9.781033035782343,36.820019836728534
1679688406789032,-22.171358815899907,12.13092240787364,23.971923399710022
1679688406805011,-18.63126573586635,13.260090028229115,9.140154116121153
1679688406820991,-11.184863050278409,12.771801327534831,-4.379339284351886
1679688406836971,-3.097581445029391,10.330357824063412,-14.66392004272518
1679688406852935,1.1749446860455919,6.118867780575215,-19.028000305180512
1679688406868915,4.043640802624509,1.1139085984588064,-18.142977035172066
1679688406884895,7.1869993133440175,-3.921568627450938,-13.534752422369706
1679688406900875,9.384298466468294,-7.949950408178779,-7.644769970244852
1679688406916854,9.842069123369129,-10.269321736476627,-3.2806897077897474
1679688406932834,9.29274433508806,-10.605020218204004,-1.937895780880467
1679688406948814,4.409857328145222,-9.750514991989007,-1.7242694743266611
1679688406964794,-3.5248340581368893,-8.1025406271458,0.22888532845047393
1679688406980774,-8.407721065079727,-5.416952773327239,4.745555809872599
1679688406996753,-10.818646524757696,-3.1891355764095124,11.276417181658644
1679688407012733,-12.985427634088637,-1.052872510872021,16.861219195849458
1679688407028713,-15.091172655832679,1.5411612115663047,19.54680704966802
1679688407044693,-16.739147020676,2.3956664377813013,20.950637064164084
1679688407060672,-15.457389181353392,2.4567025253680868,22.201876859693243
1679688407076652,-10.177767605096506,3.0365453574426056,22.415503166246936
1679688407092632,-4.257267109178315,4.1046768902112944,19.729915312428375
1679688407108612,2.2430762188143945,5.447470817120575,12.893873502708402
1679688407124591,9.750514991989007,6.851300831616641,4.3183031967651
1679688407140571,17.410543984130527,8.1025406271458,-2.3956664377813013
1679688407156551,23.514152742809074,9.475852597848416,-6.668192568856284
1679688407172546,25.71145189593335,10.330357824063412,-8.194094758525921
1679688407188526,25.46730754558621,10.63553826199734,-5.996795605401644
1679688407204506,24.3076218814374,9.842069123369129,-0.045777065690117524
1679688407220485,24.185549706263828,7.980468451972229,9.811551079575793
1679688407236465,26.260776684214534,5.783169298847952,20.21820401312266
1679688407252445,28.122377355611434,3.921568627450938,27.359426260776672
1679688407268425,27.11528191042953,1.937895780880467,30.655374990463088
1679688407284404,24.856946669718354,1.4496070801861833,31.66247043564522
1679688407300384,25.253681239032403,3.372243839169869,30.380712596322383
1679688407316364,28.091859311818098,7.3090714885175885,26.565957122148347
1679688407332344,29.312581063553807,12.405584802014118,20.8896009765773
1679688407348323,27.664606698710486,16.220340276188267,12.954909590295188
1679688407364303,24.216067750057164,16.55603875791553,4.226749065384865
1679688407380283,21.438925764858368,13.99252307927054,-3.3112077515830833
1679688407396263,20.737010757610392,10.177767605096506,-8.987563897154132
1679688407412243,20.309758144502894,5.50850690470736,-12.558175020981139
1679688407428222,18.05142290379183,1.9989318684672526,-14.969100480659108
1679688407444202,14.328221560997918,0.22888532845047393,-16.128786144808146
1679688407460182,12.954909590295188,1.144426642252256,-16.159304188601595
1679688407476162,13.35164415960935,4.989700160219741,-14.66392004272518
1679688407492126,11.032272831311502,10.849164568551146,-11.642633707179357
1679688407508106,7.003891050583661,17.563134203097547,-8.07202258335235
1679688407524086,3.372243839169869,24.063477531090257,-5.050736247806526
1679688407540065,-0.4730296787976158,28.763256275272624,-3.1586175326161765
1679688407556045,-4.470893415732007,30.380712596322383,-2.090485999847374
1679688407572025,-6.363012130922357,30.07553215838857,-0.6866559853513081
1679688407588005,-7.522697795071281,29.526207370107386,2.090485999847374
1679688407603984,-8.560311284046634,28.763256275272624,4.898146028839506
1679688407619964,-9.597924773021987,28.427557793545247,6.332494087129021
1679688407635944,-10.299839780270077,28.0308232242312,6.72922865644307
1679688407651924,-10.08621347371627,26.504921034561676,6.698710612649734
1679688407667904,-8.285648889906156,24.032959487296694,6.698710612649734
1679688407683883,-6.240939955748786,21.83566033417253,7.522697795071281
1679688407699863,-4.348821240558436,19.851987487601946,9.018081940947582
1679688407715843,-1.144426642252256,17.502098115510762,9.99465934233615
1679688407731823,4.257267109178315,14.969100480659108,9.536888685435201
1679688407747802,11.245899137865194,12.832837415121617,8.163576714732585
1679688407763782,17.502098115510762,10.11673151750972,6.515602349889377
1679688407779762,22.018768596932887,6.698710612649734,4.623483634699028
1679688407795742,25.07057297627216,4.257267109178315,3.4332799267566543
1679688407811737,29.312581063553807,4.226749065384865,1.5106431677729688
1679688407827716,34.62272068360426,5.752651255054502,-3.128099488822727
1679688407843696,41.70290684367137,5.355916685740453,-13.229571984435779
1679688407859676,53.36079957274751,2.426184481574751,-34.195468070496645
1679688407875656,67.39909971770817,-2.8229190508887996,-71.91577019913018
1679688407891636,84.15350576028072,-9.903105210955914,-131.48699168383303
1679688407907615,95.62829022659662,-11.825741969939713,-204.6997787441826
1679688407923595,90.1350423437857,-7.888914320591994,-259.9069199664301
1679688407939575,86.04562447547096,-2.3956664377813013,-277.9430838483254
1679688407955555,96.14709697108424,2.731364919508678,-264.9729152361333
1679688407971534,114.24429694056607,-1.9989318684672526,-226.2760357061112
1679688407987514,130.51041428244457,-17.1663996337835,-173.1441214618144
1679688408003494,146.77653162432284,-36.17914091706723,-121.3244831006333
1679688408019474,163.04264896620134,-51.68230716411085,-80.36926832990014
1679688408035453,168.68848706797894,-60.59357595178153,-51.95696955825133
1679688408051433,156.54230563820875,-64.31677729457545,-31.60143434805832
1679688408067413,125.41390096894793,-62.60776684214545,-15.030136568245894
1679688408083393,83.72625314717311,-54.76462958724346,-0.07629510948345342
1679688408099372,42.6489662012666,-41.39772640573733,13.168535896848994
1679688408115352,9.323262378881509,-24.856946669718468,25.00953688868526
1679688408131347,-15.426871137560056,-10.238803692683291,37.30830853742282
1679688408147327,-31.296253910124392,1.846341649500232,49.63759822995348
1679688408163307,-41.611352712291136,13.748378728923399,60.563057907988195
1679688408179287,-47.989623865110275,24.155031662470265,68.2230869001296
1679688408195266,-51.98748760204478,32.79163805600069,71.2138551918822
1679688408211246,-53.940642404821915,36.88105592431543,69.9320973525596
1679688408227226,-54.67307545586334,37.43038071259639,64.95765621423675
1679688408243206,-54.15426871137561,36.05706874189377,58.70145723659107
1679688408259185,-49.97329671168086,33.18837262531474,51.49919890135038
1679688408275165,-40.543221179522334,30.167086289768804,43.015182726787316
1679688408291145,-28.732738231479402,27.359426260776672,33.676661326009025
1679688408307125,-18.2345311665523,24.917982757305253,23.758297093156216
1679688408323104,-10.147249561303056,22.751201647974312,13.35164415960935
1679688408339084,-3.1586175326161765,18.936446173800164,1.937895780880467
1679688408355064,2.6092927443351073,14.724956130311966,-11.245899137865194
1679688408371044,5.905241474021523,12.191958495460426,-25.284199282825966
1679688408387024,6.668192568856284,11.85626001373305,-38.28488593881127
1679688408403003,6.240939955748786,12.52765697718769,-47.7149614709698
1679688408418983,3.128099488822727,12.893873502708402,-52.38422217135883
1679688408434963,-20.187685969329436,11.032272831311502,-56.04638742656596
1679688408450927,-89.28053711757082,7.919432364385443,-65.59853513389794
1679688408466907,-174.60898756389724,11.123826962691624,-77.5005722133211
1679688408482887,-204.33356221866188,24.155031662470265,-78.04989700160218
1679688408498867,-152.452887769894,34.04287785152974,-63.12657358663307
1679688408514846,-63.30968184939343,30.563820859082853,-42.74052033264661
1679688408530826,-8.468757152666512,18.966964217593613,-23.544670786602637
1679688408546806,-8.74341954680699,9.536888685435201,-12.466620889600904
1679688408562786,-30.441748683909395,9.689478904402222,-8.62134737163342
1679688408578765,-42.31326771953911,18.99748226138695,-5.966277561608308
1679688408594745,-44.26642252231625,31.052109559777136,-1.4190890363927338
1679688408610725,-43.8696879530022,42.771038376440174,5.203326466773433
1679688408626705,-45.822842755779334,50.308995193408236,14.389257648584703
1679688408642685,-50.553139543755265,54.52048523689632,25.77248798352025
1679688408658664,-60.62409399557487,54.8561837186237,37.15571831845591
1679688408674644,-65.87319752803842,50.827801937895856,49.51552605477991
1679688408690624,-57.297627222095116,44.26642252231636,66.39200427252604
1679688408706604,-39.993896391241265,35.38567177843902,88.82276646066975
1679688408722583,-21.622034027618838,25.00953688868526,113.78652628366535
1679688408738563,-3.677424277103796,15.91515983825434,139.4522011139086
1679688408754543,14.602883955138395,11.245899137865194,158.55649652857255
1679688408770538,21.16426337071789,9.079118028534367,171.2825207904175
1679688408786518,14.084077210650776,9.750514991989007,178.88151369497223
1679688408802497,-2.5177386129548722,14.389257648584703,173.2967116807813
1679688408818477,-26.230258640421198,21.896696421759316,157.91561760891136
1679688408834457,-49.66811627374693,30.77744716563666,136.06469825284194
1679688408850437,-63.70641641870759,38.345922026398284,110.46005951018537
1679688408866417,-64.9271381704433,42.893110551613745,83.54314488441287
1679688408882396,-55.19188220035096,44.38849469748993,56.44312199588012
1679688408898376,-36.789501792935084,43.04570077058065,31.204699778744043
1679688408914356,-13.687342641336613,39.383535515373524,7.431143663691159
1679688408930336,8.377203021286277,34.8668650339514,-15.762569619287433
1679688408946315,25.741969939726687,30.19760433356214,-33.58510719462879
1679688408962295,38.6511024643321,25.223163195239067,-43.228809033340895
1679688408978275,45.82284275577945,20.21820401312266,-44.66315709163041
1679688408994255,47.440299076829206,15.396353093766606,-39.81078812848091
1679688409010234,45.12092774853136,11.520561532005786,-33.46303501945522
1679688409026214,36.88105592431543,9.140154116121153,-27.206836041809765
1679688409042194,21.866178377965866,8.499275196459848,-19.18059052414742
1679688409058174,3.4332799267566543,8.590829327840083,-9.109636072327703
1679688409074154,-11.917296101319835,7.949950408178779,2.059967956054038
1679688409090118,-21.10322728313122,6.607156481269499,11.947814145113284
1679688409106098,-25.34523537041275,4.440375371938671,19.82146944380861
1679688409122078,-25.589379720759894,2.2735942626077303,24.36865796902407
1679688409138057,-22.903791866941333,0.93080033569845,25.77248798352025
1679688409154037,-20.12664988174265,0.8087281605248791,24.277103837643836
1679688409170017,-17.654688334477783,1.6937514305333252,20.431830319676465
1679688409185997,-15.457389181353392,3.1586175326161765,16.342412451361838
1679688409201976,-12.161440451666977,4.989700160219741,13.626306553749828
1679688409217956,-7.55321583886473,6.393530174715806,13.382162203402686
1679688409233936,-4.135194934004744,6.668192568856284,13.138017853055544
1679688409249916,-5.0202182040130765,6.9733730067902115,10.574502174410554
1679688409265895,-8.07202258335235,9.506370641641865,6.363012130922357
1679688409281875,-10.818646524757696,11.551079575799122,3.463797970550104
1679688409297855,-13.412680247196135,13.443198290989471,2.731364919508678
1679688409313835,-13.595788509956492,13.3211261158159,4.3183031967651
1679688409329815,-9.56740672922865,11.001754787518053,7.156481269550568
1679688409345794,-6.72922865644307,7.40062561989771,9.536888685435201
1679688409361774,-8.712901503013654,4.3183031967651,10.269321736476627
1679688409377754,-11.490043488212336,3.006027313649156,9.353780422674845
1679688409393734,-11.459525444419,3.8300144960708167,7.522697795071281
1679688409409729,-9.475852597848416,5.50850690470736,5.0202182040130765
1679688409425708,-6.9733730067902115,7.431143663691159,2.5787747005416577
1679688409441688,-1.846341649500232,9.201190203707938,0.38147554741738077
1679688409457668,6.454566262302592,10.75761043717091,-1.2970168612191628
1679688409473648,14.206149385824347,11.062790875104838,-1.7242694743266611
1679688409489627,18.631265735866236,10.11673151750972,-2.212558175020945
1679688409505607,17.959868772411596,8.89600976577401,-3.341725795376533
1679688409521587,11.947814145113284,8.1025406271458,-5.325398641947004
1679688409537567,5.050736247806526,7.888914320591994,-7.125963225757232
1679688409553547,1.7242694743266611,7.766842145418423,-7.1869993133440175
1679688409569526,0.045777065690117524,5.844205386434737,-7.217517357137353
1679688409585506,0.5951018539711868,3.0365453574426056,-6.88181887541009
1679688409601486,4.135194934004744,0.7476920729380936,-4.959182116426291
1679688409617466,7.339589532310924,-0.5035477225909517,-2.30411230640118
1679688409633445,7.370107576104374,-0.5645838101777372,0.22888532845047393
1679688409649425,2.30411230640118,-0.015259021896667946,-0.8697642481116645
1679688409665405,-6.790264744029855,0.8087281605248791,-5.569542992294146
1679688409681385,-11.001754787518053,1.6937514305333252,-8.712901503013654
1679688409697364,-7.370107576104374,1.3275349050126124,-10.391393911650198
1679688409713344,-2.5787747005416577,-1.6327153429465397,-12.252994583047212
1679688409729339,0.16784924086368846,-5.813687342641288,-14.847028305485537
1679688409745319,1.6937514305333252,-8.74341954680699,-16.86121919584957
1679688409761299,2.5787747005416577,-9.41481651026163,-17.044327458609928
1679688409777279,3.341725795376533,-8.529793240253298,-15.426871137560056
1679688409793258,4.592965590905578,-6.759746700236519,-12.80231937132828
1679688409809238,4.654001678492364,-4.776073853665935,-9.933623254749364
1679688409825218,1.7242694743266611,-2.97550926985582,-7.705806057831637
1679688409841198,-2.8229190508887996,-2.761882963302014,-5.569542992294146
1679688409857177,-6.790264744029855,-3.5248340581368893,-4.898146028839506
1679688409873157,-8.682383459220205,-5.600061036087595,-3.7079423208972457
1679688409889137,-5.691615167467717,-7.522697795071281,-1.8768596932936816
