Timestamp (microseconds),Accel X (g),Accel Y (g),Accel Z (g)
1677618667748962,0.12445258258945557,0.005065995269703194,1.0199740596627755
1677618667764957,0.1251850156404979,0.0039673456931410556,1.0180209048599984
1677618667780951,0.12628366521706003,0.0042114900434881974,1.0183871213855191
1677618667796946,0.12579537651636574,0.0042114900434881974,1.0204623483634698
1677618667812940,0.12542915999084503,0.0039673456931410556,1.0191195544365605
1677618667828935,0.12579537651636574,0.003356984817273201,1.0216830701152055
1677618667844929,0.12469672693980272,0.005188067444876765,1.0211947814145113
1677618667860924,0.12481879911497629,0.005554283970397478,1.0185091935606927
1677618667876918,0.12457465476462914,0.005310139620050336,1.0192416266117341
1677618667892913,0.12481879911497629,0.004943923094529623,1.0196078431372548
1677618667908908,0.12469672693980272,0.004821850919356052,1.0186312657358663
1677618667924902,0.12530708781567146,0.0060425726710917615,1.0211947814145113
1677618667940897,0.12506294346532432,0.00457770656900891,1.0210727092393377
1677618667956891,0.12481879911497629,0.005188067444876765,1.0196078431372548
1677618667972886,0.12372014953841415,0.005554283970397478,1.0194857709620813
1677618667988880,0.12506294346532432,0.004699778744182481,1.018997482261387
1677618668004875,0.12567330434119217,0.004455634393835339,1.021805142290379
1677618668020869,0.1259174486915393,0.005310139620050336,1.0193636987869077
1677618668036864,0.12652780956740717,0.002868696116578917,1.0188754100862134
1677618668052858,0.12787060349431645,0.004455634393835339,1.0196078431372548
1677618668068847,0.12420843823910843,0.005065995269703194,1.0185091935606927
1677618668084842,0.12616159304188646,0.005065995269703194,1.0222934309910734
1677618668100836,0.12567330434119217,0.004821850919356052,1.0204623483634698
1677618668116831,0.12469672693980272,0.0039673456931410556,1.0178988326848248
1677618668132825,0.12603952086671288,0.004699778744182481,1.0192416266117341
1677618668148820,0.12628366521706003,0.00579842832074462,1.0185091935606927
1677618668164815,0.1255512321660186,0.003479056992446772,1.0193636987869077
1677618668180809,0.1251850156404979,0.005432211795223907,1.0171663996337834
1677618668196804,0.12603952086671288,0.004455634393835339,1.0185091935606927
1677618668212798,0.12616159304188646,0.005065995269703194,1.0203402761882963
1677618668228793,0.1264057373922336,0.00579842832074462,1.0200961318379491
1677618668244787,0.1259174486915393,0.005554283970397478,1.018997482261387
1677618668260782,0.12481879911497629,0.0042114900434881974,1.020706492713817
1677618668276776,0.12603952086671288,0.0036011291676203427,1.0199740596627755
1677618668292771,0.12616159304188646,0.005432211795223907,1.0197299153124284
1677618668308766,0.12530708781567146,0.00457770656900891,1.0205844205386434
1677618668324760,0.12579537651636574,0.004455634393835339,1.0211947814145113
1677618668340755,0.12628366521706003,0.004821850919356052,1.019851987487602
1677618668356749,0.12542915999084503,0.006286717021438903,1.0219272144655527
1677618668372744,0.12567330434119217,0.0040894178683146265,1.0182650492103456
1677618668388733,0.1251850156404979,0.0039673456931410556,1.0209506370641641
1677618668404727,0.12628366521706003,0.004943923094529623,1.0222934309910734
1677618668420722,0.12579537651636574,0.00457770656900891,1.018997482261387
1677618668436716,0.12603952086671288,0.0036011291676203427,1.0182650492103456
1677618668452711,0.1251850156404979,0.00457770656900891,1.0194857709620813
1677618668468705,0.12359807736324058,0.004333562218661768,1.0205844205386434
1677618668484700,0.12469672693980272,0.004699778744182481,1.0200961318379491
1677618668500694,0.1267719539177543,0.0038452735179674846,1.0188754100862134
1677618668516689,0.1251850156404979,0.004943923094529623,1.0203402761882963
1677618668532683,0.12530708781567146,0.004943923094529623,1.0203402761882963
1677618668548678,0.12506294346532432,0.0042114900434881974,1.0176546883344777
1677618668564673,0.1251850156404979,0.005188067444876765,1.0177767605096513
1677618668580667,0.12542915999084503,0.00457770656900891,1.018142977035172
1677618668596662,0.12579537651636574,0.005188067444876765,1.0203402761882963
1677618668612656,0.1267719539177543,0.004333562218661768,1.0211947814145113
1677618668628651,0.12530708781567146,0.00579842832074462,1.0194857709620813
1677618668644645,0.12616159304188646,0.005554283970397478,1.019851987487602
1677618668660640,0.1255512321660186,0.00457770656900891,1.0199740596627755
1677618668676634,0.12567330434119217,0.004333562218661768,1.0192416266117341
1677618668692629,0.12323186083771986,0.004455634393835339,1.0199740596627755
1677618668708374,0.12420843823910843,0.0042114900434881974,1.0202182040131227
1677618668724367,0.12603952086671288,0.0040894178683146265,1.0196078431372548
1677618668740361,0.12506294346532432,0.004333562218661768,1.0208285648889905
1677618668756354,0.12457465476462914,0.0039673456931410556,1.0191195544365605
1677618668772348,0.12396429388876129,0.005310139620050336,1.0200961318379491
1677618668788342,0.12530708781567146,0.006286717021438903,1.0192416266117341
1677618668804335,0.12713817044327502,0.005188067444876765,1.0191195544365605
1677618668820329,0.12579537651636574,0.0042114900434881974,1.0210727092393377
1677618668836322,0.12579537651636574,0.004455634393835339,1.0180209048599984
1677618668852316,0.1264057373922336,0.0037232013427939137,1.0197299153124284
1677618668868310,0.12494087129014986,0.004455634393835339,1.0193636987869077
1677618668884303,0.12579537651636574,0.004455634393835339,1.0183871213855191
1677618668900297,0.12481879911497629,0.005188067444876765,1.0188754100862134
1677618668916290,0.12701609826810145,0.005065995269703194,1.020706492713817
1677618668932284,0.12542915999084503,0.005065995269703194,1.0192416266117341
1677618668948278,0.12506294346532432,0.004821850919356052,1.0208285648889905
1677618668964271,0.12603952086671288,0.00457770656900891,1.018997482261387
1677618668980265,0.12384222171358772,0.00457770656900891,1.0203402761882963
1677618668996258,0.12457465476462914,0.005065995269703194,1.0211947814145113
1677618669012252,0.12408636606393486,0.00457770656900891,1.0196078431372548
1677618669027893,0.12530708781567146,0.00457770656900891,1.0178988326848248
1677618669043885,0.12506294346532432,0.006652933546959616,1.0176546883344777
1677618669059877,0.12469672693980272,0.005554283970397478,1.018997482261387
1677618669075869,0.12603952086671288,0.004699778744182481,1.019851987487602
1677618669091861,0.12542915999084503,0.002990768291752488,1.0193636987869077
1677618669107854,0.1255512321660186,0.004455634393835339,1.0188754100862134
1677618669123846,0.12469672693980272,0.0060425726710917615,1.0193636987869077
1677618669139838,0.12420843823910843,0.004699778744182481,1.018142977035172
1677618669155830,0.12420843823910843,0.0040894178683146265,1.0187533379110398
1677618669171822,0.12457465476462914,0.005310139620050336,1.0200961318379491
1677618669187814,0.12579537651636574,0.004699778744182481,1.019851987487602
1677618669203807,0.12506294346532432,0.004699778744182481,1.0158236057068741
1677618669219799,0.12579537651636574,0.0038452735179674846,1.018142977035172
1677618669235791,0.12542915999084503,0.005065995269703194,1.0192416266117341
1677618669251783,0.12445258258945557,0.004333562218661768,1.0196078431372548
1677618669267775,0.12567330434119217,0.004821850919356052,1.019851987487602
1677618669283767,0.12494087129014986,0.005432211795223907,1.0199740596627755
1677618669299759,0.1251850156404979,0.00457770656900891,1.0193636987869077
1677618669315752,0.124330510414282,0.004455634393835339,1.0188754100862134
1677618669331744,0.12469672693980272,0.005188067444876765,1.0182650492103456
1677618669347442,0.12506294346532432,0.004455634393835339,1.0177767605096513
1677618669363433,0.1267719539177543,0.005310139620050336,1.0230258640421148
1677618669379424,0.12579537651636574,0.004821850919356052,1.0203402761882963
1677618669395414,0.12542915999084503,0.0038452735179674846,1.0200961318379491
1677618669411405,0.12372014953841415,0.00457770656900891,1.0185091935606927
1677618669427396,0.12408636606393486,0.005065995269703194,1.0196078431372548
1677618669443387,0.12603952086671288,0.005432211795223907,1.0188754100862134
1677618669459377,0.12494087129014986,0.005920500495918191,1.0187533379110398
1677618669475368,0.12469672693980272,0.0037232013427939137,1.0175326161593041
1677618669491359,0.124330510414282,0.0038452735179674846,1.018142977035172
1677618669507350,0.124330510414282,0.0038452735179674846,1.0193636987869077
1677618669523340,0.12494087129014986,0.004943923094529623,1.0178988326848248
1677618669539331,0.12616159304188646,0.005188067444876765,1.0178988326848248
1677618669555322,0.12457465476462914,0.005310139620050336,1.0193636987869077
1677618669571313,0.123476005188067,0.0039673456931410556,1.0202182040131227
1677618669587303,0.1259174486915393,0.005554283970397478,1.0192416266117341
1677618669603294,0.1231097886625463,0.004821850919356052,1.0191195544365605
1677618669619285,0.12372014953841415,0.004821850919356052,1.019851987487602
1677618669635275,0.12469672693980272,0.005188067444876765,1.0192416266117341
1677618669651266,0.1251850156404979,0.00323491264209963,1.0188754100862134
1677618669666961,0.12542915999084503,0.0060425726710917615,1.0188754100862134
1677618669682951,0.12396429388876129,0.004699778744182481,1.0197299153124284
1677618669698941,0.12542915999084503,0.004943923094529623,1.0182650492103456
1677618669714931,0.123476005188067,0.005676356145571049,1.018142977035172
1677618669730920,0.1251850156404979,0.004333562218661768,1.0197299153124284
1677618669746910,0.12408636606393486,0.00579842832074462,1.0219272144655527
1677618669762900,0.12445258258945557,0.004943923094529623,1.0178988326848248
1677618669778890,0.12359807736324058,0.005065995269703194,1.0209506370641641
1677618669794880,0.12445258258945557,0.004821850919356052,1.0186312657358663
1677618669810869,0.1251850156404979,0.005188067444876765,1.0221713588158998
1677618669826859,0.12530708781567146,0.00457770656900891,1.0204623483634698
1677618669842849,0.12396429388876129,0.005188067444876765,1.0186312657358663
1677618669858839,0.124330510414282,0.005188067444876765,1.0205844205386434
1677618669874828,0.12603952086671288,0.005065995269703194,1.0208285648889905
1677618669890818,0.12481879911497629,0.004699778744182481,1.0202182040131227
1677618669906808,0.12530708781567146,0.004333562218661768,1.0210727092393377
1677618669922798,0.12298771648737272,0.004943923094529623,1.0192416266117341
1677618669938788,0.12603952086671288,0.0061646448462653325,1.0200961318379491
1677618669954777,0.12579537651636574,0.007385366598001042,1.0204623483634698
1677618669970767,0.12481879911497629,0.006286717021438903,1.019851987487602
1677618669986511,0.12469672693980272,0.005676356145571049,1.0182650492103456
1677618670002500,0.12445258258945557,0.004333562218661768,1.0211947814145113
1677618670018489,0.12542915999084503,0.005310139620050336,1.019851987487602
1677618670034477,0.12481879911497629,0.004699778744182481,1.0178988326848248
1677618670050466,0.12542915999084503,0.0038452735179674846,1.0174105439841306
1677618670066455,0.12481879911497629,0.005310139620050336,1.0200961318379491
1677618670082444,0.1251850156404979,0.005920500495918191,1.0229037918669412
1677618670098433,0.12457465476462914,0.004455634393835339,1.0175326161593041
1677618670114421,0.12567330434119217,0.005432211795223907,1.0159456778820477
1677618670130410,0.12420843823910843,0.004821850919356052,1.0204623483634698
1677618670146399,0.12664988174258074,0.005676356145571049,1.0185091935606927
1677618670162388,0.12542915999084503,0.005554283970397478,1.0199740596627755
1677618670178377,0.1251850156404979,0.006286717021438903,1.0177767605096513
1677618670194366,0.1264057373922336,0.004455634393835339,1.0194857709620813
1677618670210354,0.12506294346532432,0.005065995269703194,1.0187533379110398
1677618670226343,0.12530708781567146,0.005920500495918191,1.019851987487602
1677618670242332,0.12506294346532432,0.004455634393835339,1.019851987487602
1677618670258321,0.12457465476462914,0.005310139620050336,1.0204623483634698
1677618670274310,0.1259174486915393,0.004943923094529623,1.0216830701152055
1677618670290299,0.12603952086671288,0.004333562218661768,1.0199740596627755
1677618670306030,0.1255512321660186,0.004943923094529623,1.0176546883344777
1677618670322018,0.1255512321660186,0.003356984817273201,1.0214389257648584
1677618670338006,0.12616159304188646,0.005554283970397478,1.0214389257648584
1677618670353994,0.12616159304188646,0.003112840466926059,1.0182650492103456
1677618670369981,0.12384222171358772,0.004699778744182481,1.0183871213855191
1677618670385969,0.12579537651636574,0.004821850919356052,1.0192416266117341
1677618670401957,0.12603952086671288,0.005188067444876765,1.019851987487602
1677618670417945,0.1259174486915393,0.005065995269703194,1.0187533379110398
1677618670433933,0.12579537651636574,0.006530861371786045,1.018997482261387
1677618670449921,0.1255512321660186,0.005065995269703194,1.0193636987869077
1677618670465909,0.1251850156404979,0.005065995269703194,1.0208285648889905
1677618670481897,0.1251850156404979,0.005188067444876765,1.0216830701152055
1677618670497884,0.12469672693980272,0.005432211795223907,1.0200961318379491
1677618670513872,0.12457465476462914,0.00457770656900891,1.020706492713817
1677618670529860,0.1251850156404979,0.005554283970397478,1.0191195544365605
1677618670545848,0.12457465476462914,0.00579842832074462,1.0216830701152055
1677618670561836,0.12530708781567146,0.005676356145571049,1.0199740596627755
1677618670577824,0.12664988174258074,0.005554283970397478,1.0204623483634698
1677618670593812,0.1251850156404979,0.004943923094529623,1.0191195544365605
1677618670609799,0.12481879911497629,0.005554283970397478,1.0191195544365605
1677618670625579,0.12335393301289344,0.006775005722133187,1.0169222552834363
1677618670641566,0.123476005188067,0.005432211795223907,1.0186312657358663
1677618670657553,0.12457465476462914,0.003356984817273201,1.0205844205386434
1677618670673540,0.12567330434119217,0.003356984817273201,1.0193636987869077
1677618670689527,0.1251850156404979,0.004455634393835339,1.0193636987869077
1677618670705514,0.12652780956740717,0.005310139620050336,1.0193636987869077
1677618670721501,0.12506294346532432,0.004333562218661768,1.0209506370641641
1677618670737488,0.12530708781567146,0.004333562218661768,1.0211947814145113
1677618670753475,0.12506294346532432,0.0039673456931410556,1.019851987487602
1677618670769462,0.12628366521706003,0.003479056992446772,1.0197299153124284
1677618670785449,0.12457465476462914,0.0038452735179674846,1.0199740596627755
1677618670801436,0.12542915999084503,0.005920500495918191,1.0196078431372548
1677618670817422,0.12494087129014986,0.00457770656900891,1.0196078431372548
1677618670833409,0.12481879911497629,0.005188067444876765,1.0191195544365605
1677618670849396,0.1251850156404979,0.004455634393835339,1.0208285648889905
1677618670865383,0.12530708781567146,0.004699778744182481,1.019851987487602
1677618670881370,0.12445258258945557,0.005676356145571049,1.0187533379110398
1677618670897357,0.12420843823910843,0.0060425726710917615,1.0182650492103456
1677618670913344,0.12408636606393486,0.00579842832074462,1.0188754100862134
1677618670929331,0.124330510414282,0.005065995269703194,1.0174105439841306
1677618670945099,0.12530708781567146,0.0042114900434881974,1.0183871213855191
1677618670961084,0.12494087129014986,0.0036011291676203427,1.0193636987869077
1677618670977070,0.12628366521706003,0.004699778744182481,1.0186312657358663
1677618670993056,0.12420843823910843,0.004333562218661768,1.0193636987869077
1677618671009042,0.12530708781567146,0.004699778744182481,1.0202182040131227
1677618671025028,0.12408636606393486,0.0040894178683146265,1.0182650492103456
1677618671041014,0.12494087129014986,0.0040894178683146265,1.0214389257648584
1677618671057000,0.12469672693980272,0.005188067444876765,1.0192416266117341
1677618671072986,0.12494087129014986,0.004821850919356052,1.0194857709620813
1677618671088972,0.1255512321660186,0.0060425726710917615,1.0196078431372548
1677618671104958,0.1255512321660186,0.005065995269703194,1.0209506370641641
1677618671120944,0.12445258258945557,0.004455634393835339,1.0192416266117341
1677618671136930,0.12506294346532432,0.004455634393835339,1.0202182040131227
1677618671152916,0.12469672693980272,0.0042114900434881974,1.020706492713817
1677618671168902,0.123476005188067,0.004699778744182481,1.0214389257648584
1677618671184888,0.12445258258945557,0.006408789196612474,1.018997482261387
1677618671200874,0.12530708781567146,0.0060425726710917615,1.0186312657358663
1677618671216860,0.12469672693980272,0.00457770656900891,1.0191195544365605
1677618671232846,0.12420843823910843,0.005065995269703194,1.0222934309910734
1677618671248832,0.12579537651636574,0.004943923094529623,1.0233920805676355
1677618671264618,0.1259174486915393,0.004699778744182481,1.0191195544365605
1677618671280603,0.12469672693980272,0.004821850919356052,1.0197299153124284
1677618671296588,0.12603952086671288,0.004455634393835339,1.0197299153124284
1677618671312573,0.124330510414282,0.004699778744182481,1.021805142290379
1677618671328558,0.12420843823910843,0.004821850919356052,1.0202182040131227
1677618671344543,0.12542915999084503,0.0023804074158846333,1.019851987487602
1677618671360528,0.12530708781567146,0.004699778744182481,1.0193636987869077
1677618671376513,0.124330510414282,0.005188067444876765,1.0193636987869077
1677618671392498,0.12396429388876129,0.005188067444876765,1.0200961318379491
1677618671408483,0.12469672693980272,0.005310139620050336,1.0194857709620813
1677618671424468,0.12396429388876129,0.005065995269703194,1.021805142290379
1677618671440453,0.12335393301289344,0.004699778744182481,1.0208285648889905
1677618671456438,0.12298771648737272,0.005188067444876765,1.019851987487602
1677618671472423,0.12494087129014986,0.0038452735179674846,1.0192416266117341
1677618671488408,0.1255512321660186,0.004821850919356052,1.0203402761882963
1677618671504393,0.12579537651636574,0.003356984817273201,1.018997482261387
1677618671520378,0.12457465476462914,0.005065995269703194,1.0186312657358663
1677618671536363,0.12494087129014986,0.0037232013427939137,1.0178988326848248
1677618671552348,0.12420843823910843,0.005188067444876765,1.0182650492103456
1677618671568333,0.12530708781567146,0.004821850919356052,1.0204623483634698
1677618671584137,0.1255512321660186,0.004333562218661768,1.0194857709620813
1677618671600121,0.12481879911497629,0.005676356145571049,1.0204623483634698
1677618671616106,0.12420843823910843,0.0061646448462653325,1.0214389257648584
1677618671632090,0.12396429388876129,0.004943923094529623,1.0208285648889905
1677618671648075,0.1255512321660186,0.004699778744182481,1.0203402761882963
1677618671664059,0.12469672693980272,0.004699778744182481,1.020706492713817
1677618671680044,0.12506294346532432,0.005065995269703194,1.0187533379110398
1677618671696028,0.12384222171358772,0.005554283970397478,1.0194857709620813
1677618671712013,0.124330510414282,0.005188067444876765,1.0193636987869077
1677618671727997,0.12652780956740717,0.005920500495918191,1.0193636987869077
1677618671743982,0.1267719539177543,0.005310139620050336,1.0205844205386434
1677618671759966,0.12530708781567146,0.005432211795223907,1.022415503166247
1677618671775951,0.12567330434119217,0.005065995269703194,1.017288471808957
1677618671791936,0.12530708781567146,0.004699778744182481,1.019851987487602
1677618671807920,0.12567330434119217,0.005676356145571049,1.0176546883344777
1677618671823905,0.12445258258945557,0.004333562218661768,1.0182650492103456
1677618671839889,0.1259174486915393,0.004699778744182481,1.0204623483634698
1677618671855874,0.12481879911497629,0.005310139620050336,1.020706492713817
1677618671871858,0.1255512321660186,0.0042114900434881974,1.019851987487602
1677618671887843,0.12372014953841415,0.004455634393835339,1.0177767605096513
1677618671903686,0.124330510414282,0.005554283970397478,1.0200961318379491
1677618671919670,0.12445258258945557,0.004455634393835339,1.021805142290379
1677618671935653,0.12567330434119217,0.0037232013427939137,1.0208285648889905
1677618671951637,0.12445258258945557,0.005310139620050336,1.0208285648889905
1677618671967620,0.1251850156404979,0.005920500495918191,1.0188754100862134
1677618671983604,0.12481879911497629,0.005310139620050336,1.0194857709620813
1677618671999588,0.12628366521706003,0.00579842832074462,1.0220492866407263
1677618672015571,0.12506294346532432,0.004943923094529623,1.0202182040131227
1677618672031555,0.1251850156404979,0.005676356145571049,1.0211947814145113
1677618672047538,0.12481879911497629,0.005554283970397478,1.0193636987869077
1677618672063522,0.1251850156404979,0.005310139620050336,1.022659647516594
1677618672079506,0.12579537651636574,0.00579842832074462,1.0205844205386434
1677618672095489,0.12445258258945557,0.004943923094529623,1.0197299153124284
1677618672111473,0.12628366521706003,0.0061646448462653325,1.0191195544365605
1677618672127456,0.12567330434119217,0.004821850919356052,1.0204623483634698
1677618672143440,0.12323186083771986,0.004455634393835339,1.0204623483634698
1677618672159423,0.12457465476462914,0.005432211795223907,1.021805142290379
1677618672175407,0.12506294346532432,0.006652933546959616,1.0200961318379491
1677618672191391,0.124330510414282,0.004699778744182481,1.0182650492103456
1677618672207374,0.12408636606393486,0.005432211795223907,1.0203402761882963
1677618672223205,0.12420843823910843,0.005432211795223907,1.0208285648889905
1677618672239188,0.12481879911497629,0.005065995269703194,1.0204623483634698
1677618672255171,0.12494087129014986,0.005065995269703194,1.0205844205386434
1677618672271155,0.12701609826810145,0.006286717021438903,1.0196078431372548
1677618672287138,0.124330510414282,0.0042114900434881974,1.0191195544365605
1677618672303121,0.12469672693980272,0.004699778744182481,1.0191195544365605
1677618672319104,0.1251850156404979,0.0040894178683146265,1.0171663996337834
1677618672335087,0.1251850156404979,0.0060425726710917615,1.0208285648889905
1677618672351070,0.12567330434119217,0.005310139620050336,1.0210727092393377
1677618672367053,0.12652780956740717,0.0060425726710917615,1.0187533379110398
1677618672383036,0.12506294346532432,0.005432211795223907,1.0187533379110398
1677618672399019,0.12457465476462914,0.00457770656900891,1.0196078431372548
1677618672415002,0.123476005188067,0.005188067444876765,1.0203402761882963
1677618672430986,0.1251850156404979,0.005065995269703194,1.021560997940032
1677618672446969,0.1251850156404979,0.005676356145571049,1.0196078431372548
1677618672462952,0.12372014953841415,0.004455634393835339,1.0186312657358663
1677618672478935,0.12494087129014986,0.0039673456931410556,1.0199740596627755
1677618672494918,0.12506294346532432,0.003356984817273201,1.0194857709620813
1677618672510901,0.1259174486915393,0.005188067444876765,1.0196078431372548
1677618672526884,0.12420843823910843,0.005554283970397478,1.0186312657358663
1677618672542724,0.12457465476462914,0.005676356145571049,1.0211947814145113
1677618672558707,0.12408636606393486,0.0038452735179674846,1.0178988326848248
1677618672574689,0.12457465476462914,0.0042114900434881974,1.0193636987869077
1677618672590672,0.12323186083771986,0.005676356145571049,1.0194857709620813
1677618672606655,0.1251850156404979,0.005676356145571049,1.0210727092393377
1677618672622637,0.12408636606393486,0.005554283970397478,1.0188754100862134
1677618672638620,0.124330510414282,0.005676356145571049,1.0194857709620813
1677618672654603,0.12494087129014986,0.004943923094529623,1.0211947814145113
1677618672670585,0.12408636606393486,0.0037232013427939137,1.0204623483634698
1677618672686568,0.123476005188067,0.004821850919356052,1.0188754100862134
1677618672702551,0.12481879911497629,0.0040894178683146265,1.018142977035172
1677618672718533,0.12420843823910843,0.004699778744182481,1.018997482261387
1677618672734516,0.12359807736324058,0.004943923094529623,1.0187533379110398
1677618672750498,0.12506294346532432,0.005920500495918191,1.0197299153124284
1677618672766481,0.12457465476462914,0.005554283970397478,1.019851987487602
1677618672782464,0.12530708781567146,0.0061646448462653325,1.0191195544365605
1677618672798446,0.12616159304188646,0.0039673456931410556,1.0202182040131227
1677618672814429,0.12506294346532432,0.003479056992446772,1.0185091935606927
1677618672830412,0.12469672693980272,0.004455634393835339,1.0205844205386434
1677618672846394,0.12506294346532432,0.005432211795223907,1.0205844205386434
1677618672862243,0.12603952086671288,0.004333562218661768,1.0192416266117341
1677618672878225,0.1251850156404979,0.004943923094529623,1.019851987487602
1677618672894208,0.1255512321660186,0.005065995269703194,1.0202182040131227
1677618672910190,0.12359807736324058,0.004821850919356052,1.0203402761882963
1677618672926172,0.12481879911497629,0.004943923094529623,1.0202182040131227
1677618672942154,0.12445258258945557,0.004943923094529623,1.0200961318379491
1677618672958136,0.12396429388876129,0.006775005722133187,1.0188754100862134
1677618672974118,0.12506294346532432,0.006897077897306758,1.018142977035172
1677618672990100,0.12579537651636574,0.005310139620050336,1.0203402761882963
1677618673006083,0.12469672693980272,0.004943923094529623,1.0214389257648584
1677618673022065,0.12542915999084503,0.004699778744182481,1.0191195544365605
1677618673038047,0.1251850156404979,0.004943923094529623,1.0213168535896848
1677618673054029,0.1259174486915393,0.005310139620050336,1.0209506370641641
1677618673070011,0.12469672693980272,0.00579842832074462,1.0193636987869077
1677618673085993,0.12457465476462914,0.004821850919356052,1.0211947814145113
1677618673101976,0.124330510414282,0.0061646448462653325,1.0194857709620813
1677618673117958,0.12420843823910843,0.005432211795223907,1.0203402761882963
1677618673133940,0.12372014953841415,0.005676356145571049,1.0197299153124284
1677618673149922,0.1255512321660186,0.005065995269703194,1.0169222552834363
1677618673165904,0.12372014953841415,0.005432211795223907,1.0188754100862134
1677618673181762,0.1251850156404979,0.0040894178683146265,1.0191195544365605
1677618673197744,0.1251850156404979,0.005310139620050336,1.0197299153124284
1677618673213726,0.1259174486915393,0.006286717021438903,1.0213168535896848
1677618673229707,0.12542915999084503,0.0060425726710917615,1.019851987487602
1677618673245689,0.12469672693980272,0.00457770656900891,1.0177767605096513
1677618673261671,0.12506294346532432,0.0040894178683146265,1.0220492866407263
1677618673277652,0.1255512321660186,0.0042114900434881974,1.0203402761882963
1677618673293634,0.12530708781567146,0.004943923094529623,1.0192416266117341
1677618673309616,0.12542915999084503,0.004699778744182481,1.0188754100862134
1677618673325597,0.12396429388876129,0.004821850919356052,1.0183871213855191
1677618673341579,0.12481879911497629,0.004699778744182481,1.0204623483634698
1677618673357561,0.12530708781567146,0.005920500495918191,1.0197299153124284
1677618673373542,0.12420843823910843,0.005065995269703194,1.0216830701152055
1677618673389524,0.12542915999084503,0.005188067444876765,1.0202182040131227
1677618673405506,0.1251850156404979,0.005554283970397478,1.0202182040131227
1677618673421487,0.12396429388876129,0.005310139620050336,1.021560997940032
1677618673437469,0.12530708781567146,0.005310139620050336,1.018142977035172
1677618673453451,0.12542915999084503,0.005554283970397478,1.0199740596627755
1677618673469432,0.1255512321660186,0.004455634393835339,1.0176546883344777
1677618673485414,0.12579537651636574,0.005432211795223907,1.0209506370641641
1677618673501312,0.12603952086671288,0.005676356145571049,1.0175326161593041
1677618673517293,0.12603952086671288,0.0040894178683146265,1.0196078431372548
1677618673533274,0.12616159304188646,0.004699778744182481,1.0187533379110398
1677618673549255,0.12445258258945557,0.005065995269703194,1.0197299153124284
1677618673565237,0.12481879911497629,0.004821850919356052,1.0199740596627755
1677618673581218,0.12457465476462914,0.005065995269703194,1.019851987487602
1677618673597199,0.12530708781567146,0.005554283970397478,1.0192416266117341
1677618673613180,0.12457465476462914,0.005310139620050336,1.0188754100862134
1677618673629161,0.12506294346532432,0.00579842832074462,1.0191195544365605
1677618673645143,0.12481879911497629,0.004943923094529623,1.0178988326848248
1677618673661124,0.124330510414282,0.0060425726710917615,1.017288471808957
1677618673677105,0.12494087129014986,0.004943923094529623,1.0203402761882963
1677618673693086,0.1264057373922336,0.005432211795223907,1.0200961318379491
1677618673709067,0.12506294346532432,0.005676356145571049,1.0213168535896848
1677618673725049,0.124330510414282,0.0039673456931410556,1.0209506370641641
1677618673741030,0.12506294346532432,0.004699778744182481,1.0202182040131227
1677618673757011,0.12494087129014986,0.004333562218661768,1.0200961318379491
1677618673772992,0.12469672693980272,0.005065995269703194,1.0205844205386434
1677618673788973,0.12481879911497629,0.005432211795223907,1.0182650492103456
1677618673804955,0.12469672693980272,0.006286717021438903,1.018997482261387
1677618673820831,0.12457465476462914,0.005554283970397478,1.018142977035172
1677618673836812,0.12384222171358772,0.0038452735179674846,1.0203402761882963
1677618673852792,0.12530708781567146,0.004333562218661768,1.0180209048599984
1677618673868773,0.12359807736324058,0.005065995269703194,1.0193636987869077
1677618673884754,0.12579537651636574,0.0042114900434881974,1.0165560387579156
1677618673900735,0.124330510414282,0.00457770656900891,1.0178988326848248
1677618673916715,0.12542915999084503,0.004699778744182481,1.018997482261387
1677618673932696,0.1264057373922336,0.005310139620050336,1.0168001831082627
1677618673948677,0.12628366521706003,0.0039673456931410556,1.018997482261387
1677618673964657,0.12603952086671288,0.005554283970397478,1.0200961318379491
1677618673980638,0.12396429388876129,0.0040894178683146265,1.0197299153124284
1677618673996619,0.12457465476462914,0.005676356145571049,1.0182650492103456
1677618674012600,0.12506294346532432,0.006775005722133187,1.018997482261387
1677618674028580,0.12457465476462914,0.005920500495918191,1.0216830701152055
1677618674044561,0.1255512321660186,0.0061646448462653325,1.0214389257648584
1677618674060542,0.12494087129014986,0.004943923094529623,1.0168001831082627
1677618674076522,0.12567330434119217,0.005065995269703194,1.0199740596627755
1677618674092503,0.12384222171358772,0.004821850919356052,1.0196078431372548
1677618674108484,0.12445258258945557,0.004943923094529623,1.016433966582742
1677618674124465,0.1255512321660186,0.0037232013427939137,1.0176546883344777
1677618674140350,0.1259174486915393,0.0061646448462653325,1.0192416266117341
1677618674156330,0.12506294346532432,0.00579842832074462,1.0211947814145113
1677618674172310,0.124330510414282,0.005065995269703194,1.018997482261387
1677618674188291,0.12506294346532432,0.005065995269703194,1.0196078431372548
1677618674204271,0.12506294346532432,0.005310139620050336,1.019851987487602
1677618674220251,0.12396429388876129,0.00457770656900891,1.0204623483634698
1677618674236231,0.1231097886625463,0.005554283970397478,1.0191195544365605
1677618674252212,0.12750438696879574,0.00457770656900891,1.018142977035172
1677618674268192,0.1259174486915393,0.005065995269703194,1.0187533379110398
1677618674284172,0.1255512321660186,0.0039673456931410556,1.019851987487602
1677618674300152,0.1255512321660186,0.0036011291676203427,1.0193636987869077
1677618674316133,0.1251850156404979,0.005065995269703194,1.0183871213855191
1677618674332113,0.1255512321660186,0.0060425726710917615,1.0191195544365605
1677618674348093,0.12481879911497629,0.005310139620050336,1.0216830701152055
1677618674364073,0.1251850156404979,0.005554283970397478,1.0211947814145113
1677618674380054,0.12567330434119217,0.0061646448462653325,1.0196078431372548
1677618674396034,0.12494087129014986,0.0042114900434881974,1.0196078431372548
1677618674412014,0.12481879911497629,0.004943923094529623,1.0196078431372548
1677618674427994,0.1259174486915393,0.00579842832074462,1.0193636987869077
1677618674443975,0.1259174486915393,0.005065995269703194,1.0188754100862134
1677618674459869,0.124330510414282,0.00579842832074462,1.0200961318379491
1677618674475849,0.1264057373922336,0.006286717021438903,1.0197299153124284
1677618674491829,0.1272602426184486,0.004455634393835339,1.0200961318379491
1677618674507810,0.12469672693980272,0.004943923094529623,1.018997482261387
1677618674523790,0.12542915999084503,0.004821850919356052,1.0193636987869077
1677618674539770,0.12530708781567146,0.004943923094529623,1.0211947814145113
1677618674555750,0.1259174486915393,0.0042114900434881974,1.0199740596627755
1677618674571731,0.1259174486915393,0.004943923094529623,1.0203402761882963
1677618674587711,0.12603952086671288,0.0039673456931410556,1.0168001831082627
1677618674603691,0.12652780956740717,0.005554283970397478,1.0188754100862134
1677618674619671,0.12530708781567146,0.0036011291676203427,1.0208285648889905
1677618674635652,0.12469672693980272,0.0042114900434881974,1.0188754100862134
1677618674651632,0.12567330434119217,0.0038452735179674846,1.0182650492103456
1677618674667612,0.124330510414282,0.0040894178683146265,1.021560997940032
1677618674683592,0.12420843823910843,0.0038452735179674846,1.0204623483634698
1677618674699573,0.12579537651636574,0.004699778744182481,1.0196078431372548
1677618674715553,0.12481879911497629,0.005310139620050336,1.0194857709620813
1677618674731533,0.12616159304188646,0.0037232013427939137,1.0176546883344777
1677618674747513,0.12530708781567146,0.004943923094529623,1.0203402761882963
1677618674763494,0.124330510414282,0.006408789196612474,1.0175326161593041
1677618674779419,0.12420843823910843,0.004821850919356052,1.0208285648889905
1677618674795398,0.12469672693980272,0.0060425726710917615,1.0216830701152055
1677618674811378,0.1251850156404979,0.004943923094529623,1.0200961318379491
1677618674827358,0.12530708781567146,0.0036011291676203427,1.0205844205386434
1677618674843338,0.12567330434119217,0.004455634393835339,1.0196078431372548
1677618674859317,0.12567330434119217,0.005432211795223907,1.0220492866407263
1677618674875297,0.12408636606393486,0.005920500495918191,1.019851987487602
1677618674891277,0.1251850156404979,0.004821850919356052,1.0196078431372548
1677618674907257,0.124330510414282,0.0036011291676203427,1.0183871213855191
1677618674923236,0.124330510414282,0.005432211795223907,1.0196078431372548
1677618674939216,0.1251850156404979,0.004333562218661768,1.0194857709620813
1677618674955196,0.12506294346532432,0.0038452735179674846,1.0176546883344777
1677618674971176,0.12567330434119217,0.0042114900434881974,1.0178988326848248
1677618674987156,0.12579537651636574,0.005065995269703194,1.0182650492103456
1677618675003135,0.12628366521706003,0.0039673456931410556,1.0192416266117341
1677618675019115,0.12542915999084503,0.0040894178683146265,1.0196078431372548
1677618675035095,0.12579537651636574,0.0042114900434881974,1.021560997940032
1677618675051075,0.12494087129014986,0.005920500495918191,1.0200961318379491
1677618675067054,0.124330510414282,0.0060425726710917615,1.0202182040131227
1677618675083034,0.124330510414282,0.005310139620050336,1.0166781109330891
1677618675098938,0.12481879911497629,0.0039673456931410556,1.0192416266117341
1677618675114917,0.12506294346532432,0.005310139620050336,1.0194857709620813
1677618675130896,0.12542915999084503,0.005065995269703194,1.0199740596627755
1677618675146875,0.12530708781567146,0.0038452735179674846,1.0196078431372548
1677618675162855,0.12603952086671288,0.003356984817273201,1.0185091935606927
1677618675178834,0.12494087129014986,0.004455634393835339,1.022659647516594
1677618675194813,0.12542915999084503,0.00579842832074462,1.022659647516594
1677618675210793,0.1259174486915393,0.006286717021438903,1.0186312657358663
1677618675226772,0.12628366521706003,0.005920500495918191,1.0188754100862134
1677618675242751,0.12481879911497629,0.005920500495918191,1.0191195544365605
1677618675258731,0.12445258258945557,0.005676356145571049,1.0187533379110398
1677618675274710,0.12457465476462914,0.005188067444876765,1.0185091935606927
1677618675290689,0.12530708781567146,0.004943923094529623,1.0202182040131227
1677618675306668,0.12579537651636574,0.005432211795223907,1.0221713588158998
1677618675322648,0.12408636606393486,0.005676356145571049,1.0229037918669412
1677618675338627,0.12481879911497629,0.0038452735179674846,1.0194857709620813
1677618675354606,0.12530708781567146,0.005920500495918191,1.0213168535896848
1677618675370586,0.12384222171358772,0.006652933546959616,1.0200961318379491
1677618675386565,0.123476005188067,0.006286717021438903,1.020706492713817
1677618675402544,0.12457465476462914,0.00457770656900891,1.018997482261387
1677618675418457,0.12384222171358772,0.0061646448462653325,1.0185091935606927
1677618675434436,0.12530708781567146,0.005432211795223907,1.0197299153124284
1677618675450415,0.12530708781567146,0.005432211795223907,1.0204623483634698
1677618675466395,0.12494087129014986,0.0037232013427939137,1.0196078431372548
1677618675482374,0.12542915999084503,0.004699778744182481,1.0199740596627755
1677618675498353,0.12530708781567146,0.005554283970397478,1.0182650492103456
1677618675514332,0.12323186083771986,0.005310139620050336,1.0171663996337834
1677618675530312,0.12420843823910843,0.005310139620050336,1.0187533379110398
1677618675546291,0.12530708781567146,0.007263294422827471,1.0192416266117341
1677618675562270,0.1259174486915393,0.004821850919356052,1.0205844205386434
1677618675578250,0.12616159304188646,0.005920500495918191,1.0209506370641641
1677618675594229,0.12701609826810145,0.004699778744182481,1.0202182040131227
1677618675610208,0.12481879911497629,0.005065995269703194,1.0200961318379491
1677618675626187,0.12542915999084503,0.005065995269703194,1.0197299153124284
1677618675642167,0.12567330434119217,0.0040894178683146265,1.021805142290379
1677618675658146,0.1259174486915393,0.006286717021438903,1.0180209048599984
1677618675674125,0.12530708781567146,0.005065995269703194,1.0180209048599984
1677618675690105,0.12481879911497629,0.004333562218661768,1.0200961318379491
1677618675706084,0.12628366521706003,0.004455634393835339,1.020706492713817
1677618675722063,0.12457465476462914,0.005554283970397478,1.0180209048599984
1677618675737945,0.12494087129014986,0.005188067444876765,1.0204623483634698
1677618675753924,0.12494087129014986,0.0060425726710917615,1.0200961318379491
1677618675769903,0.12481879911497629,0.004943923094529623,1.0199740596627755
1677618675785882,0.12481879911497629,0.005310139620050336,1.018997482261387
1677618675801860,0.12481879911497629,0.005920500495918191,1.0213168535896848
1677618675817839,0.12408636606393486,0.004333562218661768,1.0199740596627755
1677618675833818,0.12652780956740717,0.0060425726710917615,1.0199740596627755
1677618675849797,0.12567330434119217,0.005188067444876765,1.0205844205386434
1677618675865776,0.12396429388876129,0.004821850919356052,1.0191195544365605
1677618675881755,0.1231097886625463,0.005676356145571049,1.0196078431372548
1677618675897733,0.12420843823910843,0.0039673456931410556,1.0165560387579156
1677618675913712,0.12579537651636574,0.005310139620050336,1.0202182040131227
1677618675929691,0.123476005188067,0.0061646448462653325,1.0191195544365605
1677618675945670,0.1255512321660186,0.005554283970397478,1.0186312657358663
1677618675961649,0.12445258258945557,0.005310139620050336,1.0194857709620813
1677618675977627,0.12530708781567146,0.005676356145571049,1.0199740596627755
1677618675993606,0.12579537651636574,0.0037232013427939137,1.016433966582742
1677618676009585,0.1251850156404979,0.005432211795223907,1.0180209048599984
1677618676025564,0.1259174486915393,0.0040894178683146265,1.0191195544365605
1677618676041543,0.12481879911497629,0.004821850919356052,1.019851987487602
1677618676057464,0.12396429388876129,0.005432211795223907,1.0203402761882963
1677618676073443,0.12420843823910843,0.005188067444876765,1.0208285648889905
1677618676089422,0.12469672693980272,0.004821850919356052,1.0203402761882963
1677618676105401,0.1259174486915393,0.0061646448462653325,1.0191195544365605
1677618676121379,0.12701609826810145,0.003479056992446772,1.0187533379110398
1677618676137358,0.12628366521706003,0.004699778744182481,1.0208285648889905
1677618676153337,0.1251850156404979,0.005188067444876765,1.0204623483634698
1677618676169316,0.1259174486915393,0.004821850919356052,1.018997482261387
1677618676185295,0.12652780956740717,0.004455634393835339,1.0186312657358663
1677618676201274,0.12457465476462914,0.005920500495918191,1.018142977035172
1677618676217252,0.1251850156404979,0.004821850919356052,1.0186312657358663
1677618676233231,0.12384222171358772,0.005188067444876765,1.0205844205386434
1677618676249210,0.12420843823910843,0.0042114900434881974,1.0186312657358663
1677618676265189,0.12506294346532432,0.005310139620050336,1.0209506370641641
1677618676281168,0.12445258258945557,0.005310139620050336,1.0214389257648584
1677618676297146,0.12628366521706003,0.0061646448462653325,1.0186312657358663
1677618676313125,0.12542915999084503,0.005676356145571049,1.0178988326848248
1677618676329104,0.1267719539177543,0.004455634393835339,1.0194857709620813
1677618676345083,0.12530708781567146,0.005554283970397478,1.0210727092393377
1677618676361062,0.12481879911497629,0.00579842832074462,1.019851987487602
1677618676376953,0.12494087129014986,0.004943923094529623,1.0192416266117341
1677618676392931,0.1259174486915393,0.004943923094529623,1.0193636987869077
1677618676408909,0.1255512321660186,0.0038452735179674846,1.0178988326848248
1677618676424888,0.12542915999084503,0.0039673456931410556,1.0208285648889905
1677618676440866,0.12542915999084503,0.005188067444876765,1.0196078431372548
1677618676456844,0.1251850156404979,0.004943923094529623,1.018142977035172
1677618676472823,0.12506294346532432,0.005310139620050336,1.0196078431372548
1677618676488801,0.1259174486915393,0.0038452735179674846,1.0208285648889905
1677618676504779,0.12494087129014986,0.005676356145571049,1.0194857709620813
1677618676520758,0.12616159304188646,0.00457770656900891,1.0205844205386434
1677618676536736,0.1259174486915393,0.004455634393835339,1.0211947814145113
1677618676552714,0.12408636606393486,0.0042114900434881974,1.0209506370641641
1677618676568693,0.12359807736324058,0.003356984817273201,1.0213168535896848
1677618676584671,0.12420843823910843,0.005676356145571049,1.0186312657358663
1677618676600649,0.12457465476462914,0.005676356145571049,1.0204623483634698
1677618676616628,0.1264057373922336,0.004821850919356052,1.0205844205386434
1677618676632606,0.1255512321660186,0.0061646448462653325,1.0213168535896848
1677618676648584,0.124330510414282,0.005676356145571049,1.0180209048599984
1677618676664563,0.12506294346532432,0.005554283970397478,1.0187533379110398
1677618676680541,0.12542915999084503,0.005554283970397478,1.0193636987869077
1677618676696502,0.12481879911497629,0.006897077897306758,1.0209506370641641
1677618676712481,0.12469672693980272,0.005554283970397478,1.018997482261387
1677618676728459,0.12481879911497629,0.005065995269703194,1.0182650492103456
1677618676744437,0.12628366521706003,0.0037232013427939137,1.0200961318379491
1677618676760416,0.12542915999084503,0.004943923094529623,1.0193636987869077
1677618676776394,0.12420843823910843,0.004699778744182481,1.0183871213855191
1677618676792372,0.1251850156404979,0.005065995269703194,1.020706492713817
1677618676808351,0.1259174486915393,0.0042114900434881974,1.0202182040131227
1677618676824329,0.1251850156404979,0.0039673456931410556,1.020706492713817
1677618676840307,0.12445258258945557,0.005065995269703194,1.0187533379110398
1677618676856286,0.124330510414282,0.0038452735179674846,1.0203402761882963
1677618676872264,0.12616159304188646,0.00457770656900891,1.0205844205386434
1677618676888242,0.12567330434119217,0.004333562218661768,1.0194857709620813
1677618676904221,0.12494087129014986,0.004821850919356052,1.019851987487602
1677618676920199,0.12603952086671288,0.005554283970397478,1.019851987487602
1677618676936177,0.12469672693980272,0.004821850919356052,1.0191195544365605
1677618676952156,0.12372014953841415,0.0060425726710917615,1.0219272144655527
1677618676968134,0.12457465476462914,0.005310139620050336,1.0199740596627755
1677618676984112,0.12445258258945557,0.0040894178683146265,1.0185091935606927
1677618677000091,0.12579537651636574,0.004699778744182481,1.0178988326848248
1677618677016021,0.1251850156404979,0.005554283970397478,1.0219272144655527
1677618677031999,0.12481879911497629,0.005432211795223907,1.0187533379110398
1677618677047977,0.12408636606393486,0.0040894178683146265,1.0191195544365605
1677618677063955,0.12323186083771986,0.004943923094529623,1.0188754100862134
1677618677079933,0.12567330434119217,0.00579842832074462,1.0199740596627755
1677618677095911,0.12701609826810145,0.005065995269703194,1.0205844205386434
1677618677111889,0.12689402609292788,0.004699778744182481,1.0188754100862134
1677618677127866,0.12372014953841415,0.0039673456931410556,1.0205844205386434
1677618677143844,0.1259174486915393,0.0038452735179674846,1.0196078431372548
1677618677159822,0.12494087129014986,0.0026245517662317752,1.0208285648889905
1677618677175800,0.12323186083771986,0.0042114900434881974,1.0205844205386434
1677618677191778,0.12530708781567146,0.004943923094529623,1.0199740596627755
1677618677207756,0.12616159304188646,0.005310139620050336,1.0174105439841306
1677618677223734,0.12506294346532432,0.0060425726710917615,1.0188754100862134
1677618677239711,0.1264057373922336,0.00457770656900891,1.0214389257648584
1677618677255689,0.12628366521706003,0.004455634393835339,1.0220492866407263
1677618677271667,0.12603952086671288,0.005432211795223907,1.017288471808957
1677618677287645,0.12628366521706003,0.005310139620050336,1.0171663996337834
1677618677303623,0.12457465476462914,0.005188067444876765,1.021560997940032
1677618677319601,0.12579537651636574,0.005310139620050336,1.022415503166247
1677618677335540,0.12359807736324058,0.0060425726710917615,1.0204623483634698
1677618677351518,0.12542915999084503,0.0042114900434881974,1.0171663996337834
1677618677367496,0.12579537651636574,0.0039673456931410556,1.0196078431372548
1677618677383474,0.12469672693980272,0.0040894178683146265,1.0199740596627755
1677618677399452,0.12469672693980272,0.005065995269703194,1.0191195544365605
1677618677415430,0.12469672693980272,0.006286717021438903,1.018142977035172
1677618677431408,0.1251850156404979,0.005188067444876765,1.0194857709620813
1677618677447385,0.1251850156404979,0.0042114900434881974,1.022415503166247
1677618677463363,0.1251850156404979,0.005432211795223907,1.0209506370641641
1677618677479341,0.12469672693980272,0.004333562218661768,1.0166781109330891
1677618677495319,0.12542915999084503,0.005432211795223907,1.0191195544365605
1677618677511297,0.12481879911497629,0.0042114900434881974,1.0210727092393377
1677618677527275,0.12457465476462914,0.0039673456931410556,1.0203402761882963
1677618677543253,0.12420843823910843,0.004943923094529623,1.0202182040131227
1677618677559230,0.12652780956740717,0.006408789196612474,1.0202182040131227
1677618677575208,0.12384222171358772,0.004943923094529623,1.0196078431372548
1677618677591186,0.124330510414282,0.006286717021438903,1.021805142290379
1677618677607164,0.12506294346532432,0.005554283970397478,1.0199740596627755
1677618677623142,0.1251850156404979,0.005432211795223907,1.0200961318379491
1677618677639120,0.1259174486915393,0.0042114900434881974,1.022415503166247
1677618677655059,0.12542915999084503,0.005310139620050336,1.0191195544365605
1677618677671037,0.12567330434119217,0.006530861371786045,1.0192416266117341
1677618677687015,0.1255512321660186,0.005065995269703194,1.0188754100862134
1677618677702993,0.1255512321660186,0.004821850919356052,1.0214389257648584
1677618677718971,0.12494087129014986,0.005432211795223907,1.0180209048599984
1677618677734949,0.12567330434119217,0.005920500495918191,1.0199740596627755
1677618677750927,0.12603952086671288,0.004699778744182481,1.0196078431372548
1677618677766904,0.12567330434119217,0.0037232013427939137,1.0219272144655527
1677618677782882,0.12542915999084503,0.004333562218661768,1.0202182040131227
1677618677798860,0.1251850156404979,0.004699778744182481,1.0177767605096513
1677618677814838,0.12384222171358772,0.004455634393835339,1.0177767605096513
1677618677830816,0.12530708781567146,0.005188067444876765,1.0193636987869077
1677618677846794,0.1255512321660186,0.00579842832074462,1.0188754100862134
1677618677862772,0.12408636606393486,0.0039673456931410556,1.0182650492103456
1677618677878749,0.12579537651636574,0.0060425726710917615,1.0199740596627755
1677618677894727,0.124330510414282,0.005920500495918191,1.0202182040131227
1677618677910705,0.12372014953841415,0.00579842832074462,1.0161898222323948
1677618677926683,0.12494087129014986,0.0037232013427939137,1.0192416266117341
1677618677942661,0.12494087129014986,0.004333562218661768,1.0209506370641641
1677618677958639,0.12469672693980272,0.0040894178683146265,1.021560997940032
1677618677974578,0.12530708781567146,0.0042114900434881974,1.0197299153124284
1677618677990556,0.12481879911497629,0.0038452735179674846,1.018997482261387
1677618678006533,0.1264057373922336,0.0042114900434881974,1.0191195544365605
1677618678022511,0.12542915999084503,0.003479056992446772,1.0204623483634698
1677618678038488,0.12359807736324058,0.004333562218661768,1.0221713588158998
1677618678054465,0.12457465476462914,0.004821850919356052,1.0175326161593041
1677618678070443,0.1231097886625463,0.004333562218661768,1.0177767605096513
1677618678086420,0.12420843823910843,0.005676356145571049,1.0205844205386434
1677618678102398,0.1259174486915393,0.0037232013427939137,1.0216830701152055
1677618678118375,0.12494087129014986,0.005432211795223907,1.0183871213855191
1677618678134352,0.1251850156404979,0.004821850919356052,1.018997482261387
1677618678150330,0.12481879911497629,0.005676356145571049,1.0202182040131227
1677618678166307,0.12481879911497629,0.005310139620050336,1.018997482261387
1677618678182284,0.1267719539177543,0.004821850919356052,1.0199740596627755
1677618678198262,0.12628366521706003,0.005065995269703194,1.0204623483634698
1677618678214239,0.1259174486915393,0.0038452735179674846,1.0205844205386434
1677618678230217,0.12603952086671288,0.004699778744182481,1.0213168535896848
1677618678246194,0.12469672693980272,0.0042114900434881974,1.019851987487602
1677618678262171,0.12469672693980272,0.004699778744182481,1.0202182040131227
1677618678278149,0.12420843823910843,0.003479056992446772,1.0221713588158998
1677618678294098,0.1272602426184486,0.00323491264209963,1.0199740596627755
1677618678310075,0.12457465476462914,0.0036011291676203427,1.022415503166247
1677618678326052,0.1259174486915393,0.003479056992446772,1.0186312657358663
1677618678342030,0.12457465476462914,0.005065995269703194,1.0213168535896848
1677618678358007,0.1251850156404979,0.005310139620050336,1.0197299153124284
1677618678373984,0.12506294346532432,0.006530861371786045,1.0188754100862134
1677618678389962,0.12445258258945557,0.005310139620050336,1.0204623483634698
1677618678405939,0.12420843823910843,0.005554283970397478,1.0202182040131227
1677618678421917,0.12579537651636574,0.00457770656900891,1.020706492713817
1677618678437894,0.12530708781567146,0.004943923094529623,1.0205844205386434
1677618678453871,0.12420843823910843,0.005065995269703194,1.0196078431372548
1677618678469849,0.12542915999084503,0.0040894178683146265,1.0187533379110398
1677618678485826,0.12506294346532432,0.004821850919356052,1.0203402761882963
1677618678501803,0.12457465476462914,0.004699778744182481,1.0204623483634698
1677618678517781,0.12481879911497629,0.005676356145571049,1.0176546883344777
1677618678533758,0.12469672693980272,0.004333562218661768,1.0187533379110398
1677618678549736,0.12457465476462914,0.005554283970397478,1.0194857709620813
1677618678565713,0.12481879911497629,0.0036011291676203427,1.0187533379110398
1677618678581690,0.12506294346532432,0.004699778744182481,1.018997482261387
1677618678597668,0.12628366521706003,0.004943923094529623,1.0199740596627755
1677618678613617,0.1255512321660186,0.005676356145571049,1.0199740596627755
1677618678629594,0.12506294346532432,0.0060425726710917615,1.0193636987869077
1677618678645571,0.12481879911497629,0.005188067444876765,1.0191195544365605
1677618678661549,0.12542915999084503,0.0040894178683146265,1.0199740596627755
1677618678677526,0.12579537651636574,0.004943923094529623,1.0188754100862134
1677618678693503,0.12603952086671288,0.005310139620050336,1.0192416266117341
1677618678709481,0.124330510414282,0.005676356145571049,1.0187533379110398
1677618678725458,0.12494087129014986,0.005188067444876765,1.0214389257648584
1677618678741436,0.12408636606393486,0.00457770656900891,1.018997482261387
1677618678757413,0.12530708781567146,0.004699778744182481,1.0200961318379491
1677618678773390,0.124330510414282,0.005065995269703194,1.0187533379110398
1677618678789368,0.12494087129014986,0.004699778744182481,1.020706492713817
1677618678805345,0.12542915999084503,0.005065995269703194,1.0187533379110398
1677618678821323,0.12579537651636574,0.004333562218661768,1.021805142290379
1677618678837300,0.1251850156404979,0.005310139620050336,1.0186312657358663
1677618678853277,0.12457465476462914,0.004943923094529623,1.0174105439841306
1677618678869255,0.124330510414282,0.0040894178683146265,1.0202182040131227
1677618678885232,0.12420843823910843,0.004455634393835339,1.0202182040131227
1677618678901209,0.12469672693980272,0.00579842832074462,1.0182650492103456
1677618678917187,0.12420843823910843,0.004821850919356052,1.0211947814145113
1677618678933136,0.12457465476462914,0.00457770656900891,1.0185091935606927
1677618678949113,0.12481879911497629,0.004333562218661768,1.0199740596627755
1677618678965090,0.12530708781567146,0.0060425726710917615,1.0202182040131227
1677618678981068,0.12506294346532432,0.005310139620050336,1.0211947814145113
1677618678997045,0.12506294346532432,0.005920500495918191,1.0188754100862134
1677618679013023,0.12506294346532432,0.004821850919356052,1.021560997940032
1677618679029000,0.12579537651636574,0.004333562218661768,1.022415503166247
1677618679044977,0.1251850156404979,0.004333562218661768,1.0200961318379491
1677618679060955,0.124330510414282,0.005554283970397478,1.0193636987869077
1677618679076932,0.12396429388876129,0.005065995269703194,1.0202182040131227
1677618679092909,0.124330510414282,0.005920500495918191,1.0203402761882963
1677618679108887,0.12530708781567146,0.005188067444876765,1.0191195544365605
1677618679124864,0.12469672693980272,0.005554283970397478,1.0196078431372548
1677618679140842,0.12457465476462914,0.005554283970397478,1.0202182040131227
1677618679156819,0.12530708781567146,0.005676356145571049,1.0185091935606927
1677618679172796,0.12579537651636574,0.005676356145571049,1.0194857709620813
1677618679188774,0.12603952086671288,0.003479056992446772,1.0185091935606927
1677618679204751,0.1255512321660186,0.005554283970397478,1.0196078431372548
1677618679220728,0.12579537651636574,0.005310139620050336,1.0174105439841306
1677618679236706,0.12420843823910843,0.005920500495918191,1.0182650492103456
1677618679252655,0.12384222171358772,0.00457770656900891,1.018997482261387
1677618679268632,0.12530708781567146,0.005065995269703194,1.0200961318379491
1677618679284608,0.12457465476462914,0.005554283970397478,1.0200961318379491
1677618679300585,0.12481879911497629,0.004333562218661768,1.0192416266117341
1677618679316562,0.12603952086671288,0.004455634393835339,1.0194857709620813
1677618679332539,0.12530708781567146,0.005432211795223907,1.0214389257648584
1677618679348516,0.12506294346532432,0.005188067444876765,1.0188754100862134
1677618679364493,0.12457465476462914,0.004943923094529623,1.0183871213855191
1677618679380470,0.12506294346532432,0.00457770656900891,1.0191195544365605
1677618679396447,0.12359807736324058,0.005310139620050336,1.0221713588158998
1677618679412424,0.1251850156404979,0.004821850919356052,1.0178988326848248
1677618679428401,0.12481879911497629,0.004333562218661768,1.0196078431372548
1677618679444378,0.12579537651636574,0.004333562218661768,1.0196078431372548
1677618679460354,0.12579537651636574,0.005188067444876765,1.0200961318379491
1677618679476331,0.12542915999084503,0.005065995269703194,1.0192416266117341
1677618679492308,0.12567330434119217,0.004699778744182481,1.0193636987869077
1677618679508285,0.1231097886625463,0.0036011291676203427,1.0231479362172884
1677618679524262,0.12469672693980272,0.004455634393835339,1.018997482261387
1677618679540239,0.12481879911497629,0.002990768291752488,1.0191195544365605
1677618679556216,0.1267719539177543,0.005188067444876765,1.0182650492103456
1677618679572174,0.12530708781567146,0.0061646448462653325,1.0204623483634698
1677618679588151,0.12457465476462914,0.0040894178683146265,1.0197299153124284
1677618679604128,0.12494087129014986,0.004699778744182481,1.018997482261387
1677618679620104,0.12579537651636574,0.005676356145571049,1.0186312657358663
1677618679636081,0.12579537651636574,0.005676356145571049,1.0188754100862134
1677618679652058,0.12445258258945557,0.00457770656900891,1.0231479362172884
1677618679668035,0.12530708781567146,0.005188067444876765,1.0199740596627755
1677618679684012,0.12542915999084503,0.00579842832074462,1.018997482261387
1677618679699989,0.12603952086671288,0.004455634393835339,1.0203402761882963
1677618679715966,0.12579537651636574,0.00457770656900891,1.0208285648889905
1677618679731943,0.12567330434119217,0.005065995269703194,1.0203402761882963
1677618679747920,0.12469672693980272,0.0040894178683146265,1.0175326161593041
1677618679763897,0.12506294346532432,0.004333562218661768,1.0205844205386434
1677618679779873,0.12408636606393486,0.0040894178683146265,1.0219272144655527
1677618679795850,0.12372014953841415,0.005432211795223907,1.0199740596627755
1677618679811827,0.1251850156404979,0.005188067444876765,1.0166781109330891
1677618679827804,0.12542915999084503,0.004821850919356052,1.0209506370641641
1677618679843781,0.12628366521706003,0.004699778744182481,1.020706492713817
1677618679859758,0.12481879911497629,0.0039673456931410556,1.0216830701152055
1677618679875735,0.12469672693980272,0.0040894178683146265,1.0178988326848248
1677618679891693,0.12542915999084503,0.004821850919356052,1.0202182040131227
1677618679907670,0.12408636606393486,0.005310139620050336,1.0197299153124284
1677618679923647,0.12420843823910843,0.004333562218661768,1.0187533379110398
1677618679939623,0.12530708781567146,0.004333562218661768,1.0197299153124284
1677618679955600,0.12506294346532432,0.004333562218661768,1.0196078431372548
1677618679971577,0.12579537651636574,0.00457770656900891,1.0211947814145113
1677618679987554,0.12701609826810145,0.004333562218661768,1.0203402761882963
1677618680003531,0.1251850156404979,0.0026245517662317752,1.0194857709620813
1677618680019508,0.124330510414282,0.005310139620050336,1.0193636987869077
1677618680035485,0.12384222171358772,0.004333562218661768,1.0209506370641641
1677618680051462,0.12664988174258074,0.005065995269703194,1.0196078431372548
1677618680067439,0.12542915999084503,0.006530861371786045,1.018997482261387
1677618680083416,0.12506294346532432,0.0037232013427939137,1.0216830701152055
1677618680099393,0.12469672693980272,0.005310139620050336,1.0209506370641641
1677618680115369,0.12469672693980272,0.006286717021438903,1.0196078431372548
1677618680131346,0.12420843823910843,0.005432211795223907,1.0205844205386434
1677618680147323,0.12457465476462914,0.004699778744182481,1.0188754100862134
1677618680163300,0.1255512321660186,0.00579842832074462,1.0202182040131227
1677618680179277,0.12420843823910843,0.003356984817273201,1.0192416266117341
1677618680195254,0.12567330434119217,0.004943923094529623,1.0196078431372548
1677618680211181,0.12567330434119217,0.005310139620050336,1.0154573891813534
1677618680227158,0.12420843823910843,0.005310139620050336,1.0216830701152055
1677618680243135,0.1251850156404979,0.006408789196612474,1.0191195544365605
1677618680259112,0.12530708781567146,0.005310139620050336,1.0219272144655527
1677618680275089,0.1251850156404979,0.0040894178683146265,1.0205844205386434
1677618680291066,0.12506294346532432,0.0040894178683146265,1.0191195544365605
1677618680307043,0.12689402609292788,0.005188067444876765,1.0203402761882963
1677618680323020,0.12664988174258074,0.006530861371786045,1.0174105439841306
1677618680338997,0.12420843823910843,0.005065995269703194,1.0185091935606927
1677618680354973,0.12408636606393486,0.005676356145571049,1.0192416266117341
1677618680370950,0.12396429388876129,0.005310139620050336,1.0174105439841306
1677618680386927,0.12579537651636574,0.005188067444876765,1.017288471808957
1677618680402904,0.1251850156404979,0.0042114900434881974,1.0200961318379491
1677618680418881,0.1251850156404979,0.004943923094529623,1.020706492713817
1677618680434858,0.12530708781567146,0.0038452735179674846,1.0200961318379491
1677618680450835,0.1251850156404979,0.004455634393835339,1.0196078431372548
1677618680466812,0.1259174486915393,0.00579842832074462,1.0187533379110398
1677618680482789,0.12603952086671288,0.0060425726710917615,1.0185091935606927
1677618680498766,0.1251850156404979,0.004821850919356052,1.0188754100862134
1677618680514742,0.12469672693980272,0.0039673456931410556,1.0191195544365605
1677618680530700,0.12542915999084503,0.005676356145571049,1.018142977035172
1677618680546677,0.12542915999084503,0.004699778744182481,1.0220492866407263
1677618680562654,0.124330510414282,0.004699778744182481,1.0211947814145113
1677618680578631,0.12506294346532432,0.005188067444876765,1.0208285648889905
1677618680594608,0.12457465476462914,0.004333562218661768,1.0200961318379491
1677618680610585,0.1255512321660186,0.004455634393835339,1.0196078431372548
1677618680626562,0.12481879911497629,0.0042114900434881974,1.0170443274586098
1677618680642539,0.12567330434119217,0.0042114900434881974,1.0192416266117341
1677618680658516,0.1251850156404979,0.00457770656900891,1.0202182040131227
1677618680674492,0.12506294346532432,0.004699778744182481,1.0213168535896848
1677618680690469,0.12445258258945557,0.0061646448462653325,1.0200961318379491
1677618680706446,0.12542915999084503,0.005310139620050336,1.0174105439841306
1677618680722423,0.12494087129014986,0.004943923094529623,1.0170443274586098
1677618680738400,0.12286564431219915,0.005310139620050336,1.0205844205386434
1677618680754377,0.12494087129014986,0.0038452735179674846,1.0208285648889905
1677618680770354,0.12298771648737272,0.004455634393835339,1.0192416266117341
1677618680786331,0.12384222171358772,0.0038452735179674846,1.0182650492103456
1677618680802308,0.12567330434119217,0.004333562218661768,1.0194857709620813
1677618680818285,0.1264057373922336,0.004699778744182481,1.0187533379110398
1677618680834262,0.12542915999084503,0.0038452735179674846,1.0182650492103456
1677618680850219,0.12481879911497629,0.004455634393835339,1.0203402761882963
1677618680866196,0.12579537651636574,0.005432211795223907,1.0187533379110398
1677618680882172,0.12603952086671288,0.005310139620050336,1.0202182040131227
1677618680898149,0.1255512321660186,0.005920500495918191,1.0169222552834363
1677618680914125,0.123476005188067,0.005065995269703194,1.0194857709620813
1677618680930101,0.1255512321660186,0.0042114900434881974,1.0194857709620813
1677618680946078,0.12506294346532432,0.004821850919356052,1.0202182040131227
1677618680962054,0.1255512321660186,0.005188067444876765,1.0196078431372548
1677618680978031,0.12481879911497629,0.004821850919356052,1.0194857709620813
1677618680994007,0.12384222171358772,0.004943923094529623,1.0196078431372548
1677618681009984,0.12469672693980272,0.0042114900434881974,1.0220492866407263
1677618681025960,0.12396429388876129,0.005554283970397478,1.0203402761882963
1677618681041936,0.12506294346532432,0.005676356145571049,1.019851987487602
1677618681057913,0.12396429388876129,0.0040894178683146265,1.0221713588158998
1677618681073889,0.1259174486915393,0.0039673456931410556,1.0204623483634698
1677618681089866,0.1251850156404979,0.0038452735179674846,1.0204623483634698
1677618681105842,0.1231097886625463,0.005310139620050336,1.019851987487602
1677618681121819,0.1251850156404979,0.00579842832074462,1.0191195544365605
1677618681137795,0.12457465476462914,0.004455634393835339,1.0214389257648584
1677618681153772,0.12359807736324058,0.005432211795223907,1.0191195544365605
1677618681169738,0.12469672693980272,0.004455634393835339,1.0187533379110398
1677618681185715,0.12616159304188646,0.004821850919356052,1.0208285648889905
1677618681201691,0.1255512321660186,0.004455634393835339,1.0182650492103456
1677618681217668,0.12652780956740717,0.004821850919356052,1.0192416266117341
1677618681233644,0.12603952086671288,0.0040894178683146265,1.0176546883344777
1677618681249621,0.12506294346532432,0.0040894178683146265,1.0205844205386434
1677618681265597,0.12469672693980272,0.005554283970397478,1.0210727092393377
1677618681281573,0.12396429388876129,0.005920500495918191,1.0187533379110398
1677618681297550,0.12469672693980272,0.004943923094529623,1.018142977035172
1677618681313526,0.124330510414282,0.005676356145571049,1.018997482261387
1677618681329503,0.12457465476462914,0.004455634393835339,1.0199740596627755
1677618681345479,0.12494087129014986,0.00457770656900891,1.0205844205386434
1677618681361456,0.12542915999084503,0.0042114900434881974,1.0196078431372548
1677618681377432,0.12420843823910843,0.0038452735179674846,1.0209506370641641
1677618681393408,0.12506294346532432,0.005188067444876765,1.0191195544365605
1677618681409385,0.12579537651636574,0.0040894178683146265,1.0191195544365605
1677618681425361,0.1255512321660186,0.0038452735179674846,1.0178988326848248
1677618681441338,0.12494087129014986,0.005432211795223907,1.021560997940032
1677618681457314,0.12506294346532432,0.0040894178683146265,1.0203402761882963
1677618681473291,0.12530708781567146,0.003479056992446772,1.0187533379110398
1677618681489257,0.1255512321660186,0.0042114900434881974,1.0200961318379491
1677618681505234,0.12530708781567146,0.004699778744182481,1.0178988326848248
1677618681521210,0.12408636606393486,0.003356984817273201,1.0213168535896848
1677618681537187,0.12372014953841415,0.004333562218661768,1.0168001831082627
1677618681553163,0.12506294346532432,0.004455634393835339,1.0193636987869077
1677618681569140,0.12481879911497629,0.004455634393835339,1.0193636987869077
1677618681585116,0.12494087129014986,0.005065995269703194,1.0186312657358663
1677618681601092,0.12530708781567146,0.005676356145571049,1.0205844205386434
1677618681617069,0.1251850156404979,0.00457770656900891,1.018997482261387
1677618681633045,0.12567330434119217,0.002990768291752488,1.018997482261387
1677618681649022,0.12506294346532432,0.0036011291676203427,1.0199740596627755
1677618681664998,0.12420843823910843,0.00579842832074462,1.0200961318379491
1677618681680975,0.124330510414282,0.004943923094529623,1.0203402761882963
1677618681696951,0.12579537651636574,0.004455634393835339,1.0196078431372548
1677618681712927,0.12567330434119217,0.004821850919356052,1.0192416266117341
1677618681728904,0.1255512321660186,0.004699778744182481,1.0194857709620813
1677618681744880,0.12567330434119217,0.0038452735179674846,1.0193636987869077
1677618681760857,0.12494087129014986,0.0042114900434881974,1.0210727092393377
1677618681776833,0.12542915999084503,0.0037232013427939137,1.0171663996337834
1677618681792810,0.12384222171358772,0.006897077897306758,1.0185091935606927
1677618681808776,0.12457465476462914,0.004455634393835339,1.0160677500572213
1677618681824753,0.12469672693980272,0.004333562218661768,1.020706492713817
1677618681840729,0.12481879911497629,0.0038452735179674846,1.0202182040131227
1677618681856706,0.1267719539177543,0.005554283970397478,1.0197299153124284
1677618681872682,0.12616159304188646,0.005554283970397478,1.0182650492103456
1677618681888659,0.12506294346532432,0.00579842832074462,1.019851987487602
1677618681904635,0.12506294346532432,0.0061646448462653325,1.0193636987869077
1677618681920611,0.12530708781567146,0.0039673456931410556,1.0200961318379491
1677618681936588,0.12542915999084503,0.0038452735179674846,1.0183871213855191
1677618681952564,0.12530708781567146,0.005310139620050336,1.0186312657358663
1677618681968541,0.1255512321660186,0.00457770656900891,1.0205844205386434
1677618681984517,0.1251850156404979,0.005310139620050336,1.0204623483634698
1677618682000494,0.12494087129014986,0.005920500495918191,1.0174105439841306
1677618682016470,0.12469672693980272,0.005432211795223907,1.0180209048599984
1677618682032446,0.1259174486915393,0.005310139620050336,1.0209506370641641
1677618682048423,0.12481879911497629,0.003112840466926059,1.0191195544365605
1677618682064399,0.1255512321660186,0.006286717021438903,1.018142977035172
1677618682080376,0.12384222171358772,0.005920500495918191,1.0214389257648584
1677618682096352,0.12420843823910843,0.005065995269703194,1.0214389257648584
1677618682112329,0.12530708781567146,0.004943923094529623,1.0214389257648584
1677618682128296,0.12481879911497629,0.0061646448462653325,1.0205844205386434
1677618682144272,0.12567330434119217,0.005188067444876765,1.0178988326848248
1677618682160248,0.12530708781567146,0.004943923094529623,1.0202182040131227
1677618682176225,0.12469672693980272,0.004699778744182481,1.0204623483634698
1677618682192201,0.1259174486915393,0.004943923094529623,1.018142977035172
1677618682208178,0.12530708781567146,0.004943923094529623,1.0186312657358663
1677618682224154,0.12579537651636574,0.004943923094529623,1.0192416266117341
1677618682240131,0.12652780956740717,0.005065995269703194,1.0197299153124284
1677618682256107,0.12457465476462914,0.0037232013427939137,1.018997482261387
1677618682272083,0.1259174486915393,0.004333562218661768,1.0182650492103456
1677618682288060,0.12506294346532432,0.0037232013427939137,1.0178988326848248
1677618682304036,0.1251850156404979,0.005065995269703194,1.0192416266117341
1677618682320013,0.12457465476462914,0.005920500495918191,1.0178988326848248
1677618682335989,0.12530708781567146,0.0060425726710917615,1.0203402761882963
1677618682351966,0.12530708781567146,0.005065995269703194,1.0192416266117341
1677618682367942,0.12469672693980272,0.004943923094529623,1.020706492713817
1677618682383918,0.12494087129014986,0.0040894178683146265,1.0185091935606927
1677618682399895,0.12445258258945557,0.0036011291676203427,1.0182650492103456
1677618682415871,0.12628366521706003,0.005188067444876765,1.0194857709620813
1677618682431848,0.12567330434119217,0.006408789196612474,1.0196078431372548
1677618682447815,0.1255512321660186,0.005920500495918191,1.019851987487602
1677618682463791,0.12408636606393486,0.004943923094529623,1.0178988326848248
1677618682479767,0.12469672693980272,0.004821850919356052,1.019851987487602
1677618682495744,0.12530708781567146,0.005188067444876765,1.0175326161593041
1677618682511720,0.1255512321660186,0.004943923094529623,1.0191195544365605
1677618682527697,0.1255512321660186,0.006286717021438903,1.0176546883344777
1677618682543673,0.1251850156404979,0.004333562218661768,1.0176546883344777
1677618682559650,0.12445258258945557,0.0042114900434881974,1.0194857709620813
1677618682575626,0.12445258258945557,0.005676356145571049,1.0192416266117341
1677618682591602,0.12628366521706003,0.0042114900434881974,1.0170443274586098
1677618682607579,0.12628366521706003,0.0038452735179674846,1.0197299153124284
1677618682623555,0.12579537651636574,0.004333562218661768,1.020706492713817
1677618682639532,0.12603952086671288,0.006286717021438903,1.021560997940032
1677618682655508,0.12408636606393486,0.005065995269703194,1.021805142290379
1677618682671485,0.12506294346532432,0.004455634393835339,1.020706492713817
1677618682687461,0.12567330434119217,0.004943923094529623,1.021805142290379
1677618682703437,0.12530708781567146,0.005554283970397478,1.0211947814145113
1677618682719414,0.12481879911497629,0.004455634393835339,1.0196078431372548
1677618682735390,0.12567330434119217,0.0042114900434881974,1.0196078431372548
1677618682751367,0.1267719539177543,0.005065995269703194,1.0219272144655527
1677618682767334,0.1251850156404979,0.0037232013427939137,1.0186312657358663
1677618682783310,0.1251850156404979,0.005065995269703194,1.0192416266117341
1677618682799286,0.12420843823910843,0.0038452735179674846,1.0209506370641641
1677618682815263,0.123476005188067,0.005554283970397478,1.019851987487602
1677618682831239,0.12457465476462914,0.0037232013427939137,1.017288471808957
1677618682847216,0.12628366521706003,0.00457770656900891,1.0194857709620813
1677618682863192,0.1259174486915393,0.004943923094529623,1.0188754100862134
1677618682879169,0.12420843823910843,0.00457770656900891,1.0199740596627755
1677618682895145,0.12457465476462914,0.0040894178683146265,1.0185091935606927
1677618682911121,0.12481879911497629,0.00457770656900891,1.0182650492103456
1677618682927098,0.1259174486915393,0.005188067444876765,1.019851987487602
1677618682943074,0.12542915999084503,0.00457770656900891,1.0213168535896848
1677618682959051,0.12713817044327502,0.00457770656900891,1.0205844205386434
1677618682975027,0.1251850156404979,0.0040894178683146265,1.0183871213855191
1677618682991004,0.12542915999084503,0.0040894178683146265,1.0178988326848248
1677618683006980,0.1251850156404979,0.004699778744182481,1.0199740596627755
1677618683022956,0.12445258258945557,0.002746623941405346,1.0183871213855191
1677618683038933,0.1259174486915393,0.004333562218661768,1.0176546883344777
1677618683054909,0.12530708781567146,0.005065995269703194,1.0196078431372548
1677618683070886,0.12506294346532432,0.0042114900434881974,1.0196078431372548
1677618683086853,0.12457465476462914,0.004699778744182481,1.0196078431372548
1677618683102829,0.1251850156404979,0.0061646448462653325,1.018997482261387
1677618683118806,0.12542915999084503,0.005188067444876765,1.0169222552834363
1677618683134782,0.12652780956740717,0.004821850919356052,1.019851987487602
1677618683150758,0.1255512321660186,0.004943923094529623,1.0203402761882963
1677618683166735,0.12689402609292788,0.005310139620050336,1.0180209048599984
1677618683182711,0.12494087129014986,0.005554283970397478,1.0187533379110398
1677618683198688,0.12542915999084503,0.005676356145571049,1.021560997940032
1677618683214664,0.12567330434119217,0.004943923094529623,1.0194857709620813
1677618683230641,0.12494087129014986,0.005554283970397478,1.0209506370641641
1677618683246617,0.12420843823910843,0.0037232013427939137,1.0178988326848248
1677618683262593,0.12506294346532432,0.005310139620050336,1.0199740596627755
1677618683278570,0.12506294346532432,0.005065995269703194,1.0191195544365605
1677618683294546,0.1259174486915393,0.004455634393835339,1.0209506370641641
1677618683310523,0.12457465476462914,0.004333562218661768,1.0186312657358663
1677618683326499,0.12469672693980272,0.0061646448462653325,1.0193636987869077
1677618683342476,0.1251850156404979,0.004699778744182481,1.0182650492103456
1677618683358452,0.1251850156404979,0.0038452735179674846,1.0193636987869077
1677618683374428,0.12420843823910843,0.005432211795223907,1.0203402761882963
1677618683390405,0.12457465476462914,0.004943923094529623,1.0202182040131227
1677618683406372,0.12603952086671288,0.003356984817273201,1.0194857709620813
1677618683422348,0.12420843823910843,0.00323491264209963,1.0183871213855191
1677618683438325,0.12579537651636574,0.0042114900434881974,1.0180209048599984
1677618683454301,0.12481879911497629,0.0025024795910582043,1.0182650492103456
1677618683470277,0.12567330434119217,0.004455634393835339,1.0219272144655527
1677618683486254,0.12408636606393486,0.005188067444876765,1.019851987487602
1677618683502230,0.12396429388876129,0.005554283970397478,1.0186312657358663
1677618683518207,0.1251850156404979,0.005676356145571049,1.0187533379110398
1677618683534183,0.124330510414282,0.0042114900434881974,1.0183871213855191
1677618683550160,0.1251850156404979,0.0042114900434881974,1.0194857709620813
1677618683566136,0.12530708781567146,0.0036011291676203427,1.0169222552834363
1677618683582112,0.12481879911497629,0.004821850919356052,1.0177767605096513
1677618683598089,0.1255512321660186,0.005310139620050336,1.018997482261387
1677618683614065,0.124330510414282,0.004333562218661768,1.0191195544365605
1677618683630042,0.1264057373922336,0.005065995269703194,1.0196078431372548
1677618683646018,0.12628366521706003,0.00457770656900891,1.0203402761882963
1677618683661995,0.12408636606393486,0.0038452735179674846,1.0211947814145113
1677618683677971,0.1251850156404979,0.00579842832074462,1.0202182040131227
1677618683693947,0.12408636606393486,0.004699778744182481,1.0213168535896848
1677618683709924,0.12384222171358772,0.005676356145571049,1.0202182040131227
1677618683725891,0.1231097886625463,0.004943923094529623,1.0216830701152055
1677618683741867,0.12481879911497629,0.005188067444876765,1.0186312657358663
1677618683757844,0.12469672693980272,0.005310139620050336,1.0191195544365605
1677618683773820,0.12481879911497629,0.005310139620050336,1.0208285648889905
1677618683789796,0.12530708781567146,0.00457770656900891,1.0205844205386434
1677618683805773,0.1251850156404979,0.005554283970397478,1.0192416266117341
1677618683821749,0.12652780956740717,0.005432211795223907,1.0193636987869077
1677618683837726,0.12628366521706003,0.004821850919356052,1.0211947814145113
1677618683853702,0.12542915999084503,0.005065995269703194,1.0197299153124284
1677618683869679,0.12506294346532432,0.004333562218661768,1.0202182040131227
1677618683885655,0.12506294346532432,0.005188067444876765,1.016433966582742
1677618683901631,0.1251850156404979,0.005554283970397478,1.0199740596627755
1677618683917608,0.12457465476462914,0.004821850919356052,1.0200961318379491
1677618683933584,0.12359807736324058,0.004699778744182481,1.0177767605096513
1677618683949561,0.124330510414282,0.0038452735179674846,1.0191195544365605
1677618683965537,0.12396429388876129,0.004821850919356052,1.0192416266117341
1677618683981514,0.1259174486915393,0.005188067444876765,1.0186312657358663
1677618683997490,0.12469672693980272,0.004699778744182481,1.0210727092393377
1677618684013466,0.12567330434119217,0.004943923094529623,1.0209506370641641
1677618684029443,0.1259174486915393,0.004821850919356052,1.0204623483634698
1677618684045410,0.1267719539177543,0.005432211795223907,1.0185091935606927
1677618684061386,0.12579537651636574,0.004333562218661768,1.0165560387579156
1677618684077363,0.12579537651636574,0.005188067444876765,1.0177767605096513
1677618684093339,0.12542915999084503,0.004455634393835339,1.0204623483634698
1677618684109315,0.12530708781567146,0.004333562218661768,1.0199740596627755
1677618684125292,0.12481879911497629,0.005554283970397478,1.0192416266117341
1677618684141268,0.12396429388876129,0.005676356145571049,1.0200961318379491
1677618684157245,0.12457465476462914,0.0039673456931410556,1.0185091935606927
1677618684173221,0.12542915999084503,0.006530861371786045,1.0192416266117341
1677618684189198,0.1259174486915393,0.005554283970397478,1.0191195544365605
1677618684205174,0.12579537651636574,0.0042114900434881974,1.0192416266117341
1677618684221151,0.1259174486915393,0.004455634393835339,1.0180209048599984
1677618684237127,0.12445258258945557,0.004943923094529623,1.0168001831082627
1677618684253103,0.12408636606393486,0.0040894178683146265,1.0202182040131227
1677618684269080,0.12469672693980272,0.005188067444876765,1.0191195544365605
1677618684285056,0.12567330434119217,0.005065995269703194,1.0197299153124284
1677618684301033,0.1264057373922336,0.004333562218661768,1.0205844205386434
1677618684317009,0.12335393301289344,0.0042114900434881974,1.0163118944075684
1677618684332986,0.12445258258945557,0.004699778744182481,1.0166781109330891
1677618684348962,0.1255512321660186,0.00579842832074462,1.021560997940032
1677618684364898,0.12420843823910843,0.004699778744182481,1.0191195544365605
1677618684380874,0.12420843823910843,0.0038452735179674846,1.0182650492103456
1677618684396850,0.12469672693980272,0.004699778744182481,1.017288471808957
1677618684412826,0.12530708781567146,0.005310139620050336,1.0187533379110398
1677618684428802,0.12445258258945557,0.004333562218661768,1.0205844205386434
1677618684444778,0.12579537651636574,0.0038452735179674846,1.0185091935606927
1677618684460754,0.12603952086671288,0.005554283970397478,1.0199740596627755
1677618684476730,0.1255512321660186,0.00457770656900891,1.0187533379110398
1677618684492706,0.12628366521706003,0.0060425726710917615,1.0219272144655527
1677618684508682,0.12616159304188646,0.004333562218661768,1.0193636987869077
1677618684524658,0.12603952086671288,0.004821850919356052,1.018142977035172
1677618684540634,0.1251850156404979,0.005310139620050336,1.0202182040131227
1677618684556610,0.1251850156404979,0.0039673456931410556,1.0213168535896848
1677618684572586,0.12603952086671288,0.005554283970397478,1.0186312657358663
1677618684588562,0.1255512321660186,0.00457770656900891,1.0182650492103456
1677618684604538,0.12530708781567146,0.0042114900434881974,1.0211947814145113
1677618684620514,0.12457465476462914,0.005432211795223907,1.0200961318379491
1677618684636489,0.12530708781567146,0.004943923094529623,1.0187533379110398
1677618684652465,0.12506294346532432,0.004821850919356052,1.0168001831082627
1677618684668441,0.12469672693980272,0.00457770656900891,1.018997482261387
1677618684684417,0.12506294346532432,0.005065995269703194,1.018997482261387
1677618684700393,0.12603952086671288,0.005188067444876765,1.0175326161593041
1677618684716369,0.1264057373922336,0.0042114900434881974,1.020706492713817
1677618684732345,0.1251850156404979,0.004943923094529623,1.0187533379110398
1677618684748321,0.12494087129014986,0.0042114900434881974,1.0209506370641641
1677618684764297,0.12359807736324058,0.004943923094529623,1.0196078431372548
1677618684780273,0.12542915999084503,0.004821850919356052,1.0177767605096513
1677618684796249,0.12457465476462914,0.004455634393835339,1.0196078431372548
1677618684812225,0.12359807736324058,0.005188067444876765,1.018997482261387
1677618684828201,0.1264057373922336,0.0042114900434881974,1.0208285648889905
1677618684844177,0.12579537651636574,0.004455634393835339,1.0171663996337834
1677618684860153,0.12359807736324058,0.004699778744182481,1.0199740596627755
1677618684876129,0.12469672693980272,0.004699778744182481,1.0199740596627755
1677618684892105,0.12530708781567146,0.00457770656900891,1.0196078431372548
1677618684908081,0.12530708781567146,0.004821850919356052,1.018997482261387
1677618684924057,0.12506294346532432,0.00457770656900891,1.0191195544365605
1677618684940033,0.12567330434119217,0.0042114900434881974,1.0204623483634698
1677618684956009,0.1264057373922336,0.004455634393835339,1.0185091935606927
1677618684971984,0.12457465476462914,0.004699778744182481,1.0187533379110398
1677618684987960,0.12567330434119217,0.005920500495918191,1.0187533379110398
1677618685003936,0.12481879911497629,0.004333562218661768,1.0180209048599984
1677618685019912,0.1259174486915393,0.0038452735179674846,1.0202182040131227
1677618685035888,0.12530708781567146,0.005310139620050336,1.0194857709620813
1677618685051864,0.12603952086671288,0.005310139620050336,1.0180209048599984
1677618685067840,0.12713817044327502,0.004699778744182481,1.0192416266117341
1677618685083816,0.12481879911497629,0.0037232013427939137,1.020706492713817
1677618685099792,0.12579537651636574,0.0038452735179674846,1.0193636987869077
1677618685115768,0.12530708781567146,0.0040894178683146265,1.0196078431372548
1677618685131744,0.12530708781567146,0.005432211795223907,1.0204623483634698
1677618685147720,0.12396429388876129,0.0039673456931410556,1.020706492713817
1677618685163696,0.12506294346532432,0.004699778744182481,1.0182650492103456
1677618685179672,0.12445258258945557,0.00457770656900891,1.0183871213855191
1677618685195648,0.12567330434119217,0.005310139620050336,1.0187533379110398
1677618685211624,0.12579537651636574,0.0039673456931410556,1.021805142290379
1677618685227600,0.12579537651636574,0.005065995269703194,1.0193636987869077
1677618685243576,0.12579537651636574,0.0042114900434881974,1.0192416266117341
1677618685259552,0.12469672693980272,0.004455634393835339,1.019851987487602
1677618685275528,0.12481879911497629,0.0036011291676203427,1.0186312657358663
1677618685291504,0.12542915999084503,0.005920500495918191,1.0171663996337834
1677618685307479,0.12530708781567146,0.005920500495918191,1.0203402761882963
1677618685323455,0.12420843823910843,0.005554283970397478,1.0194857709620813
1677618685339431,0.12469672693980272,0.0037232013427939137,1.021805142290379
1677618685355407,0.12457465476462914,0.005188067444876765,1.019851987487602
1677618685371383,0.1255512321660186,0.00457770656900891,1.0187533379110398
1677618685387359,0.12494087129014986,0.004455634393835339,1.0220492866407263
1677618685403335,0.1255512321660186,0.006286717021438903,1.0203402761882963
1677618685419311,0.12457465476462914,0.005065995269703194,1.0200961318379491
1677618685435287,0.12481879911497629,0.004333562218661768,1.0193636987869077
1677618685451263,0.12530708781567146,0.005432211795223907,1.0214389257648584
1677618685467239,0.1255512321660186,0.006652933546959616,1.0193636987869077
1677618685483215,0.12542915999084503,0.004943923094529623,1.0193636987869077
1677618685499191,0.12469672693980272,0.005188067444876765,1.0188754100862134
1677618685515167,0.12457465476462914,0.005188067444876765,1.0200961318379491
1677618685531143,0.12567330434119217,0.005065995269703194,1.0203402761882963
1677618685547119,0.12494087129014986,0.004699778744182481,1.0197299153124284
1677618685563095,0.1255512321660186,0.004943923094529623,1.0187533379110398
1677618685579071,0.12494087129014986,0.005432211795223907,1.0225375753414205
1677618685595047,0.12494087129014986,0.005920500495918191,1.0182650492103456
1677618685611023,0.12445258258945557,0.005920500495918191,1.0202182040131227
1677618685626999,0.12506294346532432,0.004455634393835339,1.0174105439841306
1677618685642974,0.12567330434119217,0.004821850919356052,1.0203402761882963
1677618685658950,0.12494087129014986,0.005188067444876765,1.0177767605096513
1677618685674926,0.1255512321660186,0.005065995269703194,1.0188754100862134
1677618685690902,0.12372014953841415,0.0037232013427939137,1.0193636987869077
1677618685706878,0.12420843823910843,0.0038452735179674846,1.0176546883344777
1677618685722854,0.1251850156404979,0.0061646448462653325,1.0188754100862134
1677618685738830,0.12530708781567146,0.00579842832074462,1.0177767605096513
1677618685754806,0.12494087129014986,0.005188067444876765,1.0199740596627755
1677618685770782,0.12457465476462914,0.005310139620050336,1.0192416266117341
1677618685786758,0.12506294346532432,0.0042114900434881974,1.0182650492103456
1677618685802734,0.1251850156404979,0.005554283970397478,1.0180209048599984
1677618685818710,0.12408636606393486,0.005920500495918191,1.0199740596627755
1677618685834686,0.12481879911497629,0.003479056992446772,1.018997482261387
1677618685850662,0.12542915999084503,0.00457770656900891,1.0188754100862134
1677618685866638,0.12567330434119217,0.0042114900434881974,1.0203402761882963
1677618685882614,0.12469672693980272,0.004943923094529623,1.0192416266117341
1677618685898590,0.12542915999084503,0.005676356145571049,1.0182650492103456
1677618685914566,0.12445258258945557,0.005310139620050336,1.019851987487602
1677618685930542,0.12603952086671288,0.005554283970397478,1.0171663996337834
1677618685946518,0.1255512321660186,0.004821850919356052,1.0182650492103456
1677618685962494,0.12396429388876129,0.005676356145571049,1.0203402761882963
1677618685978469,0.12481879911497629,0.005432211795223907,1.0200961318379491
1677618685994445,0.124330510414282,0.004821850919356052,1.017288471808957
1677618686010421,0.12652780956740717,0.005188067444876765,1.0183871213855191
1677618686026397,0.12689402609292788,0.0060425726710917615,1.0200961318379491
1677618686042373,0.1259174486915393,0.005554283970397478,1.0203402761882963
1677618686058349,0.12457465476462914,0.005065995269703194,1.0188754100862134
1677618686074325,0.1251850156404979,0.0042114900434881974,1.0197299153124284
1677618686090301,0.1255512321660186,0.004943923094529623,1.0168001831082627
1677618686106277,0.12579537651636574,0.0042114900434881974,1.0199740596627755
1677618686122253,0.12481879911497629,0.0036011291676203427,1.0197299153124284
1677618686138229,0.12616159304188646,0.0060425726710917615,1.0188754100862134
1677618686154205,0.1259174486915393,0.0042114900434881974,1.0204623483634698
1677618686170181,0.12603952086671288,0.0039673456931410556,1.020706492713817
1677618686186157,0.12579537651636574,0.004943923094529623,1.0211947814145113
1677618686202133,0.12469672693980272,0.005676356145571049,1.0192416266117341
1677618686218109,0.12750438696879574,0.0040894178683146265,1.0192416266117341
1677618686234085,0.12530708781567146,0.0039673456931410556,1.0188754100862134
1677618686250061,0.12506294346532432,0.005065995269703194,1.0177767605096513
1677618686266037,0.12567330434119217,0.004943923094529623,1.0187533379110398
1677618686282013,0.12530708781567146,0.00579842832074462,1.0204623483634698
1677618686297989,0.12457465476462914,0.005188067444876765,1.022659647516594
1677618686313964,0.12445258258945557,0.004699778744182481,1.018997482261387
1677618686329940,0.1259174486915393,0.005920500495918191,1.0178988326848248
1677618686345916,0.12652780956740717,0.005065995269703194,1.021805142290379
1677618686361892,0.12530708781567146,0.0061646448462653325,1.0182650492103456
1677618686377868,0.1259174486915393,0.0040894178683146265,1.0205844205386434
1677618686393844,0.12542915999084503,0.005188067444876765,1.0203402761882963
1677618686409820,0.12408636606393486,0.004333562218661768,1.018997482261387
1677618686425796,0.1267719539177543,0.004943923094529623,1.0211947814145113
1677618686441772,0.12494087129014986,0.00579842832074462,1.0213168535896848
1677618686457748,0.12506294346532432,0.004943923094529623,1.020706492713817
1677618686473724,0.1267719539177543,0.005310139620050336,1.0202182040131227
1677618686489700,0.1255512321660186,0.0038452735179674846,1.0213168535896848
1677618686505676,0.12530708781567146,0.0039673456931410556,1.0199740596627755
1677618686521652,0.1251850156404979,0.0061646448462653325,1.0177767605096513
1677618686537628,0.12628366521706003,0.0039673456931410556,1.0176546883344777
1677618686553604,0.12628366521706003,0.00457770656900891,1.0210727092393377
1677618686569580,0.12457465476462914,0.006286717021438903,1.0216830701152055
1677618686585556,0.1259174486915393,0.0042114900434881974,1.018997482261387
1677618686601532,0.12457465476462914,0.0040894178683146265,1.0180209048599984
1677618686617508,0.1251850156404979,0.005188067444876765,1.0191195544365605
1677618686633484,0.1251850156404979,0.005432211795223907,1.0213168535896848
1677618686649459,0.1259174486915393,0.005065995269703194,1.0205844205386434
1677618686665435,0.12469672693980272,0.005554283970397478,1.0185091935606927
1677618686681411,0.12542915999084503,0.005432211795223907,1.0187533379110398
1677618686697387,0.12506294346532432,0.004821850919356052,1.0192416266117341
1677618686713363,0.12530708781567146,0.0071412222476539,1.0219272144655527
1677618686729339,0.12603952086671288,0.005554283970397478,1.0196078431372548
1677618686745315,0.12530708781567146,0.006286717021438903,1.0193636987869077
1677618686761291,0.12616159304188646,0.004821850919356052,1.0203402761882963
1677618686777267,0.12530708781567146,0.004943923094529623,1.0192416266117341
1677618686793243,0.12616159304188646,0.005310139620050336,1.0197299153124284
1677618686809219,0.1255512321660186,0.005676356145571049,1.0231479362172884
1677618686825195,0.12396429388876129,0.0040894178683146265,1.0192416266117341
1677618686841171,0.12469672693980272,0.004455634393835339,1.0202182040131227
1677618686857147,0.1259174486915393,0.0039673456931410556,1.0178988326848248
1677618686873123,0.124330510414282,0.004821850919356052,1.0213168535896848
1677618686889099,0.12494087129014986,0.005554283970397478,1.0214389257648584
1677618686905075,0.12420843823910843,0.0040894178683146265,1.0197299153124284
1677618686921051,0.12542915999084503,0.005554283970397478,1.0199740596627755
1677618686937027,0.12445258258945557,0.00579842832074462,1.0200961318379491
1677618686953003,0.1259174486915393,0.005676356145571049,1.0219272144655527
1677618686968979,0.12567330434119217,0.005554283970397478,1.0209506370641641
1677618686984954,0.12445258258945557,0.004455634393835339,1.0174105439841306
1677618687000930,0.1251850156404979,0.0036011291676203427,1.018142977035172
1677618687016906,0.124330510414282,0.00457770656900891,1.0220492866407263
1677618687032882,0.12530708781567146,0.004943923094529623,1.0196078431372548
1677618687048858,0.12494087129014986,0.0040894178683146265,1.0180209048599984
1677618687064834,0.1255512321660186,0.0040894178683146265,1.0199740596627755
1677618687080810,0.12445258258945557,0.005432211795223907,1.0186312657358663
1677618687096786,0.12445258258945557,0.005554283970397478,1.0191195544365605
1677618687112762,0.12542915999084503,0.004821850919356052,1.0192416266117341
1677618687128738,0.12481879911497629,0.004455634393835339,1.019851987487602
1677618687144714,0.12603952086671288,0.004821850919356052,1.0199740596627755
1677618687160690,0.12579537651636574,0.004333562218661768,1.0178988326848248
1677618687176666,0.12530708781567146,0.005310139620050336,1.0169222552834363
1677618687192642,0.12420843823910843,0.004455634393835339,1.0185091935606927
1677618687208618,0.12481879911497629,0.00579842832074462,1.0219272144655527
1677618687224594,0.12494087129014986,0.004821850919356052,1.0202182040131227
1677618687240570,0.1259174486915393,0.0042114900434881974,1.0209506370641641
1677618687256546,0.1255512321660186,0.0037232013427939137,1.0174105439841306
1677618687272522,0.12567330434119217,0.00579842832074462,1.0202182040131227
1677618687288498,0.12408636606393486,0.005920500495918191,1.0174105439841306
1677618687304474,0.12469672693980272,0.005065995269703194,1.0197299153124284
1677618687320449,0.12689402609292788,0.00457770656900891,1.0208285648889905
1677618687336425,0.12481879911497629,0.0040894178683146265,1.0194857709620813
1677618687352401,0.12420843823910843,0.004333562218661768,1.0187533379110398
1677618687368377,0.12481879911497629,0.004455634393835339,1.0197299153124284
1677618687384353,0.12616159304188646,0.004821850919356052,1.0183871213855191
1677618687400329,0.12494087129014986,0.0036011291676203427,1.0188754100862134
1677618687416305,0.12494087129014986,0.00457770656900891,1.0187533379110398
1677618687432281,0.12603952086671288,0.006408789196612474,1.0183871213855191
1677618687448257,0.12542915999084503,0.005188067444876765,1.0182650492103456
1677618687464233,0.1251850156404979,0.004699778744182481,1.0197299153124284
1677618687480209,0.1255512321660186,0.005310139620050336,1.0188754100862134
1677618687496185,0.12616159304188646,0.0060425726710917615,1.0186312657358663
1677618687512161,0.12616159304188646,0.007629510948348184,1.0204623483634698
1677618687528137,0.12542915999084503,0.0037232013427939137,1.0193636987869077
1677618687544113,0.1255512321660186,0.004943923094529623,1.0183871213855191
1677618687560058,0.12542915999084503,0.005676356145571049,1.0186312657358663
1677618687576034,0.12579537651636574,0.005432211795223907,1.018997482261387
1677618687592010,0.12603952086671288,0.004333562218661768,1.0209506370641641
1677618687607986,0.12530708781567146,0.005188067444876765,1.0175326161593041
1677618687623962,0.123476005188067,0.005065995269703194,1.0196078431372548
1677618687639938,0.12323186083771986,0.005432211795223907,1.0200961318379491
1677618687655914,0.12616159304188646,0.0040894178683146265,1.0219272144655527
1677618687671890,0.12530708781567146,0.0038452735179674846,1.0186312657358663
1677618687687866,0.12664988174258074,0.004333562218661768,1.0197299153124284
1677618687703842,0.12457465476462914,0.005310139620050336,1.0176546883344777
1677618687719818,0.12579537651636574,0.0060425726710917615,1.0191195544365605
1677618687735794,0.1264057373922336,0.0040894178683146265,1.021560997940032
1677618687751770,0.12542915999084503,0.005188067444876765,1.0192416266117341
1677618687767746,0.12384222171358772,0.005554283970397478,1.0202182040131227
1677618687783722,0.12542915999084503,0.005310139620050336,1.0210727092393377
1677618687799698,0.12335393301289344,0.004455634393835339,1.019851987487602
1677618687815673,0.12469672693980272,0.00457770656900891,1.018997482261387
1677618687831649,0.12457465476462914,0.005554283970397478,1.0196078431372548
1677618687847625,0.12567330434119217,0.004821850919356052,1.021560997940032
1677618687863601,0.1251850156404979,0.0042114900434881974,1.023270008392462
1677618687879577,0.12603952086671288,0.005188067444876765,1.0204623483634698
1677618687895553,0.12579537651636574,0.0038452735179674846,1.0204623483634698
1677618687911529,0.1259174486915393,0.005065995269703194,1.0196078431372548
1677618687927505,0.12506294346532432,0.0061646448462653325,1.0200961318379491
1677618687943481,0.12494087129014986,0.005920500495918191,1.0193636987869077
1677618687959457,0.12494087129014986,0.00457770656900891,1.0213168535896848
1677618687975433,0.12481879911497629,0.004699778744182481,1.0208285648889905
1677618687991409,0.12579537651636574,0.0040894178683146265,1.0213168535896848
1677618688007385,0.1251850156404979,0.004455634393835339,1.0176546883344777
1677618688023361,0.12542915999084503,0.004943923094529623,1.0196078431372548
1677618688039337,0.12372014953841415,0.004821850919356052,1.0183871213855191
1677618688055313,0.12457465476462914,0.0061646448462653325,1.018997482261387
1677618688071289,0.12469672693980272,0.00579842832074462,1.0185091935606927
1677618688087265,0.12359807736324058,0.004455634393835339,1.0168001831082627
1677618688103241,0.12506294346532432,0.004943923094529623,1.0187533379110398
1677618688119217,0.12457465476462914,0.005432211795223907,1.0203402761882963
1677618688135192,0.12481879911497629,0.004699778744182481,1.0196078431372548
1677618688151168,0.12603952086671288,0.004455634393835339,1.0197299153124284
1677618688167144,0.12469672693980272,0.002746623941405346,1.0204623483634698
1677618688183120,0.12530708781567146,0.0038452735179674846,1.0191195544365605
1677618688199096,0.12420843823910843,0.004455634393835339,1.018142977035172
1677618688215072,0.12445258258945557,0.004821850919356052,1.0183871213855191
1677618688231048,0.12481879911497629,0.005310139620050336,1.0203402761882963
1677618688247024,0.12494087129014986,0.005188067444876765,1.0203402761882963
1677618688263000,0.12542915999084503,0.005554283970397478,1.0208285648889905
1677618688278976,0.12567330434119217,0.004333562218661768,1.016433966582742
1677618688294952,0.12542915999084503,0.004943923094529623,1.019851987487602
1677618688310928,0.12445258258945557,0.004943923094529623,1.0210727092393377
1677618688326904,0.1255512321660186,0.00457770656900891,1.0200961318379491
1677618688342880,0.12494087129014986,0.005554283970397478,1.0185091935606927
1677618688358856,0.12616159304188646,0.0061646448462653325,1.020706492713817
1677618688374832,0.12494087129014986,0.004821850919356052,1.0196078431372548
1677618688390808,0.12469672693980272,0.004943923094529623,1.0175326161593041
1677618688406784,0.1259174486915393,0.004455634393835339,1.0193636987869077
1677618688422760,0.12689402609292788,0.005432211795223907,1.0192416266117341
1677618688438736,0.12567330434119217,0.004821850919356052,1.0199740596627755
1677618688454712,0.12494087129014986,0.004821850919356052,1.0193636987869077
1677618688470687,0.12445258258945557,0.0042114900434881974,1.0175326161593041
1677618688486663,0.1264057373922336,0.00323491264209963,1.0180209048599984
1677618688502639,0.12542915999084503,0.00457770656900891,1.0202182040131227
1677618688518615,0.12652780956740717,0.005554283970397478,1.0200961318379491
1677618688534591,0.12506294346532432,0.005676356145571049,1.0196078431372548
1677618688550567,0.12359807736324058,0.004455634393835339,1.0202182040131227
1677618688566543,0.12457465476462914,0.005554283970397478,1.0191195544365605
1677618688582519,0.124330510414282,0.0061646448462653325,1.0220492866407263
1677618688598495,0.1251850156404979,0.005432211795223907,1.0202182040131227
1677618688614471,0.12445258258945557,0.0038452735179674846,1.0178988326848248
1677618688630447,0.12481879911497629,0.00579842832074462,1.0196078431372548
1677618688646423,0.12481879911497629,0.004943923094529623,1.0203402761882963
1677618688662399,0.12286564431219915,0.0039673456931410556,1.0191195544365605
1677618688678375,0.12481879911497629,0.0039673456931410556,1.0208285648889905
1677618688694351,0.12506294346532432,0.005310139620050336,1.0214389257648584
1677618688710327,0.12506294346532432,0.0042114900434881974,1.0197299153124284
1677618688726303,0.124330510414282,0.0042114900434881974,1.0191195544365605
1677618688742279,0.12445258258945557,0.0037232013427939137,1.0211947814145113
1677618688758255,0.12530708781567146,0.004943923094529623,1.0202182040131227
1677618688774231,0.12542915999084503,0.004943923094529623,1.0183871213855191
1677618688790207,0.12628366521706003,0.004821850919356052,1.0183871213855191
1677618688806182,0.12506294346532432,0.00457770656900891,1.0219272144655527
1677618688822158,0.1255512321660186,0.005065995269703194,1.0208285648889905
1677618688838104,0.1259174486915393,0.004699778744182481,1.0219272144655527
1677618688854080,0.1259174486915393,0.004943923094529623,1.0199740596627755
1677618688870056,0.12359807736324058,0.006286717021438903,1.0199740596627755
1677618688886032,0.12603952086671288,0.00457770656900891,1.018997482261387
1677618688902008,0.12408636606393486,0.0042114900434881974,1.0216830701152055
1677618688917984,0.12506294346532432,0.004699778744182481,1.0182650492103456
1677618688933960,0.12506294346532432,0.006408789196612474,1.0222934309910734
1677618688949936,0.12530708781567146,0.005065995269703194,1.0219272144655527
1677618688965911,0.12616159304188646,0.0061646448462653325,1.0211947814145113
1677618688981887,0.12579537651636574,0.005920500495918191,1.0160677500572213
1677618688997863,0.12603952086671288,0.00457770656900891,1.0185091935606927
1677618689013839,0.12469672693980272,0.005188067444876765,1.0204623483634698
1677618689029815,0.12506294346532432,0.004699778744182481,1.020706492713817
1677618689045791,0.12542915999084503,0.005676356145571049,1.0211947814145113
1677618689061767,0.12372014953841415,0.00579842832074462,1.0191195544365605
1677618689077743,0.1255512321660186,0.004821850919356052,1.0182650492103456
1677618689093719,0.1259174486915393,0.004333562218661768,1.0178988326848248
1677618689109695,0.12506294346532432,0.005920500495918191,1.0166781109330891
1677618689125671,0.12530708781567146,0.004699778744182481,1.0205844205386434
1677618689141647,0.12530708781567146,0.005310139620050336,1.0213168535896848
1677618689157623,0.1259174486915393,0.004333562218661768,1.0199740596627755
1677618689173599,0.1251850156404979,0.004943923094529623,1.0160677500572213
1677618689189575,0.12628366521706003,0.0042114900434881974,1.0200961318379491
1677618689205551,0.12567330434119217,0.005065995269703194,1.022415503166247
1677618689221527,0.1255512321660186,0.005065995269703194,1.0178988326848248
1677618689237503,0.1255512321660186,0.004455634393835339,1.0166781109330891
1677618689253479,0.12530708781567146,0.005554283970397478,1.0180209048599984
1677618689269455,0.12579537651636574,0.005432211795223907,1.0205844205386434
1677618689285431,0.12372014953841415,0.0040894178683146265,1.0199740596627755
1677618689301406,0.12457465476462914,0.0038452735179674846,1.0187533379110398
1677618689317382,0.12628366521706003,0.005310139620050336,1.0200961318379491
1677618689333358,0.12396429388876129,0.004455634393835339,1.0208285648889905
1677618689349334,0.1251850156404979,0.005554283970397478,1.0205844205386434
1677618689365310,0.12457465476462914,0.005554283970397478,1.0191195544365605
1677618689381286,0.12481879911497629,0.005432211795223907,1.017288471808957
1677618689397262,0.12494087129014986,0.004821850919356052,1.0202182040131227
1677618689413238,0.1255512321660186,0.005676356145571049,1.0196078431372548
1677618689429214,0.12567330434119217,0.0037232013427939137,1.0187533379110398
1677618689445190,0.12542915999084503,0.0042114900434881974,1.0204623483634698
1677618689461166,0.1251850156404979,0.004821850919356052,1.0191195544365605
1677618689477142,0.12494087129014986,0.003356984817273201,1.0208285648889905
1677618689493118,0.12420843823910843,0.005676356145571049,1.0186312657358663
1677618689509094,0.12567330434119217,0.005432211795223907,1.0187533379110398
1677618689525070,0.12506294346532432,0.0060425726710917615,1.0196078431372548
1677618689541046,0.12481879911497629,0.005310139620050336,1.0208285648889905
1677618689557022,0.12616159304188646,0.005554283970397478,1.0208285648889905
1677618689572998,0.12579537651636574,0.004699778744182481,1.0180209048599984
1677618689588974,0.12530708781567146,0.004943923094529623,1.0202182040131227
1677618689604950,0.12445258258945557,0.0042114900434881974,1.021560997940032
1677618689620926,0.12506294346532432,0.004455634393835339,1.0211947814145113
1677618689636901,0.12469672693980272,0.004699778744182481,1.0205844205386434
1677618689652877,0.12359807736324058,0.005188067444876765,1.0192416266117341
1677618689668853,0.12420843823910843,0.004455634393835339,1.0191195544365605
1677618689684829,0.12542915999084503,0.005676356145571049,1.015579461356527
1677618689700805,0.12506294346532432,0.004943923094529623,1.0159456778820477
1677618689716781,0.12457465476462914,0.0040894178683146265,1.0204623483634698
1677618689732757,0.12652780956740717,0.005065995269703194,1.0188754100862134
1677618689748733,0.12457465476462914,0.005432211795223907,1.0177767605096513
1677618689764709,0.12249942778667844,0.0039673456931410556,1.0185091935606927
1677618689780685,0.12469672693980272,0.004821850919356052,1.022659647516594
1677618689796661,0.12457465476462914,0.005920500495918191,1.019851987487602
1677618689812637,0.124330510414282,0.0038452735179674846,1.0209506370641641
1677618689828613,0.12335393301289344,0.004455634393835339,1.018142977035172
1677618689844589,0.12323186083771986,0.006775005722133187,1.0203402761882963
1677618689860565,0.124330510414282,0.005676356145571049,1.0180209048599984
1677618689876541,0.12494087129014986,0.0038452735179674846,1.0196078431372548
1677618689892517,0.12359807736324058,0.005310139620050336,1.0185091935606927
1677618689908493,0.12628366521706003,0.004821850919356052,1.0185091935606927
1677618689924469,0.12603952086671288,0.002746623941405346,1.0222934309910734
1677618689940445,0.12542915999084503,0.00457770656900891,1.021560997940032
1677618689956421,0.12469672693980272,0.005432211795223907,1.0186312657358663
1677618689972396,0.12567330434119217,0.005432211795223907,1.020706492713817
1677618689988372,0.12384222171358772,0.005920500495918191,1.021560997940032
1677618690004348,0.1259174486915393,0.0061646448462653325,1.0202182040131227
1677618690020324,0.1255512321660186,0.004455634393835339,1.0191195544365605
1677618690036300,0.12579537651636574,0.006652933546959616,1.0185091935606927
1677618690052276,0.12616159304188646,0.004943923094529623,1.0209506370641641
1677618690068252,0.12579537651636574,0.0040894178683146265,1.019851987487602
1677618690084228,0.12481879911497629,0.0036011291676203427,1.0196078431372548
1677618690100204,0.12494087129014986,0.0025024795910582043,1.020706492713817
1677618690116180,0.1255512321660186,0.0036011291676203427,1.0174105439841306
1677618690132156,0.12494087129014986,0.00457770656900891,1.0193636987869077
1677618690148132,0.12530708781567146,0.004943923094529623,1.0192416266117341
1677618690164108,0.12530708781567146,0.005310139620050336,1.0187533379110398
1677618690180084,0.12408636606393486,0.004699778744182481,1.0208285648889905
1677618690196060,0.12494087129014986,0.005554283970397478,1.0186312657358663
1677618690212036,0.124330510414282,0.005920500495918191,1.0180209048599984
1677618690228012,0.12457465476462914,0.004821850919356052,1.0204623483634698
1677618690243988,0.1259174486915393,0.0038452735179674846,1.0210727092393377
1677618690259964,0.1255512321660186,0.005188067444876765,1.0200961318379491
1677618690275940,0.12323186083771986,0.0038452735179674846,1.019851987487602
1677618690291916,0.12335393301289344,0.00457770656900891,1.0185091935606927
1677618690307891,0.12506294346532432,0.005188067444876765,1.0197299153124284
1677618690323867,0.12506294346532432,0.004333562218661768,1.0169222552834363
1677618690339843,0.12603952086671288,0.003479056992446772,1.0194857709620813
1677618690355819,0.12469672693980272,0.004943923094529623,1.0197299153124284
1677618690371795,0.12603952086671288,0.0040894178683146265,1.0192416266117341
1677618690387771,0.12530708781567146,0.0037232013427939137,1.0186312657358663
1677618690403747,0.12481879911497629,0.004821850919356052,1.0174105439841306
1677618690419723,0.12506294346532432,0.006408789196612474,1.0196078431372548
1677618690435699,0.12396429388876129,0.004821850919356052,1.0169222552834363
1677618690451675,0.12457465476462914,0.006286717021438903,1.0197299153124284
1677618690467651,0.123476005188067,0.004943923094529623,1.0197299153124284
1677618690483627,0.1259174486915393,0.00457770656900891,1.019851987487602
1677618690499603,0.12408636606393486,0.004455634393835339,1.019851987487602
1677618690515579,0.1251850156404979,0.006408789196612474,1.0187533379110398
1677618690531555,0.124330510414282,0.0061646448462653325,1.0196078431372548
1677618690547531,0.124330510414282,0.005676356145571049,1.0220492866407263
1677618690563507,0.12579537651636574,0.0037232013427939137,1.020706492713817
1677618690579483,0.1251850156404979,0.0036011291676203427,1.0188754100862134
1677618690595459,0.1259174486915393,0.004455634393835339,1.0187533379110398
1677618690611435,0.12420843823910843,0.0042114900434881974,1.0197299153124284
1677618690627411,0.1231097886625463,0.0040894178683146265,1.019851987487602
1677618690643386,0.12494087129014986,0.005188067444876765,1.0186312657358663
1677618690659362,0.12616159304188646,0.0042114900434881974,1.0191195544365605
1677618690675338,0.124330510414282,0.00457770656900891,1.0182650492103456
1677618690691314,0.12579537651636574,0.005676356145571049,1.0188754100862134
1677618690707290,0.12323186083771986,0.005432211795223907,1.0194857709620813
1677618690723266,0.12445258258945557,0.005310139620050336,1.0191195544365605
1677618690739242,0.124330510414282,0.005310139620050336,1.0199740596627755
1677618690755218,0.1264057373922336,0.0040894178683146265,1.0194857709620813
1677618690771194,0.12506294346532432,0.005065995269703194,1.0210727092393377
1677618690787170,0.12469672693980272,0.004699778744182481,1.022659647516594
1677618690803146,0.1255512321660186,0.005554283970397478,1.0192416266117341
1677618690819122,0.12445258258945557,0.00579842832074462,1.0202182040131227
1677618690835098,0.12506294346532432,0.005310139620050336,1.0194857709620813
1677618690851074,0.1255512321660186,0.005310139620050336,1.0171663996337834
1677618690867050,0.12530708781567146,0.00457770656900891,1.0192416266117341
1677618690883026,0.12567330434119217,0.0040894178683146265,1.0214389257648584
1677618690899002,0.12664988174258074,0.004699778744182481,1.019851987487602
1677618690914978,0.1251850156404979,0.005676356145571049,1.019851987487602
1677618690930954,0.12506294346532432,0.004699778744182481,1.019851987487602
1677618690946930,0.12616159304188646,0.0039673456931410556,1.0186312657358663
1677618690962906,0.1251850156404979,0.005432211795223907,1.019851987487602
1677618690978881,0.12445258258945557,0.005676356145571049,1.0192416266117341
1677618690994857,0.12408636606393486,0.006286717021438903,1.019851987487602
1677618691010833,0.1255512321660186,0.005920500495918191,1.0208285648889905
1677618691026809,0.12530708781567146,0.005676356145571049,1.0178988326848248
1677618691042785,0.12542915999084503,0.005188067444876765,1.0177767605096513
1677618691058761,0.12494087129014986,0.0039673456931410556,1.0176546883344777
1677618691074737,0.12579537651636574,0.00579842832074462,1.0203402761882963
1677618691090713,0.12506294346532432,0.0038452735179674846,1.0186312657358663
1677618691106689,0.1251850156404979,0.00457770656900891,1.0183871213855191
1677618691122665,0.12481879911497629,0.004821850919356052,1.0191195544365605
1677618691138641,0.12469672693980272,0.005065995269703194,1.0175326161593041
1677618691154617,0.12494087129014986,0.004455634393835339,1.0202182040131227
1677618691170593,0.12542915999084503,0.005676356145571049,1.0204623483634698
1677618691186569,0.12469672693980272,0.006530861371786045,1.0182650492103456
1677618691202545,0.12628366521706003,0.005065995269703194,1.0209506370641641
1677618691218521,0.12579537651636574,0.005676356145571049,1.0214389257648584
1677618691234497,0.1255512321660186,0.005554283970397478,1.0214389257648584
1677618691250473,0.12481879911497629,0.005554283970397478,1.0194857709620813
1677618691266449,0.1255512321660186,0.004699778744182481,1.019851987487602
1677618691282425,0.12603952086671288,0.0040894178683146265,1.0200961318379491
1677618691298401,0.12506294346532432,0.005554283970397478,1.0202182040131227
1677618691314376,0.12579537651636574,0.005432211795223907,1.0193636987869077
1677618691330352,0.12603952086671288,0.004699778744182481,1.0211947814145113
1677618691346328,0.124330510414282,0.004333562218661768,1.0197299153124284
1677618691362304,0.1251850156404979,0.005188067444876765,1.0199740596627755
1677618691378280,0.1251850156404979,0.004699778744182481,1.0182650492103456
1677618691394256,0.12481879911497629,0.004943923094529623,1.0205844205386434
1677618691410232,0.12396429388876129,0.005920500495918191,1.0180209048599984
1677618691426208,0.12542915999084503,0.0038452735179674846,1.0188754100862134
1677618691442184,0.12445258258945557,0.0042114900434881974,1.020706492713817
1677618691458160,0.12457465476462914,0.00323491264209963,1.0192416266117341
1677618691474136,0.12481879911497629,0.0026245517662317752,1.018997482261387
1677618691490112,0.12359807736324058,0.0042114900434881974,1.0192416266117341
1677618691506088,0.124330510414282,0.003479056992446772,1.0202182040131227
1677618691522064,0.12481879911497629,0.005676356145571049,1.0182650492103456
1677618691538040,0.12408636606393486,0.004455634393835339,1.020706492713817
1677618691554016,0.12384222171358772,0.004943923094529623,1.0209506370641641
1677618691569992,0.12542915999084503,0.00457770656900891,1.0191195544365605
1677618691585968,0.12494087129014986,0.005310139620050336,1.020706492713817
1677618691601944,0.12579537651636574,0.004943923094529623,1.0221713588158998
1677618691617920,0.12530708781567146,0.005676356145571049,1.0233920805676355
1677618691633895,0.12408636606393486,0.005065995269703194,1.021560997940032
1677618691649871,0.12481879911497629,0.004455634393835339,1.020706492713817
1677618691665847,0.12396429388876129,0.0036011291676203427,1.0183871213855191
1677618691681823,0.12567330434119217,0.005065995269703194,1.019851987487602
1677618691697799,0.12616159304188646,0.005188067444876765,1.0174105439841306
1677618691713775,0.12481879911497629,0.005188067444876765,1.0211947814145113
1677618691729751,0.12567330434119217,0.004821850919356052,1.020706492713817
1677618691745727,0.12408636606393486,0.005310139620050336,1.0183871213855191
1677618691761703,0.12445258258945557,0.004943923094529623,1.0191195544365605
1677618691777679,0.12469672693980272,0.00457770656900891,1.0202182040131227
1677618691793655,0.12542915999084503,0.004699778744182481,1.0211947814145113
1677618691809631,0.12323186083771986,0.00579842832074462,1.0200961318379491
1677618691825607,0.12603952086671288,0.004699778744182481,1.018997482261387
1677618691841583,0.12567330434119217,0.0042114900434881974,1.023270008392462
1677618691857559,0.12542915999084503,0.006530861371786045,1.0231479362172884
1677618691873535,0.1251850156404979,0.004699778744182481,1.0199740596627755
1677618691889511,0.1255512321660186,0.005310139620050336,1.0160677500572213
1677618691905487,0.12652780956740717,0.004699778744182481,1.0163118944075684
1677618691921463,0.12457465476462914,0.005188067444876765,1.0185091935606927
1677618691937439,0.1267719539177543,0.005676356145571049,1.0185091935606927
1677618691953415,0.124330510414282,0.005188067444876765,1.0191195544365605
1677618691969390,0.12494087129014986,0.004699778744182481,1.0187533379110398
1677618691985366,0.1251850156404979,0.004943923094529623,1.0240024414435034
1677618692001342,0.12494087129014986,0.004699778744182481,1.018142977035172
1677618692017318,0.12445258258945557,0.004455634393835339,1.0202182040131227
1677618692033294,0.12335393301289344,0.005554283970397478,1.0194857709620813
1677618692049270,0.1231097886625463,0.0060425726710917615,1.0204623483634698
1677618692065246,0.1251850156404979,0.005310139620050336,1.0192416266117341
1677618692081222,0.12457465476462914,0.005188067444876765,1.0191195544365605
1677618692097198,0.12469672693980272,0.0060425726710917615,1.0210727092393377
1677618692113174,0.12530708781567146,0.004943923094529623,1.021805142290379
1677618692129150,0.12494087129014986,0.004943923094529623,1.0205844205386434
1677618692145126,0.12506294346532432,0.006530861371786045,1.0193636987869077
1677618692161102,0.12420843823910843,0.0042114900434881974,1.0185091935606927
1677618692177078,0.1259174486915393,0.00457770656900891,1.0196078431372548
1677618692193054,0.12664988174258074,0.00579842832074462,1.0213168535896848
1677618692209030,0.12652780956740717,0.005188067444876765,1.0199740596627755
1677618692225006,0.12445258258945557,0.005432211795223907,1.0225375753414205
1677618692240982,0.12396429388876129,0.0040894178683146265,1.0204623483634698
1677618692256958,0.12567330434119217,0.0042114900434881974,1.0200961318379491
1677618692272934,0.12542915999084503,0.005188067444876765,1.0193636987869077
1677618692288910,0.12616159304188646,0.00457770656900891,1.0185091935606927
1677618692304885,0.12457465476462914,0.0040894178683146265,1.0204623483634698
1677618692320861,0.124330510414282,0.0039673456931410556,1.0193636987869077
1677618692336837,0.12481879911497629,0.005188067444876765,1.0193636987869077
1677618692352813,0.12616159304188646,0.005188067444876765,1.0202182040131227
1677618692368789,0.12542915999084503,0.0042114900434881974,1.0170443274586098
1677618692384765,0.12628366521706003,0.004943923094529623,1.0183871213855191
1677618692400741,0.1259174486915393,0.0061646448462653325,1.019851987487602
1677618692416717,0.1259174486915393,0.00579842832074462,1.0178988326848248
1677618692432693,0.12542915999084503,0.004943923094529623,1.0193636987869077
1677618692448669,0.12359807736324058,0.005554283970397478,1.0191195544365605
1677618692464645,0.12469672693980272,0.005065995269703194,1.0199740596627755
1677618692480621,0.12494087129014986,0.0042114900434881974,1.0203402761882963
1677618692496597,0.12567330434119217,0.00457770656900891,1.0174105439841306
1677618692512573,0.1251850156404979,0.005432211795223907,1.0227817196917677
1677618692528549,0.12372014953841415,0.004943923094529623,1.0210727092393377
1677618692544525,0.12481879911497629,0.004943923094529623,1.0183871213855191
1677618692560501,0.12457465476462914,0.005432211795223907,1.0197299153124284
1677618692576477,0.12542915999084503,0.004333562218661768,1.0216830701152055
1677618692592453,0.12506294346532432,0.0042114900434881974,1.0214389257648584
1677618692608429,0.12579537651636574,0.004821850919356052,1.0192416266117341
1677618692624405,0.12567330434119217,0.005188067444876765,1.018142977035172
1677618692640380,0.12567330434119217,0.004333562218661768,1.0200961318379491
1677618692656356,0.12445258258945557,0.004333562218661768,1.0185091935606927
1677618692672332,0.12530708781567146,0.00323491264209963,1.0199740596627755
1677618692688308,0.12506294346532432,0.004455634393835339,1.0183871213855191
1677618692704284,0.12445258258945557,0.004455634393835339,1.0194857709620813
