Timestamp (microseconds),Gyro X (°/s),Gyro Y (°/s),Gyro Z (°/s)
1677618667748962,0.7171740291447577,0.5035477225909517,-1.1139085984588064
1677618667764957,0.7782101167315432,0.5035477225909517,-1.1749446860455919
1677618667780951,0.8087281605248791,0.44251163500416624,-1.1139085984588064
1677618667796946,0.8087281605248791,0.44251163500416624,-1.144426642252256
1677618667812940,0.7476920729380936,0.5645838101777372,-1.144426642252256
1677618667828935,0.6866559853513081,0.5340657663844013,-1.1139085984588064
1677618667844929,0.7171740291447577,0.5645838101777372,-1.144426642252256
1677618667860924,0.7171740291447577,0.5340657663844013,-1.0833905546654705
1677618667876918,0.7171740291447577,0.5035477225909517,-1.0833905546654705
1677618667892913,0.7171740291447577,0.5340657663844013,-1.1139085984588064
1677618667908908,0.7171740291447577,0.5035477225909517,-1.1139085984588064
1677618667924902,0.7171740291447577,0.5340657663844013,-1.1139085984588064
1677618667940897,0.7171740291447577,0.5340657663844013,-1.1139085984588064
1677618667956891,0.7476920729380936,0.5035477225909517,-1.0833905546654705
1677618667972886,0.7476920729380936,0.5035477225909517,-1.1139085984588064
1677618667988880,0.7476920729380936,0.5340657663844013,-1.144426642252256
1677618668004875,0.7171740291447577,0.5340657663844013,-1.1139085984588064
1677618668020869,0.7171740291447577,0.5645838101777372,-1.052872510872021
1677618668036864,0.6866559853513081,0.5340657663844013,-1.052872510872021
1677618668052858,0.7476920729380936,0.5340657663844013,-1.1139085984588064
1677618668068847,0.7782101167315432,0.5340657663844013,-1.1749446860455919
1677618668084842,0.7476920729380936,0.5035477225909517,-1.1139085984588064
1677618668100836,0.7476920729380936,0.5645838101777372,-1.1139085984588064
1677618668116831,0.8087281605248791,0.5645838101777372,-1.0833905546654705
1677618668132825,0.7782101167315432,0.5645838101777372,-1.0833905546654705
1677618668148820,0.8087281605248791,0.5035477225909517,-1.052872510872021
1677618668164815,0.7782101167315432,0.4730296787976158,-1.0833905546654705
1677618668180809,0.7476920729380936,0.5035477225909517,-1.0833905546654705
1677618668196804,0.6866559853513081,0.4730296787976158,-1.1139085984588064
1677618668212798,0.7171740291447577,0.4730296787976158,-1.1139085984588064
1677618668228793,0.7476920729380936,0.4730296787976158,-1.144426642252256
1677618668244787,0.7171740291447577,0.4730296787976158,-1.1139085984588064
1677618668260782,0.7171740291447577,0.5340657663844013,-1.1139085984588064
1677618668276776,0.7782101167315432,0.5035477225909517,-1.0833905546654705
1677618668292771,0.7782101167315432,0.5035477225909517,-1.144426642252256
1677618668308766,0.7476920729380936,0.5035477225909517,-1.1139085984588064
1677618668324760,0.7476920729380936,0.5340657663844013,-1.0833905546654705
1677618668340755,0.7171740291447577,0.5340657663844013,-1.1139085984588064
1677618668356749,0.7782101167315432,0.5340657663844013,-1.1139085984588064
1677618668372744,0.7171740291447577,0.5340657663844013,-1.1139085984588064
1677618668388733,0.7171740291447577,0.5645838101777372,-1.1139085984588064
1677618668404727,0.6866559853513081,0.5645838101777372,-1.144426642252256
1677618668420722,0.7171740291447577,0.5645838101777372,-1.144426642252256
1677618668436716,0.7476920729380936,0.5645838101777372,-1.1139085984588064
1677618668452711,0.7171740291447577,0.5035477225909517,-1.0833905546654705
1677618668468705,0.7171740291447577,0.4730296787976158,-1.1139085984588064
1677618668484700,0.8087281605248791,0.5645838101777372,-1.144426642252256
1677618668500694,0.7171740291447577,0.5645838101777372,-1.144426642252256
1677618668516689,0.7476920729380936,0.5340657663844013,-1.1139085984588064
1677618668532683,0.7476920729380936,0.5340657663844013,-1.144426642252256
1677618668548678,0.8087281605248791,0.5645838101777372,-1.144426642252256
1677618668564673,0.7171740291447577,0.5340657663844013,-1.0833905546654705
1677618668580667,0.7171740291447577,0.5035477225909517,-1.1139085984588064
1677618668596662,0.7171740291447577,0.5340657663844013,-1.052872510872021
1677618668612656,0.7171740291447577,0.5645838101777372,-1.1139085984588064
1677618668628651,0.7476920729380936,0.5340657663844013,-1.144426642252256
1677618668644645,0.7782101167315432,0.5645838101777372,-1.1139085984588064
1677618668660640,0.7171740291447577,0.5645838101777372,-1.144426642252256
1677618668676634,0.7171740291447577,0.5035477225909517,-1.0833905546654705
1677618668692629,0.7476920729380936,0.4730296787976158,-1.1139085984588064
1677618668708374,0.7171740291447577,0.5035477225909517,-1.0833905546654705
1677618668724367,0.7476920729380936,0.5645838101777372,-1.0833905546654705
1677618668740361,0.7171740291447577,0.5340657663844013,-1.144426642252256
1677618668756354,0.7782101167315432,0.5951018539711868,-1.0833905546654705
1677618668772348,0.7782101167315432,0.5035477225909517,-1.0833905546654705
1677618668788342,0.7782101167315432,0.5645838101777372,-1.1139085984588064
1677618668804335,0.8087281605248791,0.5645838101777372,-1.052872510872021
1677618668820329,0.8087281605248791,0.5340657663844013,-1.1139085984588064
1677618668836322,0.8087281605248791,0.5340657663844013,-1.0833905546654705
1677618668852316,0.7782101167315432,0.5035477225909517,-1.1139085984588064
1677618668868310,0.8087281605248791,0.5645838101777372,-1.052872510872021
1677618668884303,0.8392462043183286,0.5340657663844013,-1.0833905546654705
1677618668900297,0.8392462043183286,0.5340657663844013,-1.0833905546654705
1677618668916290,0.8087281605248791,0.5340657663844013,-1.144426642252256
1677618668932284,0.8087281605248791,0.5035477225909517,-1.0833905546654705
1677618668948278,0.7782101167315432,0.5035477225909517,-1.144426642252256
1677618668964271,0.8392462043183286,0.5035477225909517,-1.144426642252256
1677618668980265,0.7782101167315432,0.5035477225909517,-1.144426642252256
1677618668996258,0.7476920729380936,0.5951018539711868,-1.1139085984588064
1677618669012252,0.7476920729380936,0.5340657663844013,-1.144426642252256
1677618669027893,0.7171740291447577,0.4730296787976158,-1.144426642252256
1677618669043885,0.7476920729380936,0.5951018539711868,-1.1139085984588064
1677618669059877,0.8087281605248791,0.5340657663844013,-1.1139085984588064
1677618669075869,0.7476920729380936,0.5340657663844013,-1.144426642252256
1677618669091861,0.7476920729380936,0.5951018539711868,-1.144426642252256
1677618669107854,0.7782101167315432,0.5645838101777372,-1.1139085984588064
1677618669123846,0.7476920729380936,0.5340657663844013,-1.1139085984588064
1677618669139838,0.7476920729380936,0.5035477225909517,-1.1139085984588064
1677618669155830,0.7476920729380936,0.5340657663844013,-1.144426642252256
1677618669171822,0.7476920729380936,0.5340657663844013,-1.144426642252256
1677618669187814,0.8087281605248791,0.5035477225909517,-1.0833905546654705
1677618669203807,0.8392462043183286,0.5645838101777372,-1.1139085984588064
1677618669219799,0.7782101167315432,0.5951018539711868,-1.1139085984588064
1677618669235791,0.7782101167315432,0.4730296787976158,-1.052872510872021
1677618669251783,0.8087281605248791,0.4730296787976158,-1.1139085984588064
1677618669267775,0.7782101167315432,0.4730296787976158,-1.0833905546654705
1677618669283767,0.8087281605248791,0.5035477225909517,-1.1139085984588064
1677618669299759,0.8087281605248791,0.4730296787976158,-1.144426642252256
1677618669315752,0.7782101167315432,0.5035477225909517,-1.0833905546654705
1677618669331744,0.8087281605248791,0.5340657663844013,-1.052872510872021
1677618669347442,0.7476920729380936,0.5340657663844013,-1.0833905546654705
1677618669363433,0.8087281605248791,0.5951018539711868,-1.144426642252256
1677618669379424,0.7476920729380936,0.5340657663844013,-1.1749446860455919
1677618669395414,0.7476920729380936,0.5340657663844013,-1.1139085984588064
1677618669411405,0.8087281605248791,0.5340657663844013,-1.1139085984588064
1677618669427396,0.8087281605248791,0.5340657663844013,-1.1139085984588064
1677618669443387,0.8392462043183286,0.5645838101777372,-1.1139085984588064
1677618669459377,0.8392462043183286,0.5645838101777372,-1.052872510872021
1677618669475368,0.8392462043183286,0.6256198977645226,-1.052872510872021
1677618669491359,0.8392462043183286,0.5951018539711868,-1.0833905546654705
1677618669507350,0.8087281605248791,0.5645838101777372,-1.1139085984588064
1677618669523340,0.8087281605248791,0.5340657663844013,-1.144426642252256
1677618669539331,0.7782101167315432,0.5035477225909517,-1.1139085984588064
1677618669555322,0.7476920729380936,0.5035477225909517,-1.0833905546654705
1677618669571313,0.8087281605248791,0.4730296787976158,-1.144426642252256
1677618669587303,0.7782101167315432,0.4730296787976158,-1.1139085984588064
1677618669603294,0.8087281605248791,0.5035477225909517,-1.0833905546654705
1677618669619285,0.7476920729380936,0.5340657663844013,-1.052872510872021
1677618669635275,0.7782101167315432,0.5340657663844013,-1.052872510872021
1677618669651266,0.7476920729380936,0.5340657663844013,-1.1139085984588064
1677618669666961,0.7476920729380936,0.5645838101777372,-1.1139085984588064
1677618669682951,0.8087281605248791,0.5951018539711868,-1.1139085984588064
1677618669698941,0.8087281605248791,0.5035477225909517,-1.144426642252256
1677618669714931,0.8087281605248791,0.5035477225909517,-1.1139085984588064
1677618669730920,0.7476920729380936,0.5340657663844013,-1.144426642252256
1677618669746910,0.8087281605248791,0.5645838101777372,-1.1139085984588064
1677618669762900,0.9002822919051141,0.5340657663844013,-1.144426642252256
1677618669778890,0.8087281605248791,0.5951018539711868,-1.0833905546654705
1677618669794880,0.8087281605248791,0.5951018539711868,-1.1139085984588064
1677618669810869,0.8087281605248791,0.6256198977645226,-1.1139085984588064
1677618669826859,0.8392462043183286,0.5645838101777372,-1.0833905546654705
1677618669842849,0.8392462043183286,0.5340657663844013,-1.0833905546654705
1677618669858839,0.7476920729380936,0.5340657663844013,-1.1139085984588064
1677618669874828,0.7782101167315432,0.5340657663844013,-1.144426642252256
1677618669890818,0.7476920729380936,0.5340657663844013,-1.0833905546654705
1677618669906808,0.7171740291447577,0.5035477225909517,-1.1139085984588064
1677618669922798,0.7782101167315432,0.5340657663844013,-1.1139085984588064
1677618669938788,0.8087281605248791,0.5340657663844013,-1.0833905546654705
1677618669954777,0.8087281605248791,0.4730296787976158,-1.0833905546654705
1677618669970767,0.8087281605248791,0.5035477225909517,-1.144426642252256
1677618669986511,0.7476920729380936,0.5645838101777372,-1.144426642252256
1677618670002500,0.7476920729380936,0.5645838101777372,-1.144426642252256
1677618670018489,0.7476920729380936,0.5340657663844013,-1.1139085984588064
1677618670034477,0.7476920729380936,0.5035477225909517,-1.1139085984588064
1677618670050466,0.8087281605248791,0.5340657663844013,-1.144426642252256
1677618670066455,0.8087281605248791,0.5340657663844013,-1.1139085984588064
1677618670082444,0.6866559853513081,0.5645838101777372,-1.144426642252256
1677618670098433,0.7171740291447577,0.5645838101777372,-1.1139085984588064
1677618670114421,0.7782101167315432,0.5951018539711868,-1.0833905546654705
1677618670130410,0.8392462043183286,0.5340657663844013,-1.1139085984588064
1677618670146399,0.7782101167315432,0.5340657663844013,-1.1139085984588064
1677618670162388,0.7782101167315432,0.5951018539711868,-1.0833905546654705
1677618670178377,0.7782101167315432,0.5645838101777372,-1.052872510872021
1677618670194366,0.7782101167315432,0.5645838101777372,-1.0833905546654705
1677618670210354,0.8087281605248791,0.5951018539711868,-1.052872510872021
1677618670226343,0.7782101167315432,0.5645838101777372,-1.022354467078685
1677618670242332,0.7171740291447577,0.5645838101777372,-1.1139085984588064
1677618670258321,0.7171740291447577,0.5645838101777372,-1.144426642252256
1677618670274310,0.7476920729380936,0.5951018539711868,-1.1139085984588064
1677618670290299,0.7782101167315432,0.5035477225909517,-1.0833905546654705
1677618670306030,0.7476920729380936,0.44251163500416624,-1.1139085984588064
1677618670322018,0.7782101167315432,0.5035477225909517,-1.1139085984588064
1677618670338006,0.8087281605248791,0.5340657663844013,-1.144426642252256
1677618670353994,0.7476920729380936,0.5340657663844013,-1.1749446860455919
1677618670369981,0.7171740291447577,0.5645838101777372,-1.1139085984588064
1677618670385969,0.8087281605248791,0.5035477225909517,-1.1139085984588064
1677618670401957,0.7171740291447577,0.5340657663844013,-1.144426642252256
1677618670417945,0.7476920729380936,0.5035477225909517,-1.0833905546654705
1677618670433933,0.7782101167315432,0.5340657663844013,-1.052872510872021
1677618670449921,0.8087281605248791,0.5340657663844013,-1.1139085984588064
1677618670465909,0.8392462043183286,0.5340657663844013,-1.0833905546654705
1677618670481897,0.8087281605248791,0.5340657663844013,-1.0833905546654705
1677618670497884,0.7476920729380936,0.5340657663844013,-1.1139085984588064
1677618670513872,0.8087281605248791,0.5340657663844013,-1.144426642252256
1677618670529860,0.7782101167315432,0.5340657663844013,-1.144426642252256
1677618670545848,0.7782101167315432,0.5645838101777372,-1.1139085984588064
1677618670561836,0.8087281605248791,0.5340657663844013,-1.0833905546654705
1677618670577824,0.7782101167315432,0.5340657663844013,-1.0833905546654705
1677618670593812,0.8087281605248791,0.5340657663844013,-1.1139085984588064
1677618670609799,0.8392462043183286,0.5645838101777372,-1.1139085984588064
1677618670625579,0.8087281605248791,0.5340657663844013,-1.144426642252256
1677618670641566,0.7476920729380936,0.5340657663844013,-1.144426642252256
1677618670657553,0.7782101167315432,0.5645838101777372,-1.2054627298390415
1677618670673540,0.8392462043183286,0.5035477225909517,-1.1749446860455919
1677618670689527,0.7782101167315432,0.5035477225909517,-1.1749446860455919
1677618670705514,0.7782101167315432,0.4730296787976158,-1.1139085984588064
1677618670721501,0.7782101167315432,0.5645838101777372,-1.1139085984588064
1677618670737488,0.7171740291447577,0.5340657663844013,-1.144426642252256
1677618670753475,0.8087281605248791,0.5340657663844013,-1.0833905546654705
1677618670769462,0.7476920729380936,0.5645838101777372,-1.0833905546654705
1677618670785449,0.7476920729380936,0.5645838101777372,-1.1139085984588064
1677618670801436,0.8087281605248791,0.5340657663844013,-1.0833905546654705
1677618670817422,0.8087281605248791,0.5645838101777372,-1.1139085984588064
1677618670833409,0.7782101167315432,0.5645838101777372,-1.1139085984588064
1677618670849396,0.7782101167315432,0.5645838101777372,-1.0833905546654705
1677618670865383,0.7782101167315432,0.5035477225909517,-1.1139085984588064
1677618670881370,0.8087281605248791,0.5035477225909517,-1.1139085984588064
1677618670897357,0.7782101167315432,0.5645838101777372,-1.1139085984588064
1677618670913344,0.8087281605248791,0.5645838101777372,-1.144426642252256
1677618670929331,0.8087281605248791,0.5645838101777372,-1.1139085984588064
1677618670945099,0.8087281605248791,0.5645838101777372,-1.0833905546654705
1677618670961084,0.8087281605248791,0.5951018539711868,-1.052872510872021
1677618670977070,0.8087281605248791,0.5645838101777372,-1.052872510872021
1677618670993056,0.8697642481116645,0.5035477225909517,-1.144426642252256
1677618671009042,0.7782101167315432,0.5645838101777372,-1.0833905546654705
1677618671025028,0.7476920729380936,0.5035477225909517,-1.052872510872021
1677618671041014,0.8392462043183286,0.5340657663844013,-1.1139085984588064
1677618671057000,0.8392462043183286,0.5340657663844013,-1.052872510872021
1677618671072986,0.8392462043183286,0.5340657663844013,-1.022354467078685
1677618671088972,0.7782101167315432,0.5645838101777372,-1.1139085984588064
1677618671104958,0.7782101167315432,0.5340657663844013,-1.1139085984588064
1677618671120944,0.7782101167315432,0.5035477225909517,-1.0833905546654705
1677618671136930,0.8087281605248791,0.5645838101777372,-1.022354467078685
1677618671152916,0.7782101167315432,0.5340657663844013,-1.1139085984588064
1677618671168902,0.7782101167315432,0.5340657663844013,-1.1139085984588064
1677618671184888,0.7476920729380936,0.5645838101777372,-1.0833905546654705
1677618671200874,0.7782101167315432,0.5035477225909517,-1.1139085984588064
1677618671216860,0.8087281605248791,0.5035477225909517,-1.0833905546654705
1677618671232846,0.7476920729380936,0.5645838101777372,-1.1139085984588064
1677618671248832,0.7476920729380936,0.5035477225909517,-1.0833905546654705
1677618671264618,0.7782101167315432,0.5035477225909517,-1.0833905546654705
1677618671280603,0.7782101167315432,0.5035477225909517,-1.144426642252256
1677618671296588,0.7782101167315432,0.5035477225909517,-1.1139085984588064
1677618671312573,0.7476920729380936,0.4730296787976158,-1.0833905546654705
1677618671328558,0.7476920729380936,0.5035477225909517,-1.0833905546654705
1677618671344543,0.7782101167315432,0.5645838101777372,-1.1139085984588064
1677618671360528,0.8697642481116645,0.5645838101777372,-1.0833905546654705
1677618671376513,0.8392462043183286,0.5951018539711868,-1.1139085984588064
1677618671392498,0.8392462043183286,0.5645838101777372,-1.1139085984588064
1677618671408483,0.8392462043183286,0.5645838101777372,-1.0833905546654705
1677618671424468,0.8392462043183286,0.5035477225909517,-1.052872510872021
1677618671440453,0.8392462043183286,0.5035477225909517,-1.052872510872021
1677618671456438,0.7782101167315432,0.5340657663844013,-1.1139085984588064
1677618671472423,0.7782101167315432,0.5951018539711868,-1.144426642252256
1677618671488408,0.8697642481116645,0.5645838101777372,-1.144426642252256
1677618671504393,0.8087281605248791,0.5645838101777372,-1.144426642252256
1677618671520378,0.7476920729380936,0.4730296787976158,-1.1749446860455919
1677618671536363,0.7476920729380936,0.5340657663844013,-1.1139085984588064
1677618671552348,0.7782101167315432,0.5951018539711868,-1.0833905546654705
1677618671568333,0.7476920729380936,0.5645838101777372,-1.144426642252256
1677618671584137,0.7476920729380936,0.4730296787976158,-1.1139085984588064
1677618671600121,0.7782101167315432,0.5035477225909517,-1.1139085984588064
1677618671616106,0.8392462043183286,0.5645838101777372,-1.0833905546654705
1677618671632090,0.7782101167315432,0.5645838101777372,-1.0833905546654705
1677618671648075,0.7476920729380936,0.5645838101777372,-1.1139085984588064
1677618671664059,0.7476920729380936,0.5035477225909517,-1.1139085984588064
1677618671680044,0.7476920729380936,0.5951018539711868,-1.1139085984588064
1677618671696028,0.6866559853513081,0.6256198977645226,-1.1139085984588064
1677618671712013,0.7782101167315432,0.5340657663844013,-1.052872510872021
1677618671727997,0.8087281605248791,0.5340657663844013,-1.052872510872021
1677618671743982,0.8392462043183286,0.5035477225909517,-1.0833905546654705
1677618671759966,0.7782101167315432,0.5035477225909517,-1.1139085984588064
1677618671775951,0.7782101167315432,0.5645838101777372,-1.1139085984588064
1677618671791936,0.7171740291447577,0.5645838101777372,-1.1139085984588064
1677618671807920,0.7476920729380936,0.5340657663844013,-1.1139085984588064
1677618671823905,0.7782101167315432,0.5645838101777372,-1.0833905546654705
1677618671839889,0.7782101167315432,0.5645838101777372,-1.1139085984588064
1677618671855874,0.7171740291447577,0.5951018539711868,-1.1139085984588064
1677618671871858,0.7782101167315432,0.5340657663844013,-1.1139085984588064
1677618671887843,0.7782101167315432,0.5340657663844013,-1.1139085984588064
1677618671903686,0.7782101167315432,0.5340657663844013,-1.052872510872021
1677618671919670,0.7476920729380936,0.5340657663844013,-1.1139085984588064
1677618671935653,0.7782101167315432,0.5645838101777372,-1.144426642252256
1677618671951637,0.7476920729380936,0.5035477225909517,-1.1139085984588064
1677618671967620,0.7476920729380936,0.5340657663844013,-1.0833905546654705
1677618671983604,0.7476920729380936,0.5340657663844013,-1.144426642252256
1677618671999588,0.8087281605248791,0.4730296787976158,-1.1139085984588064
1677618672015571,0.7782101167315432,0.4730296787976158,-1.144426642252256
1677618672031555,0.7782101167315432,0.5340657663844013,-1.144426642252256
1677618672047538,0.8087281605248791,0.5340657663844013,-1.2054627298390415
1677618672063522,0.8087281605248791,0.5340657663844013,-1.144426642252256
1677618672079506,0.8392462043183286,0.5645838101777372,-1.0833905546654705
1677618672095489,0.8697642481116645,0.5951018539711868,-1.1139085984588064
1677618672111473,0.8392462043183286,0.5340657663844013,-1.144426642252256
1677618672127456,0.8087281605248791,0.5340657663844013,-1.1749446860455919
1677618672143440,0.7476920729380936,0.5035477225909517,-1.0833905546654705
1677618672159423,0.7476920729380936,0.5035477225909517,-1.0833905546654705
1677618672175407,0.7782101167315432,0.4730296787976158,-1.0833905546654705
1677618672191391,0.7171740291447577,0.5340657663844013,-1.0833905546654705
1677618672207374,0.8087281605248791,0.5035477225909517,-1.1139085984588064
1677618672223205,0.7782101167315432,0.4730296787976158,-1.144426642252256
1677618672239188,0.8087281605248791,0.5035477225909517,-1.1139085984588064
1677618672255171,0.8087281605248791,0.5340657663844013,-1.0833905546654705
1677618672271155,0.8087281605248791,0.5035477225909517,-1.1139085984588064
1677618672287138,0.7782101167315432,0.5340657663844013,-1.052872510872021
1677618672303121,0.7476920729380936,0.5340657663844013,-1.0833905546654705
1677618672319104,0.7782101167315432,0.5645838101777372,-1.1139085984588064
1677618672335087,0.7476920729380936,0.5035477225909517,-1.022354467078685
1677618672351070,0.7476920729380936,0.5035477225909517,-1.0833905546654705
1677618672367053,0.7171740291447577,0.4730296787976158,-1.0833905546654705
1677618672383036,0.7782101167315432,0.5035477225909517,-1.0833905546654705
1677618672399019,0.7171740291447577,0.4730296787976158,-1.0833905546654705
1677618672415002,0.7476920729380936,0.5645838101777372,-1.1139085984588064
1677618672430986,0.7782101167315432,0.5340657663844013,-1.052872510872021
1677618672446969,0.7782101167315432,0.5645838101777372,-1.052872510872021
1677618672462952,0.7782101167315432,0.5035477225909517,-1.144426642252256
1677618672478935,0.7782101167315432,0.5645838101777372,-1.1139085984588064
1677618672494918,0.7782101167315432,0.5035477225909517,-1.0833905546654705
1677618672510901,0.8392462043183286,0.5645838101777372,-1.1139085984588064
1677618672526884,0.8087281605248791,0.5951018539711868,-1.0833905546654705
1677618672542724,0.7476920729380936,0.6256198977645226,-1.0833905546654705
1677618672558707,0.7476920729380936,0.5035477225909517,-1.144426642252256
1677618672574689,0.7782101167315432,0.5340657663844013,-1.0833905546654705
1677618672590672,0.8087281605248791,0.5035477225909517,-1.1139085984588064
1677618672606655,0.7782101167315432,0.4730296787976158,-1.1139085984588064
1677618672622637,0.7476920729380936,0.5340657663844013,-1.0833905546654705
1677618672638620,0.7782101167315432,0.4730296787976158,-1.052872510872021
1677618672654603,0.7782101167315432,0.5340657663844013,-1.052872510872021
1677618672670585,0.7782101167315432,0.4730296787976158,-1.1139085984588064
1677618672686568,0.8087281605248791,0.5340657663844013,-1.144426642252256
1677618672702551,0.7782101167315432,0.5340657663844013,-1.1139085984588064
1677618672718533,0.7476920729380936,0.5951018539711868,-1.144426642252256
1677618672734516,0.8087281605248791,0.5951018539711868,-1.0833905546654705
1677618672750498,0.7782101167315432,0.5035477225909517,-1.1139085984588064
1677618672766481,0.8087281605248791,0.5340657663844013,-1.144426642252256
1677618672782464,0.7476920729380936,0.5645838101777372,-1.0833905546654705
1677618672798446,0.7171740291447577,0.5035477225909517,-1.0833905546654705
1677618672814429,0.7476920729380936,0.5035477225909517,-1.1139085984588064
1677618672830412,0.7782101167315432,0.5340657663844013,-1.144426642252256
1677618672846394,0.7782101167315432,0.5340657663844013,-1.1749446860455919
1677618672862243,0.8392462043183286,0.5645838101777372,-1.1749446860455919
1677618672878225,0.8392462043183286,0.5035477225909517,-1.144426642252256
1677618672894208,0.8392462043183286,0.5645838101777372,-1.144426642252256
1677618672910190,0.8392462043183286,0.5951018539711868,-1.0833905546654705
1677618672926172,0.8392462043183286,0.5951018539711868,-1.144426642252256
1677618672942154,0.7476920729380936,0.5340657663844013,-1.1749446860455919
1677618672958136,0.7476920729380936,0.5340657663844013,-1.1139085984588064
1677618672974118,0.8087281605248791,0.5035477225909517,-1.144426642252256
1677618672990100,0.8392462043183286,0.4730296787976158,-1.1139085984588064
1677618673006083,0.8087281605248791,0.44251163500416624,-1.052872510872021
1677618673022065,0.7782101167315432,0.5645838101777372,-1.1139085984588064
1677618673038047,0.7782101167315432,0.5645838101777372,-1.052872510872021
1677618673054029,0.8087281605248791,0.5340657663844013,-1.0833905546654705
1677618673070011,0.8087281605248791,0.5035477225909517,-1.052872510872021
1677618673085993,0.8087281605248791,0.5035477225909517,-1.0833905546654705
1677618673101976,0.8087281605248791,0.5035477225909517,-1.0833905546654705
1677618673117958,0.7476920729380936,0.5035477225909517,-1.1139085984588064
1677618673133940,0.7476920729380936,0.5340657663844013,-1.144426642252256
1677618673149922,0.6561379415579722,0.5035477225909517,-1.1139085984588064
1677618673165904,0.7476920729380936,0.5035477225909517,-1.1139085984588064
1677618673181762,0.7782101167315432,0.5340657663844013,-1.1139085984588064
1677618673197744,0.8087281605248791,0.5340657663844013,-1.0833905546654705
1677618673213726,0.7782101167315432,0.5340657663844013,-1.0833905546654705
1677618673229707,0.8087281605248791,0.5645838101777372,-1.0833905546654705
1677618673245689,0.7476920729380936,0.5035477225909517,-1.0833905546654705
1677618673261671,0.7782101167315432,0.5035477225909517,-1.052872510872021
1677618673277652,0.7782101167315432,0.5340657663844013,-1.0833905546654705
1677618673293634,0.7476920729380936,0.5340657663844013,-1.1139085984588064
1677618673309616,0.7782101167315432,0.5340657663844013,-1.0833905546654705
1677618673325597,0.8392462043183286,0.5340657663844013,-1.1139085984588064
1677618673341579,0.8392462043183286,0.4730296787976158,-1.1139085984588064
1677618673357561,0.8392462043183286,0.4730296787976158,-1.1139085984588064
1677618673373542,0.7476920729380936,0.4730296787976158,-1.1139085984588064
1677618673389524,0.8087281605248791,0.5035477225909517,-1.144426642252256
1677618673405506,0.8087281605248791,0.5035477225909517,-1.1139085984588064
1677618673421487,0.8087281605248791,0.5340657663844013,-1.1139085984588064
1677618673437469,0.7782101167315432,0.5340657663844013,-1.0833905546654705
1677618673453451,0.7782101167315432,0.5645838101777372,-1.1139085984588064
1677618673469432,0.7782101167315432,0.5645838101777372,-1.1139085984588064
1677618673485414,0.7782101167315432,0.5035477225909517,-1.1749446860455919
1677618673501312,0.7782101167315432,0.5340657663844013,-1.1139085984588064
1677618673517293,0.7476920729380936,0.5645838101777372,-1.144426642252256
1677618673533274,0.7476920729380936,0.5340657663844013,-1.1139085984588064
1677618673549255,0.8087281605248791,0.5645838101777372,-1.1139085984588064
1677618673565237,0.7782101167315432,0.5645838101777372,-1.144426642252256
1677618673581218,0.8087281605248791,0.5340657663844013,-1.0833905546654705
1677618673597199,0.7782101167315432,0.5645838101777372,-1.0833905546654705
1677618673613180,0.7171740291447577,0.5951018539711868,-1.1139085984588064
1677618673629161,0.7782101167315432,0.5035477225909517,-1.144426642252256
1677618673645143,0.8087281605248791,0.5035477225909517,-1.1139085984588064
1677618673661124,0.8392462043183286,0.5340657663844013,-1.144426642252256
1677618673677105,0.8392462043183286,0.5035477225909517,-1.144426642252256
1677618673693086,0.7782101167315432,0.4730296787976158,-1.1749446860455919
1677618673709067,0.7782101167315432,0.5035477225909517,-1.1139085984588064
1677618673725049,0.7476920729380936,0.5340657663844013,-1.0833905546654705
1677618673741030,0.7476920729380936,0.5951018539711868,-1.1139085984588064
1677618673757011,0.8087281605248791,0.5951018539711868,-1.0833905546654705
1677618673772992,0.8087281605248791,0.5340657663844013,-1.1139085984588064
1677618673788973,0.8087281605248791,0.5340657663844013,-1.1139085984588064
1677618673804955,0.8087281605248791,0.5645838101777372,-1.0833905546654705
1677618673820831,0.7782101167315432,0.5340657663844013,-1.1139085984588064
1677618673836812,0.7782101167315432,0.5035477225909517,-1.0833905546654705
1677618673852792,0.8087281605248791,0.4730296787976158,-1.0833905546654705
1677618673868773,0.7782101167315432,0.5035477225909517,-1.1139085984588064
1677618673884754,0.7476920729380936,0.5340657663844013,-1.144426642252256
1677618673900735,0.7476920729380936,0.5035477225909517,-1.144426642252256
1677618673916715,0.7782101167315432,0.5645838101777372,-1.1139085984588064
1677618673932696,0.7782101167315432,0.5035477225909517,-1.0833905546654705
1677618673948677,0.8087281605248791,0.5035477225909517,-1.1139085984588064
1677618673964657,0.7171740291447577,0.5035477225909517,-1.1139085984588064
1677618673980638,0.7476920729380936,0.5340657663844013,-1.1139085984588064
1677618673996619,0.7476920729380936,0.4730296787976158,-1.0833905546654705
1677618674012600,0.7782101167315432,0.5035477225909517,-1.0833905546654705
1677618674028580,0.7171740291447577,0.4730296787976158,-1.0833905546654705
1677618674044561,0.7476920729380936,0.4730296787976158,-1.0833905546654705
1677618674060542,0.7782101167315432,0.5035477225909517,-1.0833905546654705
1677618674076522,0.7782101167315432,0.5340657663844013,-1.0833905546654705
1677618674092503,0.7782101167315432,0.5645838101777372,-1.144426642252256
1677618674108484,0.8087281605248791,0.5340657663844013,-1.1139085984588064
1677618674124465,0.7782101167315432,0.5035477225909517,-1.0833905546654705
1677618674140350,0.8087281605248791,0.5035477225909517,-1.052872510872021
1677618674156330,0.7476920729380936,0.5035477225909517,-1.1139085984588064
1677618674172310,0.8087281605248791,0.5340657663844013,-1.1749446860455919
1677618674188291,0.8087281605248791,0.5340657663844013,-1.1749446860455919
1677618674204271,0.7782101167315432,0.5951018539711868,-1.0833905546654705
1677618674220251,0.7476920729380936,0.5340657663844013,-1.0833905546654705
1677618674236231,0.7476920729380936,0.5645838101777372,-1.0833905546654705
1677618674252212,0.7171740291447577,0.5340657663844013,-1.052872510872021
1677618674268192,0.7476920729380936,0.5645838101777372,-1.0833905546654705
1677618674284172,0.7782101167315432,0.5645838101777372,-1.0833905546654705
1677618674300152,0.8087281605248791,0.5645838101777372,-1.1139085984588064
1677618674316133,0.7476920729380936,0.5951018539711868,-1.1139085984588064
1677618674332113,0.7171740291447577,0.5951018539711868,-1.1139085984588064
1677618674348093,0.7782101167315432,0.5340657663844013,-1.0833905546654705
1677618674364073,0.7476920729380936,0.5035477225909517,-1.1139085984588064
1677618674380054,0.8392462043183286,0.5645838101777372,-1.1139085984588064
1677618674396034,0.8087281605248791,0.5645838101777372,-1.1139085984588064
1677618674412014,0.7782101167315432,0.5340657663844013,-1.0833905546654705
1677618674427994,0.7171740291447577,0.5340657663844013,-1.0833905546654705
1677618674443975,0.8087281605248791,0.5951018539711868,-1.1139085984588064
1677618674459869,0.7782101167315432,0.5951018539711868,-1.144426642252256
1677618674475849,0.7782101167315432,0.5645838101777372,-1.0833905546654705
1677618674491829,0.7782101167315432,0.5035477225909517,-1.052872510872021
1677618674507810,0.7476920729380936,0.5645838101777372,-1.1139085984588064
1677618674523790,0.7782101167315432,0.5645838101777372,-1.144426642252256
1677618674539770,0.7782101167315432,0.6256198977645226,-1.144426642252256
1677618674555750,0.7476920729380936,0.5340657663844013,-1.144426642252256
1677618674571731,0.8087281605248791,0.5645838101777372,-1.144426642252256
1677618674587711,0.7476920729380936,0.5951018539711868,-1.1139085984588064
1677618674603691,0.7476920729380936,0.5645838101777372,-1.1749446860455919
1677618674619671,0.7782101167315432,0.5340657663844013,-1.144426642252256
1677618674635652,0.7476920729380936,0.5340657663844013,-1.1139085984588064
1677618674651632,0.8392462043183286,0.5645838101777372,-1.1139085984588064
1677618674667612,0.8392462043183286,0.5340657663844013,-1.144426642252256
1677618674683592,0.8087281605248791,0.5035477225909517,-1.1139085984588064
1677618674699573,0.8392462043183286,0.5035477225909517,-1.144426642252256
1677618674715553,0.8087281605248791,0.5340657663844013,-1.0833905546654705
1677618674731533,0.8392462043183286,0.5645838101777372,-1.0833905546654705
1677618674747513,0.7782101167315432,0.5340657663844013,-1.0833905546654705
1677618674763494,0.7476920729380936,0.5340657663844013,-1.052872510872021
1677618674779419,0.7782101167315432,0.5340657663844013,-1.052872510872021
1677618674795398,0.7782101167315432,0.5645838101777372,-1.1139085984588064
1677618674811378,0.8392462043183286,0.5340657663844013,-1.1139085984588064
1677618674827358,0.7782101167315432,0.5340657663844013,-1.144426642252256
1677618674843338,0.7476920729380936,0.5035477225909517,-1.1749446860455919
1677618674859317,0.7476920729380936,0.5951018539711868,-1.144426642252256
1677618674875297,0.7782101167315432,0.5645838101777372,-1.144426642252256
1677618674891277,0.7476920729380936,0.5645838101777372,-1.144426642252256
1677618674907257,0.7782101167315432,0.5645838101777372,-1.1139085984588064
1677618674923236,0.8392462043183286,0.6256198977645226,-1.0833905546654705
1677618674939216,0.8087281605248791,0.5645838101777372,-1.1139085984588064
1677618674955196,0.7476920729380936,0.5645838101777372,-1.0833905546654705
1677618674971176,0.7171740291447577,0.5340657663844013,-1.0833905546654705
1677618674987156,0.7476920729380936,0.5645838101777372,-1.144426642252256
1677618675003135,0.7782101167315432,0.5340657663844013,-1.1139085984588064
1677618675019115,0.7782101167315432,0.5340657663844013,-1.144426642252256
1677618675035095,0.7476920729380936,0.5340657663844013,-1.1139085984588064
1677618675051075,0.7782101167315432,0.5035477225909517,-1.1749446860455919
1677618675067054,0.8087281605248791,0.5645838101777372,-1.1749446860455919
1677618675083034,0.7782101167315432,0.5035477225909517,-1.144426642252256
1677618675098938,0.7171740291447577,0.5340657663844013,-1.0833905546654705
1677618675114917,0.8087281605248791,0.5035477225909517,-1.0833905546654705
1677618675130896,0.8392462043183286,0.5035477225909517,-1.1139085984588064
1677618675146875,0.7171740291447577,0.5340657663844013,-1.1139085984588064
1677618675162855,0.7782101167315432,0.5340657663844013,-1.144426642252256
1677618675178834,0.8087281605248791,0.5340657663844013,-1.1139085984588064
1677618675194813,0.8087281605248791,0.5340657663844013,-1.1139085984588064
1677618675210793,0.8087281605248791,0.5340657663844013,-1.0833905546654705
1677618675226772,0.7476920729380936,0.5035477225909517,-1.1139085984588064
1677618675242751,0.8087281605248791,0.5035477225909517,-1.144426642252256
1677618675258731,0.8087281605248791,0.5035477225909517,-1.1139085984588064
1677618675274710,0.7476920729380936,0.5340657663844013,-1.1139085984588064
1677618675290689,0.7782101167315432,0.5035477225909517,-1.1139085984588064
1677618675306668,0.8087281605248791,0.5340657663844013,-1.1139085984588064
1677618675322648,0.7782101167315432,0.5645838101777372,-1.144426642252256
1677618675338627,0.7782101167315432,0.5035477225909517,-1.144426642252256
1677618675354606,0.8087281605248791,0.5035477225909517,-1.0833905546654705
1677618675370586,0.8087281605248791,0.5035477225909517,-1.0833905546654705
1677618675386565,0.8087281605248791,0.5340657663844013,-1.1139085984588064
1677618675402544,0.8087281605248791,0.5340657663844013,-1.144426642252256
1677618675418457,0.8087281605248791,0.5340657663844013,-1.144426642252256
1677618675434436,0.7476920729380936,0.5340657663844013,-1.1139085984588064
1677618675450415,0.7782101167315432,0.5340657663844013,-1.1139085984588064
1677618675466395,0.7782101167315432,0.4730296787976158,-1.052872510872021
1677618675482374,0.7476920729380936,0.5340657663844013,-1.1139085984588064
1677618675498353,0.7782101167315432,0.5340657663844013,-1.1139085984588064
1677618675514332,0.7782101167315432,0.5645838101777372,-1.144426642252256
1677618675530312,0.7476920729380936,0.5645838101777372,-1.1139085984588064
1677618675546291,0.7782101167315432,0.5340657663844013,-1.144426642252256
1677618675562270,0.8087281605248791,0.4730296787976158,-1.144426642252256
1677618675578250,0.7171740291447577,0.5340657663844013,-1.1139085984588064
1677618675594229,0.7782101167315432,0.5035477225909517,-1.1139085984588064
1677618675610208,0.8087281605248791,0.5035477225909517,-1.144426642252256
1677618675626187,0.8087281605248791,0.5645838101777372,-1.144426642252256
1677618675642167,0.7782101167315432,0.5340657663844013,-1.0833905546654705
1677618675658146,0.8087281605248791,0.5951018539711868,-1.1749446860455919
1677618675674125,0.8087281605248791,0.5645838101777372,-1.144426642252256
1677618675690105,0.8087281605248791,0.5951018539711868,-1.1139085984588064
1677618675706084,0.8087281605248791,0.5340657663844013,-1.1139085984588064
1677618675722063,0.8087281605248791,0.5035477225909517,-1.144426642252256
1677618675737945,0.8087281605248791,0.5035477225909517,-1.144426642252256
1677618675753924,0.8087281605248791,0.5035477225909517,-1.1139085984588064
1677618675769903,0.7782101167315432,0.5340657663844013,-1.0833905546654705
1677618675785882,0.7476920729380936,0.5340657663844013,-1.0833905546654705
1677618675801860,0.7476920729380936,0.5035477225909517,-1.0833905546654705
1677618675817839,0.7782101167315432,0.5035477225909517,-1.0833905546654705
1677618675833818,0.7782101167315432,0.5340657663844013,-1.144426642252256
1677618675849797,0.8087281605248791,0.5340657663844013,-1.144426642252256
1677618675865776,0.8087281605248791,0.5645838101777372,-1.1139085984588064
1677618675881755,0.8392462043183286,0.5645838101777372,-1.1139085984588064
1677618675897733,0.8087281605248791,0.5645838101777372,-1.1139085984588064
1677618675913712,0.7476920729380936,0.5340657663844013,-1.1139085984588064
1677618675929691,0.7782101167315432,0.5340657663844013,-1.0833905546654705
1677618675945670,0.7782101167315432,0.5645838101777372,-1.1139085984588064
1677618675961649,0.8087281605248791,0.5645838101777372,-1.0833905546654705
1677618675977627,0.8392462043183286,0.5340657663844013,-1.1139085984588064
1677618675993606,0.8392462043183286,0.5340657663844013,-1.1139085984588064
1677618676009585,0.8087281605248791,0.5340657663844013,-1.1139085984588064
1677618676025564,0.8087281605248791,0.5645838101777372,-1.1139085984588064
1677618676041543,0.8087281605248791,0.44251163500416624,-1.144426642252256
1677618676057464,0.7782101167315432,0.5340657663844013,-1.144426642252256
1677618676073443,0.7476920729380936,0.5340657663844013,-1.0833905546654705
1677618676089422,0.7476920729380936,0.5035477225909517,-1.0833905546654705
1677618676105401,0.7782101167315432,0.5340657663844013,-1.144426642252256
1677618676121379,0.7476920729380936,0.5340657663844013,-1.1139085984588064
1677618676137358,0.7476920729380936,0.5645838101777372,-1.0833905546654705
1677618676153337,0.7476920729380936,0.5951018539711868,-1.1139085984588064
1677618676169316,0.7782101167315432,0.5340657663844013,-1.144426642252256
1677618676185295,0.7782101167315432,0.5340657663844013,-1.1139085984588064
1677618676201274,0.7782101167315432,0.5035477225909517,-1.1139085984588064
1677618676217252,0.7476920729380936,0.5035477225909517,-1.1139085984588064
1677618676233231,0.8087281605248791,0.5340657663844013,-1.0833905546654705
1677618676249210,0.8087281605248791,0.4730296787976158,-1.1139085984588064
1677618676265189,0.8087281605248791,0.5340657663844013,-1.144426642252256
1677618676281168,0.7782101167315432,0.5645838101777372,-1.1139085984588064
1677618676297146,0.8087281605248791,0.5035477225909517,-1.0833905546654705
1677618676313125,0.8087281605248791,0.5340657663844013,-1.144426642252256
1677618676329104,0.7476920729380936,0.5340657663844013,-1.0833905546654705
1677618676345083,0.7782101167315432,0.5645838101777372,-1.144426642252256
1677618676361062,0.8087281605248791,0.5645838101777372,-1.1139085984588064
1677618676376953,0.8087281605248791,0.5340657663844013,-1.1139085984588064
1677618676392931,0.7782101167315432,0.5340657663844013,-1.1139085984588064
1677618676408909,0.8087281605248791,0.5951018539711868,-1.1139085984588064
1677618676424888,0.8697642481116645,0.5340657663844013,-1.1139085984588064
1677618676440866,0.8087281605248791,0.5035477225909517,-1.144426642252256
1677618676456844,0.8087281605248791,0.5645838101777372,-1.0833905546654705
1677618676472823,0.7782101167315432,0.5340657663844013,-1.0833905546654705
1677618676488801,0.7782101167315432,0.5340657663844013,-1.144426642252256
1677618676504779,0.7782101167315432,0.4730296787976158,-1.1139085984588064
1677618676520758,0.7476920729380936,0.5035477225909517,-1.1139085984588064
1677618676536736,0.7476920729380936,0.5340657663844013,-1.0833905546654705
1677618676552714,0.8087281605248791,0.5340657663844013,-1.1139085984588064
1677618676568693,0.7476920729380936,0.5035477225909517,-1.0833905546654705
1677618676584671,0.7782101167315432,0.5035477225909517,-1.1139085984588064
1677618676600649,0.7782101167315432,0.4730296787976158,-1.1139085984588064
1677618676616628,0.7476920729380936,0.5035477225909517,-1.0833905546654705
1677618676632606,0.7476920729380936,0.5645838101777372,-1.0833905546654705
1677618676648584,0.7782101167315432,0.5645838101777372,-1.1139085984588064
1677618676664563,0.8087281605248791,0.5340657663844013,-1.1749446860455919
1677618676680541,0.7782101167315432,0.5645838101777372,-1.1139085984588064
1677618676696502,0.7476920729380936,0.5645838101777372,-1.1139085984588064
1677618676712481,0.8087281605248791,0.5340657663844013,-1.0833905546654705
1677618676728459,0.8087281605248791,0.5340657663844013,-1.144426642252256
1677618676744437,0.8087281605248791,0.5340657663844013,-1.0833905546654705
1677618676760416,0.7476920729380936,0.5035477225909517,-1.0833905546654705
1677618676776394,0.7171740291447577,0.5340657663844013,-1.1139085984588064
1677618676792372,0.7476920729380936,0.5645838101777372,-1.1749446860455919
1677618676808351,0.7476920729380936,0.5645838101777372,-1.1139085984588064
1677618676824329,0.8697642481116645,0.5035477225909517,-1.1749446860455919
1677618676840307,0.7476920729380936,0.5035477225909517,-1.144426642252256
1677618676856286,0.7476920729380936,0.5951018539711868,-1.0833905546654705
1677618676872264,0.7476920729380936,0.5951018539711868,-1.1139085984588064
1677618676888242,0.7782101167315432,0.5645838101777372,-1.1139085984588064
1677618676904221,0.7782101167315432,0.5340657663844013,-1.1139085984588064
1677618676920199,0.8087281605248791,0.5340657663844013,-1.1139085984588064
1677618676936177,0.7476920729380936,0.5340657663844013,-1.1139085984588064
1677618676952156,0.7476920729380936,0.5340657663844013,-1.1139085984588064
1677618676968134,0.7782101167315432,0.5340657663844013,-1.1139085984588064
1677618676984112,0.7782101167315432,0.5645838101777372,-1.1139085984588064
1677618677000091,0.7782101167315432,0.5951018539711868,-1.144426642252256
1677618677016021,0.7476920729380936,0.6256198977645226,-1.1139085984588064
1677618677031999,0.7476920729380936,0.5645838101777372,-1.0833905546654705
1677618677047977,0.7476920729380936,0.5951018539711868,-1.052872510872021
1677618677063955,0.7782101167315432,0.5340657663844013,-1.0833905546654705
1677618677079933,0.8087281605248791,0.5035477225909517,-1.144426642252256
1677618677095911,0.8392462043183286,0.4730296787976158,-1.144426642252256
1677618677111889,0.8392462043183286,0.5035477225909517,-1.052872510872021
1677618677127866,0.7476920729380936,0.5340657663844013,-1.052872510872021
1677618677143844,0.8087281605248791,0.5340657663844013,-1.0833905546654705
1677618677159822,0.8087281605248791,0.5035477225909517,-1.0833905546654705
1677618677175800,0.7782101167315432,0.5645838101777372,-1.144426642252256
1677618677191778,0.7782101167315432,0.5645838101777372,-1.1139085984588064
1677618677207756,0.8087281605248791,0.5035477225909517,-1.144426642252256
1677618677223734,0.7782101167315432,0.5340657663844013,-1.1139085984588064
1677618677239711,0.8087281605248791,0.6256198977645226,-1.0833905546654705
1677618677255689,0.7782101167315432,0.6256198977645226,-1.1139085984588064
1677618677271667,0.7782101167315432,0.5645838101777372,-1.1139085984588064
1677618677287645,0.8087281605248791,0.5035477225909517,-1.0833905546654705
1677618677303623,0.7782101167315432,0.5645838101777372,-1.0833905546654705
1677618677319601,0.6866559853513081,0.5645838101777372,-1.144426642252256
1677618677335540,0.7476920729380936,0.5340657663844013,-1.144426642252256
1677618677351518,0.7171740291447577,0.5645838101777372,-1.1139085984588064
1677618677367496,0.7476920729380936,0.5340657663844013,-1.0833905546654705
1677618677383474,0.7782101167315432,0.5340657663844013,-1.1139085984588064
1677618677399452,0.7171740291447577,0.4730296787976158,-1.1139085984588064
1677618677415430,0.8087281605248791,0.5340657663844013,-1.1749446860455919
1677618677431408,0.8087281605248791,0.5340657663844013,-1.0833905546654705
1677618677447385,0.7476920729380936,0.5035477225909517,-1.1139085984588064
1677618677463363,0.8087281605248791,0.5035477225909517,-1.1139085984588064
1677618677479341,0.7171740291447577,0.5340657663844013,-1.1139085984588064
1677618677495319,0.7476920729380936,0.5340657663844013,-1.1139085984588064
1677618677511297,0.7476920729380936,0.5951018539711868,-1.0833905546654705
1677618677527275,0.7476920729380936,0.5340657663844013,-1.0833905546654705
1677618677543253,0.7782101167315432,0.5340657663844013,-1.1139085984588064
1677618677559230,0.7476920729380936,0.5645838101777372,-1.1139085984588064
1677618677575208,0.6866559853513081,0.5645838101777372,-1.1139085984588064
1677618677591186,0.7171740291447577,0.5340657663844013,-1.0833905546654705
1677618677607164,0.7782101167315432,0.5340657663844013,-1.052872510872021
1677618677623142,0.7782101167315432,0.5340657663844013,-1.052872510872021
1677618677639120,0.7782101167315432,0.5035477225909517,-1.0833905546654705
1677618677655059,0.7476920729380936,0.5035477225909517,-1.1139085984588064
1677618677671037,0.8087281605248791,0.4730296787976158,-1.1139085984588064
1677618677687015,0.8087281605248791,0.5645838101777372,-1.0833905546654705
1677618677702993,0.7782101167315432,0.6256198977645226,-1.1139085984588064
1677618677718971,0.7476920729380936,0.6256198977645226,-1.144426642252256
1677618677734949,0.8087281605248791,0.5645838101777372,-1.1139085984588064
1677618677750927,0.7476920729380936,0.5340657663844013,-1.1139085984588064
1677618677766904,0.7476920729380936,0.5035477225909517,-1.1139085984588064
1677618677782882,0.7171740291447577,0.4730296787976158,-1.144426642252256
1677618677798860,0.7476920729380936,0.4730296787976158,-1.1139085984588064
1677618677814838,0.7171740291447577,0.5035477225909517,-1.1139085984588064
1677618677830816,0.7476920729380936,0.5340657663844013,-1.144426642252256
1677618677846794,0.7476920729380936,0.5645838101777372,-1.144426642252256
1677618677862772,0.7171740291447577,0.4730296787976158,-1.144426642252256
1677618677878749,0.8087281605248791,0.5340657663844013,-1.144426642252256
1677618677894727,0.8087281605248791,0.5340657663844013,-1.1139085984588064
1677618677910705,0.7476920729380936,0.5340657663844013,-1.0833905546654705
1677618677926683,0.8087281605248791,0.5340657663844013,-1.1139085984588064
1677618677942661,0.7782101167315432,0.5340657663844013,-1.0833905546654705
1677618677958639,0.7782101167315432,0.5035477225909517,-1.144426642252256
1677618677974578,0.7782101167315432,0.5340657663844013,-1.0833905546654705
1677618677990556,0.8087281605248791,0.5035477225909517,-1.1139085984588064
1677618678006533,0.7782101167315432,0.5645838101777372,-1.052872510872021
1677618678022511,0.7476920729380936,0.5340657663844013,-1.0833905546654705
1677618678038488,0.7782101167315432,0.5645838101777372,-1.1139085984588064
1677618678054465,0.7782101167315432,0.5645838101777372,-1.0833905546654705
1677618678070443,0.7476920729380936,0.5951018539711868,-1.0833905546654705
1677618678086420,0.8392462043183286,0.5645838101777372,-1.144426642252256
1677618678102398,0.8392462043183286,0.5340657663844013,-1.1139085984588064
1677618678118375,0.7782101167315432,0.5035477225909517,-1.052872510872021
1677618678134352,0.7782101167315432,0.5645838101777372,-1.0833905546654705
1677618678150330,0.7476920729380936,0.5035477225909517,-1.0833905546654705
1677618678166307,0.7782101167315432,0.5340657663844013,-1.1139085984588064
1677618678182284,0.8392462043183286,0.5645838101777372,-1.1139085984588064
1677618678198262,0.8087281605248791,0.5340657663844013,-1.0833905546654705
1677618678214239,0.7476920729380936,0.5645838101777372,-1.0833905546654705
1677618678230217,0.8087281605248791,0.5645838101777372,-1.0833905546654705
1677618678246194,0.7782101167315432,0.5645838101777372,-1.1139085984588064
1677618678262171,0.7782101167315432,0.5035477225909517,-1.144426642252256
1677618678278149,0.8087281605248791,0.5645838101777372,-1.0833905546654705
1677618678294098,0.7782101167315432,0.5645838101777372,-1.1139085984588064
1677618678310075,0.7782101167315432,0.5645838101777372,-1.1139085984588064
1677618678326052,0.7476920729380936,0.5340657663844013,-1.1139085984588064
1677618678342030,0.7171740291447577,0.5340657663844013,-1.0833905546654705
1677618678358007,0.7782101167315432,0.5340657663844013,-1.052872510872021
1677618678373984,0.7476920729380936,0.5645838101777372,-1.0833905546654705
1677618678389962,0.7171740291447577,0.5340657663844013,-1.1139085984588064
1677618678405939,0.7171740291447577,0.4730296787976158,-1.0833905546654705
1677618678421917,0.8087281605248791,0.4730296787976158,-1.0833905546654705
1677618678437894,0.7782101167315432,0.5035477225909517,-1.0833905546654705
1677618678453871,0.8087281605248791,0.5951018539711868,-1.0833905546654705
1677618678469849,0.7782101167315432,0.5645838101777372,-1.0833905546654705
1677618678485826,0.8392462043183286,0.5340657663844013,-1.0833905546654705
1677618678501803,0.8087281605248791,0.5340657663844013,-1.144426642252256
1677618678517781,0.8087281605248791,0.5340657663844013,-1.0833905546654705
1677618678533758,0.8087281605248791,0.5951018539711868,-1.1139085984588064
1677618678549736,0.7476920729380936,0.5340657663844013,-1.144426642252256
1677618678565713,0.7782101167315432,0.5035477225909517,-1.1139085984588064
1677618678581690,0.7782101167315432,0.5645838101777372,-1.1139085984588064
1677618678597668,0.7476920729380936,0.5645838101777372,-1.0833905546654705
1677618678613617,0.7476920729380936,0.5340657663844013,-1.1139085984588064
1677618678629594,0.7782101167315432,0.5340657663844013,-1.1139085984588064
1677618678645571,0.7782101167315432,0.5035477225909517,-1.0833905546654705
1677618678661549,0.7476920729380936,0.5951018539711868,-1.144426642252256
1677618678677526,0.8087281605248791,0.5645838101777372,-1.1139085984588064
1677618678693503,0.8087281605248791,0.44251163500416624,-1.1139085984588064
1677618678709481,0.8087281605248791,0.4730296787976158,-1.144426642252256
1677618678725458,0.7476920729380936,0.5645838101777372,-1.144426642252256
1677618678741436,0.7476920729380936,0.5645838101777372,-1.0833905546654705
1677618678757413,0.8392462043183286,0.5340657663844013,-1.0833905546654705
1677618678773390,0.8087281605248791,0.5645838101777372,-1.022354467078685
1677618678789368,0.7782101167315432,0.5951018539711868,-1.1139085984588064
1677618678805345,0.7476920729380936,0.5951018539711868,-1.144426642252256
1677618678821323,0.8087281605248791,0.5645838101777372,-1.1139085984588064
1677618678837300,0.8697642481116645,0.5035477225909517,-1.144426642252256
1677618678853277,0.8392462043183286,0.5340657663844013,-1.144426642252256
1677618678869255,0.8087281605248791,0.5645838101777372,-1.144426642252256
1677618678885232,0.8392462043183286,0.5340657663844013,-1.1749446860455919
1677618678901209,0.7782101167315432,0.5645838101777372,-1.1139085984588064
1677618678917187,0.7171740291447577,0.5951018539711868,-1.0833905546654705
1677618678933136,0.8087281605248791,0.5951018539711868,-1.144426642252256
1677618678949113,0.8392462043183286,0.5645838101777372,-1.144426642252256
1677618678965090,0.7782101167315432,0.5340657663844013,-1.052872510872021
1677618678981068,0.7782101167315432,0.5340657663844013,-1.144426642252256
1677618678997045,0.7476920729380936,0.4730296787976158,-1.0833905546654705
1677618679013023,0.7476920729380936,0.5340657663844013,-1.1139085984588064
1677618679029000,0.7476920729380936,0.5645838101777372,-1.144426642252256
1677618679044977,0.8392462043183286,0.5645838101777372,-1.0833905546654705
1677618679060955,0.8087281605248791,0.6256198977645226,-1.0833905546654705
1677618679076932,0.8087281605248791,0.5645838101777372,-1.1139085984588064
1677618679092909,0.8392462043183286,0.5035477225909517,-1.0833905546654705
1677618679108887,0.7782101167315432,0.5035477225909517,-1.052872510872021
1677618679124864,0.7476920729380936,0.5951018539711868,-1.022354467078685
1677618679140842,0.7782101167315432,0.5340657663844013,-1.0833905546654705
1677618679156819,0.8087281605248791,0.5035477225909517,-1.1139085984588064
1677618679172796,0.7782101167315432,0.5340657663844013,-1.144426642252256
1677618679188774,0.8087281605248791,0.5645838101777372,-1.1139085984588064
1677618679204751,0.7782101167315432,0.5340657663844013,-1.0833905546654705
1677618679220728,0.7782101167315432,0.5035477225909517,-1.1139085984588064
1677618679236706,0.7782101167315432,0.5340657663844013,-1.144426642252256
1677618679252655,0.8087281605248791,0.5645838101777372,-1.144426642252256
1677618679268632,0.7782101167315432,0.5645838101777372,-1.0833905546654705
1677618679284608,0.7476920729380936,0.5645838101777372,-1.1139085984588064
1677618679300585,0.7476920729380936,0.5645838101777372,-1.0833905546654705
1677618679316562,0.8087281605248791,0.5645838101777372,-1.0833905546654705
1677618679332539,0.8087281605248791,0.5340657663844013,-1.1139085984588064
1677618679348516,0.7782101167315432,0.5645838101777372,-1.144426642252256
1677618679364493,0.7476920729380936,0.5951018539711868,-1.1139085984588064
1677618679380470,0.7782101167315432,0.5951018539711868,-1.1139085984588064
1677618679396447,0.8392462043183286,0.5645838101777372,-1.1139085984588064
1677618679412424,0.7782101167315432,0.5035477225909517,-1.0833905546654705
1677618679428401,0.7782101167315432,0.5340657663844013,-1.0833905546654705
1677618679444378,0.8087281605248791,0.5645838101777372,-1.1139085984588064
1677618679460354,0.8087281605248791,0.5340657663844013,-1.1139085984588064
1677618679476331,0.7782101167315432,0.5035477225909517,-1.1139085984588064
1677618679492308,0.7476920729380936,0.5951018539711868,-1.144426642252256
1677618679508285,0.7476920729380936,0.5645838101777372,-1.1139085984588064
1677618679524262,0.8087281605248791,0.5645838101777372,-1.1139085984588064
1677618679540239,0.7782101167315432,0.5645838101777372,-1.1139085984588064
1677618679556216,0.7476920729380936,0.5340657663844013,-1.1139085984588064
1677618679572174,0.7476920729380936,0.5340657663844013,-1.1139085984588064
1677618679588151,0.7476920729380936,0.5340657663844013,-1.1139085984588064
1677618679604128,0.8392462043183286,0.5035477225909517,-1.1139085984588064
1677618679620104,0.8087281605248791,0.5035477225909517,-1.1139085984588064
1677618679636081,0.7782101167315432,0.5645838101777372,-1.0833905546654705
1677618679652058,0.8087281605248791,0.5645838101777372,-1.052872510872021
1677618679668035,0.7782101167315432,0.5340657663844013,-1.1139085984588064
1677618679684012,0.7476920729380936,0.5035477225909517,-1.0833905546654705
1677618679699989,0.7782101167315432,0.5340657663844013,-1.144426642252256
1677618679715966,0.7476920729380936,0.5645838101777372,-1.1139085984588064
1677618679731943,0.7782101167315432,0.6256198977645226,-1.052872510872021
1677618679747920,0.8087281605248791,0.5645838101777372,-1.0833905546654705
1677618679763897,0.7782101167315432,0.5951018539711868,-1.0833905546654705
1677618679779873,0.7782101167315432,0.5645838101777372,-1.0833905546654705
1677618679795850,0.8087281605248791,0.5645838101777372,-1.144426642252256
1677618679811827,0.8087281605248791,0.5340657663844013,-1.1749446860455919
1677618679827804,0.7476920729380936,0.5645838101777372,-1.144426642252256
1677618679843781,0.7476920729380936,0.5340657663844013,-1.1749446860455919
1677618679859758,0.7782101167315432,0.5340657663844013,-1.144426642252256
1677618679875735,0.7782101167315432,0.5645838101777372,-1.1139085984588064
1677618679891693,0.7782101167315432,0.5340657663844013,-1.1139085984588064
1677618679907670,0.7476920729380936,0.5340657663844013,-1.0833905546654705
1677618679923647,0.7782101167315432,0.5340657663844013,-1.1139085984588064
1677618679939623,0.7782101167315432,0.5035477225909517,-1.144426642252256
1677618679955600,0.7476920729380936,0.5340657663844013,-1.1139085984588064
1677618679971577,0.8087281605248791,0.5340657663844013,-1.1139085984588064
1677618679987554,0.8392462043183286,0.5645838101777372,-1.0833905546654705
1677618680003531,0.8392462043183286,0.5645838101777372,-1.144426642252256
1677618680019508,0.8392462043183286,0.5645838101777372,-1.144426642252256
1677618680035485,0.8392462043183286,0.5035477225909517,-1.1139085984588064
1677618680051462,0.8087281605248791,0.5035477225909517,-1.144426642252256
1677618680067439,0.8087281605248791,0.5340657663844013,-1.144426642252256
1677618680083416,0.7782101167315432,0.5951018539711868,-1.1139085984588064
1677618680099393,0.7476920729380936,0.5645838101777372,-1.1139085984588064
1677618680115369,0.8087281605248791,0.5645838101777372,-1.052872510872021
1677618680131346,0.7782101167315432,0.5645838101777372,-1.0833905546654705
1677618680147323,0.7782101167315432,0.5645838101777372,-1.1139085984588064
1677618680163300,0.7782101167315432,0.5951018539711868,-1.1139085984588064
1677618680179277,0.8087281605248791,0.5035477225909517,-1.1139085984588064
1677618680195254,0.7782101167315432,0.5340657663844013,-1.1139085984588064
1677618680211181,0.7476920729380936,0.5645838101777372,-1.0833905546654705
1677618680227158,0.7171740291447577,0.5645838101777372,-1.0833905546654705
1677618680243135,0.7171740291447577,0.5340657663844013,-1.1139085984588064
1677618680259112,0.7782101167315432,0.5340657663844013,-1.1139085984588064
1677618680275089,0.7476920729380936,0.5035477225909517,-1.1139085984588064
1677618680291066,0.7171740291447577,0.5645838101777372,-1.144426642252256
1677618680307043,0.8087281605248791,0.5340657663844013,-1.1139085984588064
1677618680323020,0.8087281605248791,0.5035477225909517,-1.0833905546654705
1677618680338997,0.7476920729380936,0.5645838101777372,-1.0833905546654705
1677618680354973,0.7476920729380936,0.5951018539711868,-1.144426642252256
1677618680370950,0.7476920729380936,0.4730296787976158,-1.144426642252256
1677618680386927,0.7476920729380936,0.5035477225909517,-1.1139085984588064
1677618680402904,0.7476920729380936,0.5951018539711868,-1.052872510872021
1677618680418881,0.7476920729380936,0.5645838101777372,-1.0833905546654705
1677618680434858,0.7782101167315432,0.5340657663844013,-1.144426642252256
1677618680450835,0.8392462043183286,0.4730296787976158,-1.1139085984588064
1677618680466812,0.7782101167315432,0.5340657663844013,-1.144426642252256
1677618680482789,0.8087281605248791,0.5340657663844013,-1.1139085984588064
1677618680498766,0.7476920729380936,0.5035477225909517,-1.0833905546654705
1677618680514742,0.7782101167315432,0.4730296787976158,-1.0833905546654705
1677618680530700,0.7782101167315432,0.5645838101777372,-1.0833905546654705
1677618680546677,0.7476920729380936,0.5035477225909517,-1.1139085984588064
1677618680562654,0.7782101167315432,0.5035477225909517,-1.0833905546654705
1677618680578631,0.7782101167315432,0.5035477225909517,-1.0833905546654705
1677618680594608,0.7476920729380936,0.5340657663844013,-1.1139085984588064
1677618680610585,0.7782101167315432,0.5340657663844013,-1.0833905546654705
1677618680626562,0.7476920729380936,0.5035477225909517,-1.1139085984588064
1677618680642539,0.7782101167315432,0.5645838101777372,-1.1139085984588064
1677618680658516,0.7476920729380936,0.5645838101777372,-1.1139085984588064
1677618680674492,0.7782101167315432,0.4730296787976158,-1.0833905546654705
1677618680690469,0.8087281605248791,0.5035477225909517,-1.0833905546654705
1677618680706446,0.8087281605248791,0.5035477225909517,-1.1139085984588064
1677618680722423,0.7476920729380936,0.4730296787976158,-1.1139085984588064
1677618680738400,0.7476920729380936,0.5035477225909517,-1.1139085984588064
1677618680754377,0.7171740291447577,0.5645838101777372,-1.1749446860455919
1677618680770354,0.7476920729380936,0.5645838101777372,-1.0833905546654705
1677618680786331,0.8392462043183286,0.5951018539711868,-1.1139085984588064
1677618680802308,0.7782101167315432,0.5340657663844013,-1.0833905546654705
1677618680818285,0.8087281605248791,0.5645838101777372,-1.0833905546654705
1677618680834262,0.8087281605248791,0.5035477225909517,-1.0833905546654705
1677618680850219,0.8087281605248791,0.5035477225909517,-1.144426642252256
1677618680866196,0.8087281605248791,0.5645838101777372,-1.144426642252256
1677618680882172,0.8392462043183286,0.5645838101777372,-1.144426642252256
1677618680898149,0.8087281605248791,0.5340657663844013,-1.1139085984588064
1677618680914125,0.7476920729380936,0.5645838101777372,-1.1139085984588064
1677618680930101,0.7476920729380936,0.5340657663844013,-1.1139085984588064
1677618680946078,0.7476920729380936,0.5645838101777372,-1.1139085984588064
1677618680962054,0.7476920729380936,0.5951018539711868,-1.1139085984588064
1677618680978031,0.7782101167315432,0.5340657663844013,-1.1139085984588064
1677618680994007,0.7782101167315432,0.5035477225909517,-1.1139085984588064
1677618681009984,0.7171740291447577,0.5035477225909517,-1.144426642252256
1677618681025960,0.7476920729380936,0.4730296787976158,-1.1139085984588064
1677618681041936,0.8087281605248791,0.5645838101777372,-1.0833905546654705
1677618681057913,0.7476920729380936,0.5340657663844013,-1.144426642252256
1677618681073889,0.7782101167315432,0.5951018539711868,-1.144426642252256
1677618681089866,0.7476920729380936,0.5951018539711868,-1.144426642252256
1677618681105842,0.7782101167315432,0.5645838101777372,-1.144426642252256
1677618681121819,0.8087281605248791,0.5645838101777372,-1.1139085984588064
1677618681137795,0.8392462043183286,0.5951018539711868,-1.0833905546654705
1677618681153772,0.8392462043183286,0.5645838101777372,-1.0833905546654705
1677618681169738,0.8087281605248791,0.5340657663844013,-1.1139085984588064
1677618681185715,0.8087281605248791,0.6256198977645226,-1.0833905546654705
1677618681201691,0.8087281605248791,0.5340657663844013,-1.0833905546654705
1677618681217668,0.8697642481116645,0.5645838101777372,-1.052872510872021
1677618681233644,0.8087281605248791,0.5645838101777372,-1.052872510872021
1677618681249621,0.7782101167315432,0.5340657663844013,-1.0833905546654705
1677618681265597,0.7782101167315432,0.5645838101777372,-1.1139085984588064
1677618681281573,0.7476920729380936,0.5645838101777372,-1.0833905546654705
1677618681297550,0.8087281605248791,0.4730296787976158,-1.1139085984588064
1677618681313526,0.8392462043183286,0.5645838101777372,-1.0833905546654705
1677618681329503,0.8087281605248791,0.5645838101777372,-1.144426642252256
1677618681345479,0.8087281605248791,0.5645838101777372,-1.0833905546654705
1677618681361456,0.7476920729380936,0.5035477225909517,-1.1139085984588064
1677618681377432,0.8087281605248791,0.5645838101777372,-1.144426642252256
1677618681393408,0.7476920729380936,0.5645838101777372,-1.144426642252256
1677618681409385,0.7782101167315432,0.5340657663844013,-1.144426642252256
1677618681425361,0.8087281605248791,0.5951018539711868,-1.144426642252256
1677618681441338,0.7782101167315432,0.5951018539711868,-1.1139085984588064
1677618681457314,0.7171740291447577,0.5645838101777372,-1.1139085984588064
1677618681473291,0.7782101167315432,0.5645838101777372,-1.1139085984588064
1677618681489257,0.8087281605248791,0.5340657663844013,-1.1139085984588064
1677618681505234,0.7782101167315432,0.5035477225909517,-1.1139085984588064
1677618681521210,0.7782101167315432,0.5340657663844013,-1.1749446860455919
1677618681537187,0.8087281605248791,0.5035477225909517,-1.144426642252256
1677618681553163,0.8087281605248791,0.4730296787976158,-1.0833905546654705
1677618681569140,0.8087281605248791,0.5035477225909517,-1.0833905546654705
1677618681585116,0.7782101167315432,0.5645838101777372,-1.1139085984588064
1677618681601092,0.8392462043183286,0.5035477225909517,-1.0833905546654705
1677618681617069,0.8087281605248791,0.5645838101777372,-1.0833905546654705
1677618681633045,0.7171740291447577,0.6256198977645226,-1.1139085984588064
1677618681649022,0.7171740291447577,0.5645838101777372,-1.1139085984588064
1677618681664998,0.7476920729380936,0.5035477225909517,-1.1139085984588064
1677618681680975,0.7782101167315432,0.4730296787976158,-1.1139085984588064
1677618681696951,0.8087281605248791,0.5340657663844013,-1.144426642252256
1677618681712927,0.7782101167315432,0.5951018539711868,-1.144426642252256
1677618681728904,0.7782101167315432,0.5340657663844013,-1.052872510872021
1677618681744880,0.8087281605248791,0.5340657663844013,-1.1139085984588064
1677618681760857,0.7782101167315432,0.5645838101777372,-1.144426642252256
1677618681776833,0.7476920729380936,0.5340657663844013,-1.1139085984588064
1677618681792810,0.7476920729380936,0.44251163500416624,-1.1139085984588064
1677618681808776,0.8087281605248791,0.4730296787976158,-1.1139085984588064
1677618681824753,0.8392462043183286,0.5035477225909517,-1.0833905546654705
1677618681840729,0.7171740291447577,0.5340657663844013,-1.1139085984588064
1677618681856706,0.7782101167315432,0.4730296787976158,-1.0833905546654705
1677618681872682,0.8087281605248791,0.5340657663844013,-1.1139085984588064
1677618681888659,0.7782101167315432,0.5645838101777372,-1.144426642252256
1677618681904635,0.7782101167315432,0.5645838101777372,-1.144426642252256
1677618681920611,0.7782101167315432,0.5645838101777372,-1.022354467078685
1677618681936588,0.7782101167315432,0.5035477225909517,-1.052872510872021
1677618681952564,0.7476920729380936,0.5035477225909517,-1.052872510872021
1677618681968541,0.7782101167315432,0.4730296787976158,-1.0833905546654705
1677618681984517,0.7782101167315432,0.5035477225909517,-1.0833905546654705
1677618682000494,0.7476920729380936,0.5645838101777372,-1.1139085984588064
1677618682016470,0.7171740291447577,0.5340657663844013,-1.022354467078685
1677618682032446,0.8087281605248791,0.4730296787976158,-1.0833905546654705
1677618682048423,0.8392462043183286,0.5035477225909517,-1.144426642252256
1677618682064399,0.7476920729380936,0.5035477225909517,-1.1139085984588064
1677618682080376,0.7476920729380936,0.5645838101777372,-1.0833905546654705
1677618682096352,0.7171740291447577,0.5645838101777372,-1.144426642252256
1677618682112329,0.7476920729380936,0.5340657663844013,-1.144426642252256
1677618682128296,0.8087281605248791,0.5340657663844013,-1.0833905546654705
1677618682144272,0.8087281605248791,0.5340657663844013,-1.0833905546654705
1677618682160248,0.8392462043183286,0.5340657663844013,-1.022354467078685
1677618682176225,0.7476920729380936,0.5340657663844013,-1.052872510872021
1677618682192201,0.7782101167315432,0.5951018539711868,-1.052872510872021
1677618682208178,0.8087281605248791,0.5340657663844013,-1.052872510872021
1677618682224154,0.7782101167315432,0.5035477225909517,-1.1139085984588064
1677618682240131,0.8087281605248791,0.5951018539711868,-1.1139085984588064
1677618682256107,0.8087281605248791,0.5645838101777372,-1.1139085984588064
1677618682272083,0.7476920729380936,0.5951018539711868,-1.144426642252256
1677618682288060,0.7476920729380936,0.5951018539711868,-1.1139085984588064
1677618682304036,0.7171740291447577,0.5645838101777372,-1.1139085984588064
1677618682320013,0.7171740291447577,0.5035477225909517,-1.1139085984588064
1677618682335989,0.7476920729380936,0.5340657663844013,-1.144426642252256
1677618682351966,0.8392462043183286,0.5340657663844013,-1.144426642252256
1677618682367942,0.8087281605248791,0.5340657663844013,-1.1139085984588064
1677618682383918,0.8087281605248791,0.4730296787976158,-1.052872510872021
1677618682399895,0.8392462043183286,0.5035477225909517,-1.052872510872021
1677618682415871,0.7476920729380936,0.5340657663844013,-1.144426642252256
1677618682431848,0.7171740291447577,0.5645838101777372,-1.0833905546654705
1677618682447815,0.7782101167315432,0.5035477225909517,-1.052872510872021
1677618682463791,0.7782101167315432,0.5340657663844013,-1.0833905546654705
1677618682479767,0.7476920729380936,0.5951018539711868,-1.1139085984588064
1677618682495744,0.8087281605248791,0.5645838101777372,-1.1139085984588064
1677618682511720,0.8087281605248791,0.5035477225909517,-1.1139085984588064
1677618682527697,0.7782101167315432,0.5035477225909517,-1.144426642252256
1677618682543673,0.7782101167315432,0.5035477225909517,-1.1139085984588064
1677618682559650,0.7782101167315432,0.5035477225909517,-1.1139085984588064
1677618682575626,0.8392462043183286,0.5340657663844013,-1.0833905546654705
1677618682591602,0.8087281605248791,0.5645838101777372,-1.1139085984588064
1677618682607579,0.7782101167315432,0.5645838101777372,-1.0833905546654705
1677618682623555,0.7782101167315432,0.5340657663844013,-1.1139085984588064
1677618682639532,0.7476920729380936,0.5951018539711868,-1.144426642252256
1677618682655508,0.7476920729380936,0.5035477225909517,-1.1139085984588064
1677618682671485,0.7171740291447577,0.5340657663844013,-1.1139085984588064
1677618682687461,0.7782101167315432,0.5035477225909517,-1.1139085984588064
1677618682703437,0.7782101167315432,0.5035477225909517,-1.052872510872021
1677618682719414,0.7782101167315432,0.5340657663844013,-1.1139085984588064
1677618682735390,0.7782101167315432,0.5645838101777372,-1.1139085984588064
1677618682751367,0.7782101167315432,0.5645838101777372,-1.1139085984588064
1677618682767334,0.7782101167315432,0.5340657663844013,-1.144426642252256
1677618682783310,0.7782101167315432,0.5035477225909517,-1.1749446860455919
1677618682799286,0.8087281605248791,0.5340657663844013,-1.144426642252256
1677618682815263,0.8697642481116645,0.5645838101777372,-1.1139085984588064
1677618682831239,0.8087281605248791,0.5340657663844013,-1.0833905546654705
1677618682847216,0.7782101167315432,0.5340657663844013,-1.1139085984588064
1677618682863192,0.7476920729380936,0.5645838101777372,-1.1139085984588064
1677618682879169,0.7476920729380936,0.5951018539711868,-1.0833905546654705
1677618682895145,0.7782101167315432,0.5035477225909517,-1.052872510872021
1677618682911121,0.7782101167315432,0.5340657663844013,-1.0833905546654705
1677618682927098,0.7782101167315432,0.4730296787976158,-1.1139085984588064
1677618682943074,0.8087281605248791,0.5035477225909517,-1.1139085984588064
1677618682959051,0.8087281605248791,0.5035477225909517,-1.0833905546654705
1677618682975027,0.8087281605248791,0.5340657663844013,-1.052872510872021
1677618682991004,0.7476920729380936,0.5645838101777372,-1.1139085984588064
1677618683006980,0.8087281605248791,0.5645838101777372,-1.1139085984588064
1677618683022956,0.7476920729380936,0.4730296787976158,-1.144426642252256
1677618683038933,0.7782101167315432,0.5035477225909517,-1.144426642252256
1677618683054909,0.7782101167315432,0.5340657663844013,-1.1139085984588064
1677618683070886,0.7782101167315432,0.5340657663844013,-1.1139085984588064
1677618683086853,0.7476920729380936,0.5035477225909517,-1.1139085984588064
1677618683102829,0.7782101167315432,0.5645838101777372,-1.1139085984588064
1677618683118806,0.7782101167315432,0.5035477225909517,-1.0833905546654705
1677618683134782,0.7171740291447577,0.5035477225909517,-1.1139085984588064
1677618683150758,0.8087281605248791,0.5340657663844013,-1.1139085984588064
1677618683166735,0.8392462043183286,0.5645838101777372,-1.0833905546654705
1677618683182711,0.7782101167315432,0.5340657663844013,-1.144426642252256
1677618683198688,0.8392462043183286,0.5645838101777372,-1.0833905546654705
1677618683214664,0.8087281605248791,0.5035477225909517,-1.0833905546654705
1677618683230641,0.7171740291447577,0.5035477225909517,-1.1139085984588064
1677618683246617,0.6866559853513081,0.5340657663844013,-1.144426642252256
1677618683262593,0.6561379415579722,0.5340657663844013,-1.144426642252256
1677618683278570,0.8087281605248791,0.5340657663844013,-1.1139085984588064
1677618683294546,0.7782101167315432,0.5645838101777372,-1.1139085984588064
1677618683310523,0.8087281605248791,0.5340657663844013,-1.0833905546654705
1677618683326499,0.8087281605248791,0.5340657663844013,-1.052872510872021
1677618683342476,0.8087281605248791,0.5340657663844013,-1.1139085984588064
1677618683358452,0.7476920729380936,0.5035477225909517,-1.1139085984588064
1677618683374428,0.7476920729380936,0.5340657663844013,-1.144426642252256
1677618683390405,0.7782101167315432,0.5340657663844013,-1.1139085984588064
1677618683406372,0.8087281605248791,0.5340657663844013,-1.1139085984588064
1677618683422348,0.8087281605248791,0.5340657663844013,-1.144426642252256
1677618683438325,0.7476920729380936,0.5645838101777372,-1.1139085984588064
1677618683454301,0.7476920729380936,0.5645838101777372,-1.1749446860455919
1677618683470277,0.7171740291447577,0.4730296787976158,-1.144426642252256
1677618683486254,0.7782101167315432,0.4730296787976158,-1.1139085984588064
1677618683502230,0.8087281605248791,0.5035477225909517,-1.1139085984588064
1677618683518207,0.7782101167315432,0.5340657663844013,-1.0833905546654705
1677618683534183,0.7782101167315432,0.5035477225909517,-1.1139085984588064
1677618683550160,0.7782101167315432,0.5340657663844013,-1.0833905546654705
1677618683566136,0.7782101167315432,0.5951018539711868,-1.144426642252256
1677618683582112,0.7476920729380936,0.5645838101777372,-1.1139085984588064
1677618683598089,0.8087281605248791,0.5340657663844013,-1.0833905546654705
1677618683614065,0.7476920729380936,0.5951018539711868,-1.0833905546654705
1677618683630042,0.7476920729380936,0.5340657663844013,-1.1139085984588064
1677618683646018,0.8087281605248791,0.5951018539711868,-1.0833905546654705
1677618683661995,0.8392462043183286,0.5035477225909517,-1.144426642252256
1677618683677971,0.8087281605248791,0.4730296787976158,-1.1139085984588064
1677618683693947,0.7782101167315432,0.5340657663844013,-1.1139085984588064
1677618683709924,0.7782101167315432,0.5645838101777372,-1.0833905546654705
1677618683725891,0.8087281605248791,0.5340657663844013,-1.1139085984588064
1677618683741867,0.8087281605248791,0.4730296787976158,-1.1139085984588064
1677618683757844,0.7782101167315432,0.5951018539711868,-1.1139085984588064
1677618683773820,0.7171740291447577,0.5951018539711868,-1.0833905546654705
1677618683789796,0.7476920729380936,0.5951018539711868,-1.1139085984588064
1677618683805773,0.7782101167315432,0.4730296787976158,-1.1139085984588064
1677618683821749,0.8087281605248791,0.5035477225909517,-1.0833905546654705
1677618683837726,0.8392462043183286,0.5340657663844013,-1.1139085984588064
1677618683853702,0.8087281605248791,0.5645838101777372,-1.144426642252256
1677618683869679,0.7171740291447577,0.5340657663844013,-1.1139085984588064
1677618683885655,0.8087281605248791,0.5340657663844013,-1.1749446860455919
1677618683901631,0.8087281605248791,0.5645838101777372,-1.144426642252256
1677618683917608,0.7782101167315432,0.5951018539711868,-1.1139085984588064
1677618683933584,0.8087281605248791,0.5340657663844013,-1.0833905546654705
1677618683949561,0.7476920729380936,0.5035477225909517,-1.0833905546654705
1677618683965537,0.7782101167315432,0.5645838101777372,-1.1749446860455919
1677618683981514,0.7782101167315432,0.5951018539711868,-1.144426642252256
1677618683997490,0.7476920729380936,0.5035477225909517,-1.144426642252256
1677618684013466,0.7782101167315432,0.5340657663844013,-1.0833905546654705
1677618684029443,0.7782101167315432,0.5035477225909517,-1.1139085984588064
1677618684045410,0.8087281605248791,0.5035477225909517,-1.1139085984588064
1677618684061386,0.8087281605248791,0.5035477225909517,-1.1139085984588064
1677618684077363,0.7476920729380936,0.4730296787976158,-1.1139085984588064
1677618684093339,0.7171740291447577,0.5340657663844013,-1.144426642252256
1677618684109315,0.7782101167315432,0.5340657663844013,-1.0833905546654705
1677618684125292,0.7782101167315432,0.6256198977645226,-1.1139085984588064
1677618684141268,0.7476920729380936,0.5645838101777372,-1.1139085984588064
1677618684157245,0.7782101167315432,0.5340657663844013,-1.052872510872021
1677618684173221,0.7782101167315432,0.5340657663844013,-1.0833905546654705
1677618684189198,0.8087281605248791,0.5340657663844013,-1.0833905546654705
1677618684205174,0.8392462043183286,0.5340657663844013,-1.1139085984588064
1677618684221151,0.8087281605248791,0.6256198977645226,-1.1139085984588064
1677618684237127,0.8087281605248791,0.5951018539711868,-1.144426642252256
1677618684253103,0.7476920729380936,0.5645838101777372,-1.1139085984588064
1677618684269080,0.7476920729380936,0.5645838101777372,-1.144426642252256
1677618684285056,0.7476920729380936,0.5645838101777372,-1.1749446860455919
1677618684301033,0.8087281605248791,0.5340657663844013,-1.144426642252256
1677618684317009,0.7782101167315432,0.5035477225909517,-1.144426642252256
1677618684332986,0.7476920729380936,0.5035477225909517,-1.2054627298390415
1677618684348962,0.7782101167315432,0.4730296787976158,-1.1749446860455919
1677618684364898,0.8087281605248791,0.4730296787976158,-1.1139085984588064
1677618684380874,0.7476920729380936,0.4730296787976158,-1.1139085984588064
1677618684396850,0.7782101167315432,0.5340657663844013,-1.1139085984588064
1677618684412826,0.7782101167315432,0.5645838101777372,-1.0833905546654705
1677618684428802,0.7782101167315432,0.5645838101777372,-1.144426642252256
1677618684444778,0.7782101167315432,0.5645838101777372,-1.1749446860455919
1677618684460754,0.8087281605248791,0.5035477225909517,-1.144426642252256
1677618684476730,0.7476920729380936,0.4730296787976158,-1.1139085984588064
1677618684492706,0.7782101167315432,0.5645838101777372,-1.052872510872021
1677618684508682,0.8087281605248791,0.5951018539711868,-1.0833905546654705
1677618684524658,0.7782101167315432,0.5340657663844013,-1.1139085984588064
1677618684540634,0.8087281605248791,0.5035477225909517,-1.0833905546654705
1677618684556610,0.7476920729380936,0.5645838101777372,-1.1139085984588064
1677618684572586,0.7782101167315432,0.5035477225909517,-1.1139085984588064
1677618684588562,0.7476920729380936,0.5340657663844013,-1.144426642252256
1677618684604538,0.7782101167315432,0.5340657663844013,-1.144426642252256
1677618684620514,0.7782101167315432,0.5340657663844013,-1.1749446860455919
1677618684636489,0.8087281605248791,0.5340657663844013,-1.0833905546654705
1677618684652465,0.7782101167315432,0.5035477225909517,-1.1139085984588064
1677618684668441,0.8087281605248791,0.4730296787976158,-1.0833905546654705
1677618684684417,0.8697642481116645,0.5035477225909517,-1.1139085984588064
1677618684700393,0.7782101167315432,0.5645838101777372,-1.1749446860455919
1677618684716369,0.8087281605248791,0.5645838101777372,-1.1139085984588064
1677618684732345,0.7782101167315432,0.5035477225909517,-1.0833905546654705
1677618684748321,0.7782101167315432,0.5340657663844013,-1.052872510872021
1677618684764297,0.7782101167315432,0.5035477225909517,-1.144426642252256
1677618684780273,0.8392462043183286,0.5340657663844013,-1.0833905546654705
1677618684796249,0.8087281605248791,0.5951018539711868,-1.0833905546654705
1677618684812225,0.7476920729380936,0.5340657663844013,-1.1139085984588064
1677618684828201,0.7476920729380936,0.5645838101777372,-1.144426642252256
1677618684844177,0.8087281605248791,0.5340657663844013,-1.0833905546654705
1677618684860153,0.7782101167315432,0.6256198977645226,-1.022354467078685
1677618684876129,0.7782101167315432,0.5951018539711868,-1.1139085984588064
1677618684892105,0.7782101167315432,0.5645838101777372,-1.0833905546654705
1677618684908081,0.7782101167315432,0.5645838101777372,-1.0833905546654705
1677618684924057,0.7782101167315432,0.5340657663844013,-1.144426642252256
1677618684940033,0.8087281605248791,0.5035477225909517,-1.144426642252256
1677618684956009,0.7476920729380936,0.5340657663844013,-1.1139085984588064
1677618684971984,0.7782101167315432,0.4730296787976158,-1.1139085984588064
1677618684987960,0.7782101167315432,0.4730296787976158,-1.0833905546654705
1677618685003936,0.8392462043183286,0.5340657663844013,-1.144426642252256
1677618685019912,0.8087281605248791,0.5951018539711868,-1.1139085984588064
1677618685035888,0.7782101167315432,0.5340657663844013,-1.052872510872021
1677618685051864,0.7476920729380936,0.4730296787976158,-1.1139085984588064
1677618685067840,0.7782101167315432,0.5645838101777372,-1.0833905546654705
1677618685083816,0.8087281605248791,0.5951018539711868,-1.1139085984588064
1677618685099792,0.7782101167315432,0.5951018539711868,-1.1139085984588064
1677618685115768,0.7782101167315432,0.5645838101777372,-1.144426642252256
1677618685131744,0.7782101167315432,0.5340657663844013,-1.144426642252256
1677618685147720,0.7476920729380936,0.5951018539711868,-1.1749446860455919
1677618685163696,0.7782101167315432,0.5951018539711868,-1.144426642252256
1677618685179672,0.7782101167315432,0.5645838101777372,-1.1139085984588064
1677618685195648,0.7782101167315432,0.5340657663844013,-1.144426642252256
1677618685211624,0.7782101167315432,0.5645838101777372,-1.144426642252256
1677618685227600,0.7782101167315432,0.5035477225909517,-1.1139085984588064
1677618685243576,0.8087281605248791,0.5035477225909517,-1.052872510872021
1677618685259552,0.7476920729380936,0.5035477225909517,-1.0833905546654705
1677618685275528,0.8087281605248791,0.5340657663844013,-1.0833905546654705
1677618685291504,0.8392462043183286,0.5645838101777372,-1.144426642252256
1677618685307479,0.7782101167315432,0.5340657663844013,-1.144426642252256
1677618685323455,0.7171740291447577,0.5645838101777372,-1.0833905546654705
1677618685339431,0.7476920729380936,0.5035477225909517,-1.1139085984588064
1677618685355407,0.7476920729380936,0.4730296787976158,-1.144426642252256
1677618685371383,0.8087281605248791,0.5951018539711868,-1.1139085984588064
1677618685387359,0.8087281605248791,0.5645838101777372,-1.1139085984588064
1677618685403335,0.8392462043183286,0.5035477225909517,-1.1139085984588064
1677618685419311,0.8087281605248791,0.4730296787976158,-1.0833905546654705
1677618685435287,0.8087281605248791,0.5340657663844013,-1.0833905546654705
1677618685451263,0.8087281605248791,0.5035477225909517,-1.052872510872021
1677618685467239,0.8392462043183286,0.5340657663844013,-1.1139085984588064
1677618685483215,0.8392462043183286,0.5340657663844013,-1.1139085984588064
1677618685499191,0.8087281605248791,0.5340657663844013,-1.1139085984588064
1677618685515167,0.7782101167315432,0.5340657663844013,-1.1139085984588064
1677618685531143,0.8087281605248791,0.5340657663844013,-1.0833905546654705
1677618685547119,0.7782101167315432,0.5645838101777372,-1.1139085984588064
1677618685563095,0.7476920729380936,0.5340657663844013,-1.1139085984588064
1677618685579071,0.7782101167315432,0.5645838101777372,-1.144426642252256
1677618685595047,0.7782101167315432,0.5340657663844013,-1.1139085984588064
1677618685611023,0.8087281605248791,0.4730296787976158,-1.144426642252256
1677618685626999,0.7782101167315432,0.5035477225909517,-1.144426642252256
1677618685642974,0.7782101167315432,0.5340657663844013,-1.0833905546654705
1677618685658950,0.8087281605248791,0.5645838101777372,-1.0833905546654705
1677618685674926,0.7782101167315432,0.44251163500416624,-1.0833905546654705
1677618685690902,0.7782101167315432,0.4730296787976158,-1.1139085984588064
1677618685706878,0.7476920729380936,0.5340657663844013,-1.0833905546654705
1677618685722854,0.7782101167315432,0.5340657663844013,-1.144426642252256
1677618685738830,0.8392462043183286,0.4730296787976158,-1.0833905546654705
1677618685754806,0.8392462043183286,0.5340657663844013,-1.144426642252256
1677618685770782,0.7782101167315432,0.5340657663844013,-1.1139085984588064
1677618685786758,0.7476920729380936,0.5035477225909517,-1.1139085984588064
1677618685802734,0.7171740291447577,0.5645838101777372,-1.1139085984588064
1677618685818710,0.7782101167315432,0.5951018539711868,-1.1139085984588064
1677618685834686,0.7476920729380936,0.5645838101777372,-1.0833905546654705
1677618685850662,0.7782101167315432,0.4730296787976158,-1.0833905546654705
1677618685866638,0.7476920729380936,0.5645838101777372,-1.1139085984588064
1677618685882614,0.7476920729380936,0.5951018539711868,-1.1139085984588064
1677618685898590,0.7782101167315432,0.5645838101777372,-1.0833905546654705
1677618685914566,0.7782101167315432,0.5340657663844013,-1.1139085984588064
1677618685930542,0.8087281605248791,0.5340657663844013,-1.144426642252256
1677618685946518,0.8392462043183286,0.5951018539711868,-1.1139085984588064
1677618685962494,0.8087281605248791,0.5645838101777372,-1.144426642252256
1677618685978469,0.7476920729380936,0.5645838101777372,-1.1139085984588064
1677618685994445,0.7782101167315432,0.5340657663844013,-1.1139085984588064
1677618686010421,0.7171740291447577,0.5340657663844013,-1.1139085984588064
1677618686026397,0.7782101167315432,0.5340657663844013,-1.0833905546654705
1677618686042373,0.7782101167315432,0.5951018539711868,-1.1139085984588064
1677618686058349,0.7476920729380936,0.5951018539711868,-1.1139085984588064
1677618686074325,0.6866559853513081,0.5645838101777372,-1.052872510872021
1677618686090301,0.7476920729380936,0.5035477225909517,-1.144426642252256
1677618686106277,0.8087281605248791,0.5035477225909517,-1.1139085984588064
1677618686122253,0.7171740291447577,0.5951018539711868,-1.0833905546654705
1677618686138229,0.7782101167315432,0.5340657663844013,-1.052872510872021
1677618686154205,0.8392462043183286,0.5035477225909517,-1.052872510872021
1677618686170181,0.7476920729380936,0.5340657663844013,-1.0833905546654705
1677618686186157,0.7476920729380936,0.5035477225909517,-1.1749446860455919
1677618686202133,0.7782101167315432,0.5035477225909517,-1.0833905546654705
1677618686218109,0.7782101167315432,0.5340657663844013,-1.0833905546654705
1677618686234085,0.8087281605248791,0.5645838101777372,-1.0833905546654705
1677618686250061,0.8087281605248791,0.5340657663844013,-1.1139085984588064
1677618686266037,0.7782101167315432,0.5035477225909517,-1.1139085984588064
1677618686282013,0.7782101167315432,0.5645838101777372,-1.0833905546654705
1677618686297989,0.7782101167315432,0.5340657663844013,-1.052872510872021
1677618686313964,0.8087281605248791,0.5645838101777372,-1.0833905546654705
1677618686329940,0.6866559853513081,0.5645838101777372,-1.0833905546654705
1677618686345916,0.7171740291447577,0.6256198977645226,-1.1139085984588064
1677618686361892,0.7476920729380936,0.5951018539711868,-1.1139085984588064
1677618686377868,0.8087281605248791,0.5645838101777372,-1.1139085984588064
1677618686393844,0.7476920729380936,0.5340657663844013,-1.144426642252256
1677618686409820,0.7782101167315432,0.5645838101777372,-1.144426642252256
1677618686425796,0.7476920729380936,0.5340657663844013,-1.144426642252256
1677618686441772,0.7476920729380936,0.5340657663844013,-1.052872510872021
1677618686457748,0.7476920729380936,0.5340657663844013,-1.0833905546654705
1677618686473724,0.7782101167315432,0.5340657663844013,-1.1139085984588064
1677618686489700,0.8087281605248791,0.5035477225909517,-1.1139085984588064
1677618686505676,0.8087281605248791,0.5340657663844013,-1.1139085984588064
1677618686521652,0.7782101167315432,0.5035477225909517,-1.144426642252256
1677618686537628,0.7782101167315432,0.5035477225909517,-1.144426642252256
1677618686553604,0.8087281605248791,0.5340657663844013,-1.1139085984588064
1677618686569580,0.7782101167315432,0.5645838101777372,-1.1139085984588064
1677618686585556,0.7476920729380936,0.5340657663844013,-1.052872510872021
1677618686601532,0.8087281605248791,0.5340657663844013,-1.1139085984588064
1677618686617508,0.7782101167315432,0.5340657663844013,-1.1139085984588064
1677618686633484,0.7782101167315432,0.5340657663844013,-1.052872510872021
1677618686649459,0.7171740291447577,0.5645838101777372,-1.052872510872021
1677618686665435,0.7171740291447577,0.5340657663844013,-1.144426642252256
1677618686681411,0.7782101167315432,0.5645838101777372,-1.1139085984588064
1677618686697387,0.8087281605248791,0.5340657663844013,-1.1139085984588064
1677618686713363,0.8087281605248791,0.5035477225909517,-1.0833905546654705
1677618686729339,0.7171740291447577,0.5035477225909517,-1.0833905546654705
1677618686745315,0.7476920729380936,0.6256198977645226,-1.1139085984588064
1677618686761291,0.8392462043183286,0.5035477225909517,-1.1139085984588064
1677618686777267,0.8087281605248791,0.5340657663844013,-1.1139085984588064
1677618686793243,0.8392462043183286,0.5951018539711868,-1.144426642252256
1677618686809219,0.7782101167315432,0.5645838101777372,-1.144426642252256
1677618686825195,0.7476920729380936,0.5951018539711868,-1.0833905546654705
1677618686841171,0.7782101167315432,0.5340657663844013,-1.1139085984588064
1677618686857147,0.7476920729380936,0.5035477225909517,-1.1139085984588064
1677618686873123,0.7476920729380936,0.5035477225909517,-1.144426642252256
1677618686889099,0.7476920729380936,0.5035477225909517,-1.1749446860455919
1677618686905075,0.7476920729380936,0.5035477225909517,-1.1139085984588064
1677618686921051,0.8087281605248791,0.5035477225909517,-1.144426642252256
1677618686937027,0.8392462043183286,0.5340657663844013,-1.1139085984588064
1677618686953003,0.8087281605248791,0.5645838101777372,-1.1139085984588064
1677618686968979,0.7476920729380936,0.5340657663844013,-1.144426642252256
1677618686984954,0.7476920729380936,0.5340657663844013,-1.144426642252256
1677618687000930,0.8087281605248791,0.5340657663844013,-1.144426642252256
1677618687016906,0.8087281605248791,0.5340657663844013,-1.144426642252256
1677618687032882,0.8087281605248791,0.5340657663844013,-1.144426642252256
1677618687048858,0.8392462043183286,0.5035477225909517,-1.144426642252256
1677618687064834,0.7782101167315432,0.6256198977645226,-1.144426642252256
1677618687080810,0.7782101167315432,0.5645838101777372,-1.1749446860455919
1677618687096786,0.8392462043183286,0.5645838101777372,-1.0833905546654705
1677618687112762,0.7782101167315432,0.5645838101777372,-1.0833905546654705
1677618687128738,0.7782101167315432,0.5645838101777372,-1.1139085984588064
1677618687144714,0.8697642481116645,0.5951018539711868,-1.144426642252256
1677618687160690,0.7782101167315432,0.5645838101777372,-1.052872510872021
1677618687176666,0.7171740291447577,0.5340657663844013,-1.1139085984588064
1677618687192642,0.7476920729380936,0.5035477225909517,-1.0833905546654705
1677618687208618,0.7782101167315432,0.4730296787976158,-1.052872510872021
1677618687224594,0.7782101167315432,0.5645838101777372,-1.0833905546654705
1677618687240570,0.8087281605248791,0.5645838101777372,-1.1139085984588064
1677618687256546,0.7782101167315432,0.5340657663844013,-1.1139085984588064
1677618687272522,0.8087281605248791,0.5340657663844013,-1.0833905546654705
1677618687288498,0.7782101167315432,0.5340657663844013,-1.0833905546654705
1677618687304474,0.7476920729380936,0.5340657663844013,-1.0833905546654705
1677618687320449,0.7476920729380936,0.5645838101777372,-1.144426642252256
1677618687336425,0.8087281605248791,0.6256198977645226,-1.0833905546654705
1677618687352401,0.7476920729380936,0.5645838101777372,-1.1139085984588064
1677618687368377,0.7782101167315432,0.5340657663844013,-1.0833905546654705
1677618687384353,0.7782101167315432,0.5035477225909517,-1.052872510872021
1677618687400329,0.8087281605248791,0.5340657663844013,-1.1139085984588064
1677618687416305,0.7782101167315432,0.4730296787976158,-1.144426642252256
1677618687432281,0.7476920729380936,0.5035477225909517,-1.144426642252256
1677618687448257,0.8087281605248791,0.5035477225909517,-1.1139085984588064
1677618687464233,0.8087281605248791,0.5340657663844013,-1.144426642252256
1677618687480209,0.8392462043183286,0.5340657663844013,-1.144426642252256
1677618687496185,0.8087281605248791,0.44251163500416624,-1.1139085984588064
1677618687512161,0.8087281605248791,0.5340657663844013,-1.1139085984588064
1677618687528137,0.7476920729380936,0.5340657663844013,-1.1139085984588064
1677618687544113,0.7782101167315432,0.5340657663844013,-1.0833905546654705
1677618687560058,0.7782101167315432,0.5035477225909517,-1.0833905546654705
1677618687576034,0.8087281605248791,0.5035477225909517,-1.1139085984588064
1677618687592010,0.7782101167315432,0.5340657663844013,-1.0833905546654705
1677618687607986,0.7782101167315432,0.5340657663844013,-1.052872510872021
1677618687623962,0.8087281605248791,0.5035477225909517,-1.0833905546654705
1677618687639938,0.8392462043183286,0.5645838101777372,-1.1139085984588064
1677618687655914,0.8087281605248791,0.5035477225909517,-1.052872510872021
1677618687671890,0.8087281605248791,0.5035477225909517,-1.0833905546654705
1677618687687866,0.8087281605248791,0.5340657663844013,-1.1139085984588064
1677618687703842,0.8087281605248791,0.5340657663844013,-1.0833905546654705
1677618687719818,0.7782101167315432,0.5340657663844013,-1.1139085984588064
1677618687735794,0.7782101167315432,0.5951018539711868,-1.144426642252256
1677618687751770,0.7782101167315432,0.5340657663844013,-1.1139085984588064
1677618687767746,0.8087281605248791,0.5035477225909517,-1.144426642252256
1677618687783722,0.7476920729380936,0.5340657663844013,-1.1139085984588064
1677618687799698,0.7782101167315432,0.5340657663844013,-1.1139085984588064
1677618687815673,0.7782101167315432,0.5340657663844013,-1.1749446860455919
1677618687831649,0.7476920729380936,0.5340657663844013,-1.0833905546654705
1677618687847625,0.8087281605248791,0.5645838101777372,-1.0833905546654705
1677618687863601,0.8087281605248791,0.5951018539711868,-1.144426642252256
1677618687879577,0.8087281605248791,0.5340657663844013,-1.0833905546654705
1677618687895553,0.7782101167315432,0.5340657663844013,-1.1139085984588064
1677618687911529,0.8392462043183286,0.5035477225909517,-1.0833905546654705
1677618687927505,0.8087281605248791,0.5645838101777372,-1.0833905546654705
1677618687943481,0.7782101167315432,0.5035477225909517,-1.1139085984588064
1677618687959457,0.8087281605248791,0.5340657663844013,-1.0833905546654705
1677618687975433,0.8087281605248791,0.5340657663844013,-1.1139085984588064
1677618687991409,0.8087281605248791,0.5035477225909517,-1.1749446860455919
1677618688007385,0.8087281605248791,0.5035477225909517,-1.0833905546654705
1677618688023361,0.8087281605248791,0.5035477225909517,-1.144426642252256
1677618688039337,0.7782101167315432,0.5340657663844013,-1.144426642252256
1677618688055313,0.8087281605248791,0.6256198977645226,-1.1139085984588064
1677618688071289,0.8087281605248791,0.5035477225909517,-1.1139085984588064
1677618688087265,0.8087281605248791,0.5035477225909517,-1.052872510872021
1677618688103241,0.7171740291447577,0.5035477225909517,-1.052872510872021
1677618688119217,0.7782101167315432,0.5645838101777372,-1.1139085984588064
1677618688135192,0.7782101167315432,0.5645838101777372,-1.144426642252256
1677618688151168,0.7476920729380936,0.6256198977645226,-1.144426642252256
1677618688167144,0.7171740291447577,0.5645838101777372,-1.1749446860455919
1677618688183120,0.7782101167315432,0.5645838101777372,-1.1749446860455919
1677618688199096,0.7782101167315432,0.5645838101777372,-1.0833905546654705
1677618688215072,0.7782101167315432,0.5645838101777372,-1.144426642252256
1677618688231048,0.7171740291447577,0.5340657663844013,-1.0833905546654705
1677618688247024,0.8087281605248791,0.5340657663844013,-1.0833905546654705
1677618688263000,0.8087281605248791,0.5035477225909517,-1.1139085984588064
1677618688278976,0.7782101167315432,0.5645838101777372,-1.144426642252256
1677618688294952,0.7476920729380936,0.5035477225909517,-1.144426642252256
1677618688310928,0.7782101167315432,0.5340657663844013,-1.0833905546654705
1677618688326904,0.8087281605248791,0.5645838101777372,-1.1139085984588064
1677618688342880,0.7476920729380936,0.5035477225909517,-1.0833905546654705
1677618688358856,0.8392462043183286,0.5035477225909517,-1.0833905546654705
1677618688374832,0.8087281605248791,0.5340657663844013,-1.0833905546654705
1677618688390808,0.7782101167315432,0.5645838101777372,-1.0833905546654705
1677618688406784,0.7171740291447577,0.5645838101777372,-1.1139085984588064
1677618688422760,0.6866559853513081,0.5340657663844013,-1.144426642252256
1677618688438736,0.7782101167315432,0.5035477225909517,-1.1139085984588064
1677618688454712,0.8087281605248791,0.5340657663844013,-1.1139085984588064
1677618688470687,0.7782101167315432,0.5645838101777372,-1.1139085984588064
1677618688486663,0.7171740291447577,0.5951018539711868,-1.1139085984588064
1677618688502639,0.7782101167315432,0.5645838101777372,-1.1139085984588064
1677618688518615,0.7476920729380936,0.5340657663844013,-1.0833905546654705
1677618688534591,0.7476920729380936,0.5035477225909517,-1.1139085984588064
1677618688550567,0.7782101167315432,0.5340657663844013,-1.144426642252256
1677618688566543,0.7782101167315432,0.5340657663844013,-1.144426642252256
1677618688582519,0.8087281605248791,0.5951018539711868,-1.0833905546654705
1677618688598495,0.8087281605248791,0.5340657663844013,-1.0833905546654705
1677618688614471,0.7476920729380936,0.5340657663844013,-1.0833905546654705
1677618688630447,0.7782101167315432,0.5340657663844013,-1.1139085984588064
1677618688646423,0.8087281605248791,0.5035477225909517,-1.1139085984588064
1677618688662399,0.8087281605248791,0.4730296787976158,-1.0833905546654705
1677618688678375,0.8087281605248791,0.5035477225909517,-1.1139085984588064
1677618688694351,0.7782101167315432,0.5645838101777372,-1.022354467078685
1677618688710327,0.8392462043183286,0.5340657663844013,-1.052872510872021
1677618688726303,0.8087281605248791,0.5340657663844013,-1.1139085984588064
1677618688742279,0.8087281605248791,0.5340657663844013,-1.1139085984588064
1677618688758255,0.7782101167315432,0.5035477225909517,-1.1139085984588064
1677618688774231,0.7782101167315432,0.5035477225909517,-1.144426642252256
1677618688790207,0.7476920729380936,0.4730296787976158,-1.0833905546654705
1677618688806182,0.7171740291447577,0.5340657663844013,-1.1139085984588064
1677618688822158,0.7171740291447577,0.5951018539711868,-1.1139085984588064
1677618688838104,0.7476920729380936,0.5340657663844013,-1.0833905546654705
1677618688854080,0.7171740291447577,0.5035477225909517,-1.0833905546654705
1677618688870056,0.7476920729380936,0.5340657663844013,-1.1139085984588064
1677618688886032,0.7171740291447577,0.5340657663844013,-1.144426642252256
1677618688902008,0.7782101167315432,0.5645838101777372,-1.144426642252256
1677618688917984,0.7782101167315432,0.5035477225909517,-1.144426642252256
1677618688933960,0.7782101167315432,0.5035477225909517,-1.1749446860455919
1677618688949936,0.7782101167315432,0.4730296787976158,-1.1139085984588064
1677618688965911,0.7476920729380936,0.5035477225909517,-1.1139085984588064
1677618688981887,0.7476920729380936,0.5340657663844013,-1.0833905546654705
1677618688997863,0.7782101167315432,0.5645838101777372,-1.0833905546654705
1677618689013839,0.8392462043183286,0.5645838101777372,-1.0833905546654705
1677618689029815,0.7782101167315432,0.5340657663844013,-1.1139085984588064
1677618689045791,0.7476920729380936,0.5035477225909517,-1.1139085984588064
1677618689061767,0.7782101167315432,0.5035477225909517,-1.1139085984588064
1677618689077743,0.7782101167315432,0.5645838101777372,-1.1139085984588064
1677618689093719,0.7782101167315432,0.6256198977645226,-1.0833905546654705
1677618689109695,0.7476920729380936,0.5951018539711868,-1.144426642252256
1677618689125671,0.7476920729380936,0.5340657663844013,-1.052872510872021
1677618689141647,0.7476920729380936,0.5340657663844013,-1.1139085984588064
1677618689157623,0.7782101167315432,0.5645838101777372,-1.0833905546654705
1677618689173599,0.8087281605248791,0.5340657663844013,-1.1139085984588064
1677618689189575,0.7476920729380936,0.5645838101777372,-1.144426642252256
1677618689205551,0.7476920729380936,0.5951018539711868,-1.1139085984588064
1677618689221527,0.7782101167315432,0.5340657663844013,-1.1139085984588064
1677618689237503,0.8087281605248791,0.5340657663844013,-1.0833905546654705
1677618689253479,0.7782101167315432,0.5035477225909517,-1.0833905546654705
1677618689269455,0.8087281605248791,0.5951018539711868,-1.1749446860455919
1677618689285431,0.7782101167315432,0.5951018539711868,-1.1139085984588064
1677618689301406,0.7782101167315432,0.5645838101777372,-1.1139085984588064
1677618689317382,0.8087281605248791,0.5340657663844013,-1.1139085984588064
1677618689333358,0.7171740291447577,0.5340657663844013,-1.144426642252256
1677618689349334,0.7782101167315432,0.5340657663844013,-1.1139085984588064
1677618689365310,0.7782101167315432,0.44251163500416624,-1.1139085984588064
1677618689381286,0.8392462043183286,0.4730296787976158,-1.1139085984588064
1677618689397262,0.8087281605248791,0.5645838101777372,-1.1139085984588064
1677618689413238,0.7782101167315432,0.5951018539711868,-1.0833905546654705
1677618689429214,0.7782101167315432,0.5340657663844013,-1.0833905546654705
1677618689445190,0.7476920729380936,0.5340657663844013,-1.1139085984588064
1677618689461166,0.8392462043183286,0.5035477225909517,-1.1139085984588064
1677618689477142,0.7171740291447577,0.5035477225909517,-1.144426642252256
1677618689493118,0.7476920729380936,0.5340657663844013,-1.1139085984588064
1677618689509094,0.7476920729380936,0.5035477225909517,-1.0833905546654705
1677618689525070,0.7782101167315432,0.5035477225909517,-1.0833905546654705
1677618689541046,0.8087281605248791,0.5340657663844013,-1.052872510872021
1677618689557022,0.8087281605248791,0.5035477225909517,-1.0833905546654705
1677618689572998,0.7782101167315432,0.5951018539711868,-1.1749446860455919
1677618689588974,0.7782101167315432,0.5035477225909517,-1.0833905546654705
1677618689604950,0.7782101167315432,0.5340657663844013,-1.1139085984588064
1677618689620926,0.7782101167315432,0.5035477225909517,-1.0833905546654705
1677618689636901,0.7782101167315432,0.5645838101777372,-1.1139085984588064
1677618689652877,0.7476920729380936,0.5035477225909517,-1.0833905546654705
1677618689668853,0.8087281605248791,0.5035477225909517,-1.1139085984588064
1677618689684829,0.8087281605248791,0.5035477225909517,-1.1139085984588064
1677618689700805,0.7782101167315432,0.4730296787976158,-1.0833905546654705
1677618689716781,0.8087281605248791,0.4730296787976158,-1.0833905546654705
1677618689732757,0.7782101167315432,0.5340657663844013,-1.0833905546654705
1677618689748733,0.8392462043183286,0.5645838101777372,-1.144426642252256
1677618689764709,0.8087281605248791,0.5340657663844013,-1.1139085984588064
1677618689780685,0.7782101167315432,0.5340657663844013,-1.1139085984588064
1677618689796661,0.7476920729380936,0.5035477225909517,-1.052872510872021
1677618689812637,0.7171740291447577,0.5035477225909517,-1.0833905546654705
1677618689828613,0.7476920729380936,0.5035477225909517,-1.144426642252256
1677618689844589,0.8087281605248791,0.5035477225909517,-1.0833905546654705
1677618689860565,0.8392462043183286,0.4730296787976158,-1.144426642252256
1677618689876541,0.7782101167315432,0.5035477225909517,-1.1749446860455919
1677618689892517,0.7476920729380936,0.5035477225909517,-1.144426642252256
1677618689908493,0.7171740291447577,0.5645838101777372,-1.144426642252256
1677618689924469,0.7476920729380936,0.5645838101777372,-1.1139085984588064
1677618689940445,0.7476920729380936,0.5340657663844013,-1.0833905546654705
1677618689956421,0.7476920729380936,0.4730296787976158,-1.0833905546654705
1677618689972396,0.7476920729380936,0.4730296787976158,-1.144426642252256
1677618689988372,0.8392462043183286,0.5340657663844013,-1.0833905546654705
1677618690004348,0.8087281605248791,0.5340657663844013,-1.0833905546654705
1677618690020324,0.7782101167315432,0.4730296787976158,-1.1139085984588064
1677618690036300,0.8087281605248791,0.5035477225909517,-1.0833905546654705
1677618690052276,0.8392462043183286,0.5035477225909517,-1.1139085984588064
1677618690068252,0.7782101167315432,0.5035477225909517,-1.144426642252256
1677618690084228,0.8087281605248791,0.5645838101777372,-1.0833905546654705
1677618690100204,0.7782101167315432,0.5645838101777372,-1.1139085984588064
1677618690116180,0.7476920729380936,0.5951018539711868,-1.144426642252256
1677618690132156,0.7782101167315432,0.5340657663844013,-1.144426642252256
1677618690148132,0.7782101167315432,0.5340657663844013,-1.0833905546654705
1677618690164108,0.8087281605248791,0.5645838101777372,-1.0833905546654705
1677618690180084,0.7476920729380936,0.5645838101777372,-1.1139085984588064
1677618690196060,0.7476920729380936,0.5340657663844013,-1.1139085984588064
1677618690212036,0.8087281605248791,0.5645838101777372,-1.1139085984588064
1677618690228012,0.8697642481116645,0.5340657663844013,-1.1139085984588064
1677618690243988,0.7782101167315432,0.5340657663844013,-1.1139085984588064
1677618690259964,0.7476920729380936,0.4730296787976158,-1.0833905546654705
1677618690275940,0.7476920729380936,0.4730296787976158,-1.144426642252256
1677618690291916,0.7476920729380936,0.5340657663844013,-1.0833905546654705
1677618690307891,0.7782101167315432,0.5035477225909517,-1.1139085984588064
1677618690323867,0.8087281605248791,0.5035477225909517,-1.1139085984588064
1677618690339843,0.7782101167315432,0.5645838101777372,-1.0833905546654705
1677618690355819,0.7782101167315432,0.5340657663844013,-1.1139085984588064
1677618690371795,0.8392462043183286,0.5645838101777372,-1.1139085984588064
1677618690387771,0.8392462043183286,0.5645838101777372,-1.1139085984588064
1677618690403747,0.7782101167315432,0.5340657663844013,-1.1139085984588064
1677618690419723,0.7782101167315432,0.5035477225909517,-1.1139085984588064
1677618690435699,0.7782101167315432,0.4730296787976158,-1.1139085984588064
1677618690451675,0.7782101167315432,0.5035477225909517,-1.1139085984588064
1677618690467651,0.8087281605248791,0.5340657663844013,-1.1139085984588064
1677618690483627,0.7171740291447577,0.5645838101777372,-1.1139085984588064
1677618690499603,0.8392462043183286,0.5340657663844013,-1.144426642252256
1677618690515579,0.7782101167315432,0.5340657663844013,-1.0833905546654705
1677618690531555,0.7476920729380936,0.5035477225909517,-1.0833905546654705
1677618690547531,0.6866559853513081,0.5035477225909517,-1.0833905546654705
1677618690563507,0.8087281605248791,0.4730296787976158,-1.1139085984588064
1677618690579483,0.8087281605248791,0.5340657663844013,-1.0833905546654705
1677618690595459,0.8392462043183286,0.5951018539711868,-1.1139085984588064
1677618690611435,0.7782101167315432,0.5035477225909517,-1.144426642252256
1677618690627411,0.7782101167315432,0.5645838101777372,-1.1139085984588064
1677618690643386,0.7476920729380936,0.5035477225909517,-1.0833905546654705
1677618690659362,0.7782101167315432,0.5340657663844013,-1.0833905546654705
1677618690675338,0.8087281605248791,0.5340657663844013,-1.1139085984588064
1677618690691314,0.8087281605248791,0.5035477225909517,-1.1139085984588064
1677618690707290,0.8087281605248791,0.5340657663844013,-1.0833905546654705
1677618690723266,0.8087281605248791,0.5645838101777372,-1.0833905546654705
1677618690739242,0.8392462043183286,0.5035477225909517,-1.1139085984588064
1677618690755218,0.8697642481116645,0.5340657663844013,-1.0833905546654705
1677618690771194,0.8087281605248791,0.5340657663844013,-1.1139085984588064
1677618690787170,0.7782101167315432,0.5340657663844013,-1.0833905546654705
1677618690803146,0.7782101167315432,0.5035477225909517,-1.144426642252256
1677618690819122,0.7171740291447577,0.5340657663844013,-1.1749446860455919
1677618690835098,0.8087281605248791,0.5340657663844013,-1.144426642252256
1677618690851074,0.7782101167315432,0.5645838101777372,-1.144426642252256
1677618690867050,0.7782101167315432,0.5645838101777372,-1.1749446860455919
1677618690883026,0.8697642481116645,0.5340657663844013,-1.1139085984588064
1677618690899002,0.8392462043183286,0.5035477225909517,-1.0833905546654705
1677618690914978,0.7782101167315432,0.5035477225909517,-1.144426642252256
1677618690930954,0.7171740291447577,0.5340657663844013,-1.144426642252256
1677618690946930,0.7171740291447577,0.5340657663844013,-1.1139085984588064
1677618690962906,0.7476920729380936,0.5035477225909517,-1.144426642252256
1677618690978881,0.8087281605248791,0.5035477225909517,-1.1139085984588064
1677618690994857,0.7782101167315432,0.5645838101777372,-1.1139085984588064
1677618691010833,0.8392462043183286,0.5645838101777372,-1.144426642252256
1677618691026809,0.8392462043183286,0.5951018539711868,-1.1139085984588064
1677618691042785,0.7782101167315432,0.5035477225909517,-1.1139085984588064
1677618691058761,0.7476920729380936,0.5645838101777372,-1.1139085984588064
1677618691074737,0.7782101167315432,0.5340657663844013,-1.0833905546654705
1677618691090713,0.7782101167315432,0.4730296787976158,-1.052872510872021
1677618691106689,0.8392462043183286,0.4730296787976158,-1.0833905546654705
1677618691122665,0.8087281605248791,0.5035477225909517,-1.0833905546654705
1677618691138641,0.7782101167315432,0.44251163500416624,-1.1139085984588064
1677618691154617,0.8087281605248791,0.5951018539711868,-1.1139085984588064
1677618691170593,0.7782101167315432,0.5340657663844013,-1.144426642252256
1677618691186569,0.7782101167315432,0.5340657663844013,-1.144426642252256
1677618691202545,0.8087281605248791,0.5645838101777372,-1.0833905546654705
1677618691218521,0.8087281605248791,0.5035477225909517,-1.022354467078685
1677618691234497,0.7782101167315432,0.5035477225909517,-1.052872510872021
1677618691250473,0.8087281605248791,0.4730296787976158,-1.0833905546654705
1677618691266449,0.7476920729380936,0.5035477225909517,-1.144426642252256
1677618691282425,0.8087281605248791,0.5340657663844013,-1.0833905546654705
1677618691298401,0.8392462043183286,0.5035477225909517,-1.0833905546654705
1677618691314376,0.7782101167315432,0.5035477225909517,-1.1139085984588064
1677618691330352,0.7171740291447577,0.5340657663844013,-1.0833905546654705
1677618691346328,0.7782101167315432,0.5035477225909517,-1.052872510872021
1677618691362304,0.7782101167315432,0.5340657663844013,-1.022354467078685
1677618691378280,0.8087281605248791,0.5035477225909517,-1.052872510872021
1677618691394256,0.8087281605248791,0.5645838101777372,-1.0833905546654705
1677618691410232,0.7171740291447577,0.5035477225909517,-1.144426642252256
1677618691426208,0.7782101167315432,0.4730296787976158,-1.1139085984588064
1677618691442184,0.8392462043183286,0.5035477225909517,-1.144426642252256
1677618691458160,0.8087281605248791,0.5035477225909517,-1.1749446860455919
1677618691474136,0.8087281605248791,0.5340657663844013,-1.1139085984588064
1677618691490112,0.8087281605248791,0.5035477225909517,-1.1139085984588064
1677618691506088,0.8392462043183286,0.4730296787976158,-1.0833905546654705
1677618691522064,0.8087281605248791,0.5035477225909517,-1.0833905546654705
1677618691538040,0.7782101167315432,0.5035477225909517,-1.1139085984588064
1677618691554016,0.7782101167315432,0.5645838101777372,-1.1749446860455919
1677618691569992,0.8392462043183286,0.5645838101777372,-1.144426642252256
1677618691585968,0.8392462043183286,0.5340657663844013,-1.1139085984588064
1677618691601944,0.8392462043183286,0.5340657663844013,-1.0833905546654705
1677618691617920,0.8087281605248791,0.5340657663844013,-1.1139085984588064
1677618691633895,0.7171740291447577,0.5035477225909517,-1.1749446860455919
1677618691649871,0.7476920729380936,0.5951018539711868,-1.144426642252256
1677618691665847,0.8087281605248791,0.5645838101777372,-1.1139085984588064
1677618691681823,0.7476920729380936,0.5645838101777372,-1.0833905546654705
1677618691697799,0.8087281605248791,0.6256198977645226,-1.1139085984588064
1677618691713775,0.8087281605248791,0.5340657663844013,-1.0833905546654705
1677618691729751,0.8392462043183286,0.5340657663844013,-1.0833905546654705
1677618691745727,0.8087281605248791,0.5340657663844013,-1.0833905546654705
1677618691761703,0.7782101167315432,0.5340657663844013,-1.0833905546654705
1677618691777679,0.7782101167315432,0.5951018539711868,-1.1139085984588064
1677618691793655,0.7782101167315432,0.5340657663844013,-1.1139085984588064
1677618691809631,0.8087281605248791,0.5035477225909517,-1.1139085984588064
1677618691825607,0.8087281605248791,0.5035477225909517,-1.052872510872021
1677618691841583,0.8392462043183286,0.5645838101777372,-1.0833905546654705
1677618691857559,0.8392462043183286,0.5340657663844013,-1.144426642252256
1677618691873535,0.8697642481116645,0.5340657663844013,-1.1139085984588064
1677618691889511,0.7782101167315432,0.5035477225909517,-1.0833905546654705
1677618691905487,0.7782101167315432,0.5645838101777372,-1.052872510872021
1677618691921463,0.7476920729380936,0.5645838101777372,-1.052872510872021
1677618691937439,0.8087281605248791,0.5035477225909517,-1.0833905546654705
1677618691953415,0.8087281605248791,0.6561379415579722,-1.0833905546654705
1677618691969390,0.8087281605248791,0.5645838101777372,-1.144426642252256
1677618691985366,0.8087281605248791,0.5340657663844013,-1.0833905546654705
1677618692001342,0.7476920729380936,0.5645838101777372,-1.0833905546654705
1677618692017318,0.7171740291447577,0.5340657663844013,-1.0833905546654705
1677618692033294,0.7782101167315432,0.5340657663844013,-1.1139085984588064
1677618692049270,0.7476920729380936,0.5035477225909517,-1.1139085984588064
1677618692065246,0.7476920729380936,0.5340657663844013,-1.144426642252256
1677618692081222,0.8392462043183286,0.6256198977645226,-1.144426642252256
1677618692097198,0.7782101167315432,0.5340657663844013,-1.144426642252256
1677618692113174,0.7476920729380936,0.5340657663844013,-1.0833905546654705
1677618692129150,0.7171740291447577,0.5340657663844013,-1.144426642252256
1677618692145126,0.8392462043183286,0.5035477225909517,-1.1139085984588064
1677618692161102,0.8392462043183286,0.5340657663844013,-1.144426642252256
1677618692177078,0.7782101167315432,0.5340657663844013,-1.1139085984588064
1677618692193054,0.8087281605248791,0.5340657663844013,-1.1139085984588064
1677618692209030,0.8087281605248791,0.5340657663844013,-1.0833905546654705
1677618692225006,0.8087281605248791,0.5340657663844013,-1.0833905546654705
1677618692240982,0.8087281605248791,0.5645838101777372,-1.0833905546654705
1677618692256958,0.8087281605248791,0.5645838101777372,-1.1139085984588064
1677618692272934,0.8087281605248791,0.5645838101777372,-1.0833905546654705
1677618692288910,0.7476920729380936,0.5035477225909517,-1.1139085984588064
1677618692304885,0.8087281605248791,0.5035477225909517,-1.1139085984588064
1677618692320861,0.7782101167315432,0.5035477225909517,-1.0833905546654705
1677618692336837,0.7476920729380936,0.5035477225909517,-1.022354467078685
1677618692352813,0.7171740291447577,0.5035477225909517,-1.052872510872021
1677618692368789,0.7476920729380936,0.5035477225909517,-1.144426642252256
1677618692384765,0.7476920729380936,0.5035477225909517,-1.1139085984588064
1677618692400741,0.7171740291447577,0.44251163500416624,-1.1139085984588064
1677618692416717,0.7171740291447577,0.4730296787976158,-1.1139085984588064
1677618692432693,0.7476920729380936,0.5645838101777372,-1.1139085984588064
1677618692448669,0.7476920729380936,0.5340657663844013,-1.144426642252256
1677618692464645,0.7476920729380936,0.5951018539711868,-1.144426642252256
1677618692480621,0.8087281605248791,0.5951018539711868,-1.1139085984588064
1677618692496597,0.7782101167315432,0.5951018539711868,-1.144426642252256
1677618692512573,0.8087281605248791,0.5645838101777372,-1.144426642252256
1677618692528549,0.8087281605248791,0.5035477225909517,-1.1139085984588064
1677618692544525,0.8392462043183286,0.5035477225909517,-1.1139085984588064
1677618692560501,0.7476920729380936,0.5340657663844013,-1.1749446860455919
1677618692576477,0.7171740291447577,0.5340657663844013,-1.1139085984588064
1677618692592453,0.7476920729380936,0.5645838101777372,-1.1749446860455919
1677618692608429,0.7782101167315432,0.5951018539711868,-1.1749446860455919
1677618692624405,0.8392462043183286,0.5645838101777372,-1.144426642252256
1677618692640380,0.8087281605248791,0.5645838101777372,-1.1139085984588064
1677618692656356,0.7782101167315432,0.5645838101777372,-1.052872510872021
1677618692672332,0.7171740291447577,0.5645838101777372,-1.1139085984588064
1677618692688308,0.7782101167315432,0.5645838101777372,-1.1139085984588064
1677618692704284,0.8087281605248791,0.5340657663844013,-1.0833905546654705
1677618692720260,0.7782101167315432,0.5951018539711868,-1.144426642252256
1677618692736236,0.7782101167315432,0.5035477225909517,-1.0833905546654705
1677618692752212,0.7782101167315432,0.5340657663844013,-1.0833905546654705
1677618692768188,0.7782101167315432,0.5951018539711868,-1.1139085984588064
1677618692784164,0.8087281605248791,0.5340657663844013,-1.1139085984588064
1677618692800140,0.7782101167315432,0.5340657663844013,-1.1139085984588064
1677618692816116,0.7782101167315432,0.5645838101777372,-1.144426642252256
1677618692832092,0.8697642481116645,0.5951018539711868,-1.1139085984588064
1677618692848068,0.8392462043183286,0.5951018539711868,-1.1139085984588064
1677618692864044,0.7782101167315432,0.5340657663844013,-1.0833905546654705
1677618692880020,0.7476920729380936,0.5645838101777372,-1.1139085984588064
1677618692895996,0.8392462043183286,0.5340657663844013,-1.144426642252256
1677618692911972,0.7476920729380936,0.5035477225909517,-1.1139085984588064
1677618692927948,0.8087281605248791,0.4730296787976158,-1.0833905546654705
1677618692943924,0.8087281605248791,0.5340657663844013,-1.0833905546654705
1677618692959900,0.8392462043183286,0.5340657663844013,-1.0833905546654705
1677618692975875,0.8087281605248791,0.5340657663844013,-1.0833905546654705
1677618692991851,0.7782101167315432,0.5340657663844013,-1.1139085984588064
1677618693007827,0.8087281605248791,0.5645838101777372,-1.144426642252256
1677618693023803,0.8392462043183286,0.5645838101777372,-1.0833905546654705
1677618693039779,0.7782101167315432,0.5340657663844013,-1.1139085984588064
1677618693055755,0.7171740291447577,0.5645838101777372,-1.0833905546654705
1677618693071731,0.7476920729380936,0.5340657663844013,-1.1749446860455919
1677618693087707,0.7476920729380936,0.5340657663844013,-1.1139085984588064
1677618693103683,0.7476920729380936,0.5340657663844013,-1.144426642252256
1677618693119659,0.8087281605248791,0.4730296787976158,-1.1139085984588064
1677618693135635,0.7782101167315432,0.5645838101777372,-1.2054627298390415
1677618693151611,0.7782101167315432,0.5645838101777372,-1.1139085984588064
1677618693167587,0.7782101167315432,0.5645838101777372,-1.1139085984588064
1677618693183563,0.7476920729380936,0.5035477225909517,-1.1139085984588064
1677618693199539,0.7782101167315432,0.5340657663844013,-1.1139085984588064
1677618693215515,0.7782101167315432,0.5645838101777372,-1.1139085984588064
1677618693231491,0.8087281605248791,0.5645838101777372,-1.1749446860455919
1677618693247467,0.7782101167315432,0.5951018539711868,-1.0833905546654705
1677618693263443,0.7782101167315432,0.5645838101777372,-1.1749446860455919
1677618693279419,0.7782101167315432,0.5340657663844013,-1.1139085984588064
1677618693295395,0.7782101167315432,0.5645838101777372,-1.1139085984588064
1677618693311340,0.7171740291447577,0.5035477225909517,-1.1749446860455919
1677618693327316,0.7782101167315432,0.5035477225909517,-1.144426642252256
1677618693343292,0.7171740291447577,0.5035477225909517,-1.1139085984588064
1677618693359268,0.7476920729380936,0.5340657663844013,-1.144426642252256
