Timestamp (microseconds),Accel X (g),Accel Y (g),Accel Z (g)
1679688390801880,-0.9088883802548255,0.38275730525673346,0.09185931181811213
1679688390817875,-0.9099870298313877,0.3909361409933627,0.08624399176012787
1679688390833870,-0.9165789272907605,0.41266498817425834,0.07757686732280433
1679688390849865,-0.9359884031433583,0.44281681544213036,0.09344625009536855
1679688390865860,-0.9370870527199204,0.4157167925535976,0.09246967269397999
1679688390881855,-0.9585717555504694,0.3921568627450984,0.10931563286793278
1679688390897850,-0.9638208590829329,0.3637140459296555,0.11798275730525631
1679688390913845,-0.9573510337987337,0.3537041275654227,0.12298771648737272
1679688390929840,-0.9494163424124515,0.32355230029755067,0.12872510872053144
1679688390945835,-0.9328145265888454,0.2993820096131836,0.13971160448615283
1679688390961830,-0.9228046082246126,0.2991378652628365,0.14801251239795565
1679688390977825,-0.9120622568093384,0.29083695735103365,0.1432516975661864
1679688390993820,-0.9080338750286105,0.2991378652628365,0.13153276874952358
1679688391009815,-0.9129167620355534,0.310368505378805,0.12384222171358772
1679688391025810,-0.9285420004577705,0.32745860990310494,0.11871519035629774
1679688391041805,-0.948439765011063,0.3419851987487599,0.13275349050125929
1679688391057800,-0.9645532921339743,0.343938353551537,0.14508278019378995
1679688391073795,-0.9534447241931794,0.3258716716258485,0.1620508125429163
1679688391089790,-0.9328145265888454,0.3010910200656136,0.15509269855802277
1679688391105785,-0.9109636072327763,0.279362172884718,0.14044403753719426
1679688391121765,-0.905348287174792,0.27228198672465087,0.1419089036392771
1679688391137760,-0.913038834210727,0.2800946059357594,0.14373998626688067
1679688391153755,-0.9313496604867626,0.3141527428091857,0.14142061493858282
1679688391169750,-0.9522240024414437,0.3712825207904169,0.12750438696879574
1679688391185745,-0.9530785076676587,0.39667353322652055,0.11261158159761919
1679688391201740,-0.9405050736247809,0.3783627069504849,0.09832913710231139
1679688391217735,-0.9273212787060348,0.351628900587472,0.09112687876707071
1679688391233730,-0.9219501029983976,0.3344167238879985,0.09100480659189714
1679688391249725,-0.9251239795529105,0.3318532082093535,0.09527733272297212
1679688391265720,-0.9401388570992602,0.349065384908827,0.10699626153963493
1679688391281715,-0.9445334554055087,0.3566338597695884,0.10675211718928779
1679688391297710,-0.9466086823834594,0.3657892729076062,0.09539940489814569
1679688391313705,-0.9396505683985659,0.36981765468833405,0.0844129091325243
1679688391329700,-0.9359884031433583,0.37189288166628476,0.0814831769283586
1679688391345695,-0.9341573205157547,0.3709163042648962,0.08429083695735073
1679688391361690,-0.931227588311589,0.36481269550621764,0.08795300221255786
1679688391377685,-0.9318379491874569,0.3649347676813912,0.09417868314640998
1679688391393680,-0.9325703822384983,0.3650568398565648,0.09503318837262498
1679688391409675,-0.9336690318150604,0.3642023346303498,0.09027237354085571
1679688391425670,-0.9352559700923169,0.36188296330205194,0.0869764248111693
1679688391441681,-0.932936598764019,0.3640802624551762,0.07379262989242363
1679688391457676,-0.9297627222095062,0.3638361181048291,0.06866559853513365
1679688391473671,-0.9315938048371097,0.3570000762951091,0.07757686732280433
1679688391489666,-0.9330586709391926,0.3519951171129927,0.08514534218356573
1679688391505661,-0.9356221866178376,0.3506523231860834,0.0852674143587393
1679688391521656,-0.9335469596398869,0.3544365606164641,0.08599984740978073
1679688391537651,-0.9333028152895397,0.3565117875944148,0.08087281605249075
1679688391553646,-0.932936598764019,0.3532158388647284,0.08551155870908644
1679688391569641,-0.9368429083695733,0.35297169451438126,0.08722056916151644
1679688391585636,-0.9384298466468302,0.35126268406195127,0.08905165178912
1679688391601631,-0.9386739909971773,0.350774395361257,0.09076066224155
1679688391617626,-0.9357442587930112,0.35053025101090984,0.09002822919050857
1679688391633621,-0.933791103990234,0.34967574578469485,0.08929579613946714
1679688391649616,-0.9326924544136719,0.350774395361257,0.08880750743877286
1679688391665611,-0.9357442587930112,0.3502861066605627,0.08563363088426001
1679688391681606,-0.9384298466468302,0.35089646753643056,0.08392462043183002
1679688391697601,-0.9374532692454411,0.3495536736095213,0.08856336308842572
1679688391713596,-0.9347676813916226,0.3511406118867777,0.08380254825665645
1679688391729591,-0.9311055161364155,0.3562676432440677,0.07428091859311792
1679688391745586,-0.9300068665598533,0.3578545815213241,0.07733272297245719
1679688391761322,-0.9326924544136719,0.3607843137254898,0.07586785687037434
1679688391777316,-0.9311055161364155,0.3571221484702827,0.07721065079728362
1679688391793310,-0.9325703822384983,0.35223926146333984,0.08746471351186358
1679688391809304,-0.9313496604867626,0.34076447699702417,0.088197146562905
1679688391825298,-0.933791103990234,0.3402761882963299,0.09271381704432713
1679688391841292,-0.9387960631723509,0.34174105439841274,0.09405661097123641
1679688391857286,-0.9368429083695733,0.3486991683833063,0.089906157015335
1679688391873280,-0.9350118257419697,0.352483405813687,0.08929579613946714
1679688391889274,-0.9313496604867626,0.35761043717097696,0.08783093003738429
1679688391905268,-0.9296406500343326,0.35260547798886055,0.08307011520561502
1679688391921262,-0.9292744335088119,0.3587090867475391,0.0739147020675972
1679688391937256,-0.931227588311589,0.3729915312428469,0.0709849698634315
1679688391953251,-0.9322041657129776,0.37653162432288134,0.06561379415579438
1679688391969245,-0.9361104753185319,0.3800717174029149,0.06744487678339794
1679688391985239,-0.9319600213626305,0.3788509956511792,0.07000839246204293
1679688392001233,-0.9290302891584648,0.3747005416952769,0.06939803158617508
1679688392017227,-0.9248798352025633,0.3729915312428469,0.06561379415579438
1679688392033221,-0.9236591134508276,0.37152666514076405,0.06610208285648866
1679688392049215,-0.9258564126039519,0.37360189211871475,0.06475928892957938
1679688392065209,-0.9268329900053405,0.3754329747463192,0.06793316548409223
1679688392080932,-0.9284199282825969,0.37238117036697904,0.07171740291447293
1679688392096925,-0.9325703822384983,0.37018387121385476,0.0701304646372165
1679688392112918,-0.9324483100633247,0.3692072938124662,0.0689097428854808
1679688392128912,-0.9304951552605476,0.3679865720607305,0.06866559853513365
1679688392144905,-0.9296406500343326,0.3678644998855569,0.07367055771725006
1679688392160898,-0.9221942473487448,0.3699397268635076,0.07257190814068792
1679688392176891,-0.9230487525749598,0.3688410772869455,0.07672236209658934
1679688392192884,-0.914747844663157,0.36823071641107763,0.07342641336690292
1679688392208877,-0.9254901960784312,0.3690852216372926,0.07208361943999364
1679688392224870,-0.9309834439612419,0.37116044861524333,0.07135118638895221
1679688392240863,-0.9401388570992602,0.3725032425421526,0.06829938200961294
1679688392256857,-0.943312733653773,0.3725032425421526,0.06353856717784367
1679688392272850,-0.9391622796978716,0.36859693293659834,0.06317235065232296
1679688392288843,-0.9289082169832912,0.3678644998855569,0.06463721675440581
1679688392304836,-0.9317158770122833,0.3638361181048291,0.0634164950026701
1679688392320829,-0.9280537117570762,0.3671320668345155,0.060975051499198685
1679688392336822,-0.9318379491874569,0.36859693293659834,0.059754329747462975
1679688392352815,-0.9297627222095062,0.3695735103379869,0.06195162890058725
1679688392368808,-0.9280537117570762,0.3683527885862512,0.062195773250934394
1679688392384801,-0.9267109178301669,0.37116044861524333,0.06073090714885154
1679688392400512,-0.9223163195239183,0.3676203555352098,0.06366063935301725
1679688392416504,-0.9223163195239183,0.3705500877393755,0.06146334019989297
1679688392432496,-0.9268329900053405,0.3688410772869455,0.0651255054551001
1679688392448487,-0.927809567406729,0.3714045929655905,0.06024261844815726
1679688392464479,-0.930373083085374,0.36359197375448193,0.06024261844815726
1679688392480471,-0.9275654230563819,0.36346990157930836,0.06414892805371153
1679688392496462,-0.9182879377431905,0.36151674677653123,0.06121919584954583
1679688392512454,-0.9237811856260012,0.3738460364690619,0.061097123674372256
1679688392528446,-0.9314717326619362,0.3717708094911112,0.05743495841916513
1679688392544438,-0.9358663309681847,0.3687190051117719,0.059754329747462975
1679688392560429,-0.9397726405737394,0.3657892729076062,0.05865568017090084
1679688392576421,-0.9356221866178376,0.3671320668345155,0.05157549401083372
1679688392592413,-0.9348897535667962,0.3688410772869455,0.046692607003890885
1679688392608404,-0.9228046082246126,0.3716487373159376,0.048157473105973736
1679688392624396,-0.9071793698023956,0.3671320668345155,0.048157473105973736
1679688392640388,-0.8832532234683756,0.35797665369649767,0.01995880064087885
1679688392656379,-0.8960708018616006,0.35846494239719195,0.013855191882200302
1679688392672371,-0.9225604638742655,0.3628595407034405,0.02276646066987098
1679688392688363,-0.9528343633173115,0.37067215991454905,0.03936827649347663
1679688392704354,-0.9453879606317237,0.35797665369649767,0.03057907988097952
1679688392720092,-0.9672388799877929,0.345647364003967,0.04827954528114731
1679688392736083,-0.9704127565423057,0.3435721370260163,0.05535973144121442
1679688392752074,-0.9453879606317237,0.3449149309529256,0.029602502479590953
1679688392768065,-0.927809567406729,0.34637979705500843,5.493247882810692E-4
1679688392784055,-0.9284199282825969,0.35089646753643056,-0.00970473792629889
1679688392800046,-0.9293965056839855,0.3497978179598684,-0.007385366598001042
1679688392816037,-0.9431906614785994,0.34833295185778557,0.008117799649042468
1679688392832028,-0.9489280537117573,0.3457694361791406,0.02020294499122599
1679688392848018,-0.9512474250400551,0.3373464560921642,0.019836728465705278
1679688392864009,-0.9517357137407494,0.3356374456397342,0.015442130159456724
1679688392880000,-0.9494163424124515,0.3411306935225449,0.002746623941405346
1679688392895990,-0.9499046311131458,0.3363698786907756,-6.103608758678547E-5
1679688392911981,-0.9522240024414437,0.3363698786907756,-6.713969634546402E-4
1679688392927972,-0.9512474250400551,0.3394216830701149,0.001037613488975353
1679688392943963,-0.950148775463493,0.33966582742046203,0.00457770656900891
1679688392959953,-0.9505149919890137,0.341374837872892,-0.0017700465400167786
1679688392975944,-0.943312733653773,0.34088654917219774,-0.019104295414663852
1679688392991935,-0.9483176928358894,0.3423514152742806,-0.031067368581673804
1679688393007926,-0.9478294041351951,0.34625772487983486,-0.0357061112382695
1679688393023916,-0.9495384145876251,0.3427176317998013,-0.03814755474174092
1679688393039703,-0.9506370641641873,0.3419851987487599,-0.039124132143129486
1679688393055693,-0.949294270237278,0.3410086213473713,-0.04766918440527945
1679688393071683,-0.9523460746166172,0.3397878995956356,-0.038757915617608774
1679688393087672,-0.9477073319600215,0.3401541161211563,-0.029724574654764524
1679688393103662,-0.9418478675516901,0.3401541161211563,-0.024963759822995257
1679688393119652,-0.9431906614785994,0.3414969100480656,-0.024841687647821686
1679688393135642,-0.9246356908522162,0.34259555962462773,-0.03155565728236809
1679688393151631,-0.9037613488975356,0.3548027771419848,-0.0386358434424352
1679688393167621,-0.9180437933928434,0.36639963378347407,-0.0365606164644845
1679688393183611,-0.942458228427558,0.35724422064545625,-0.02032501716639956
1679688393199601,-0.930373083085374,0.3591973754482334,-0.0036011291676203427
1679688393215591,-0.9185320820935376,0.3477225909819177,0.013855191882200302
1679688393231580,-0.9196307316700998,0.33490501258869276,0.015320057984283153
1679688393247570,-0.9213397421225298,0.3461356527046613,0.004699778744182481
1679688393263560,-0.9307392996108947,0.3504081788357363,0.004943923094529623
1679688393279550,-0.9435568780041201,0.3545586327916377,0.0026245517662317752
1679688393295539,-0.947585259784848,0.34882124055847985,6.103608758678547E-5
1679688393311529,-0.9459983215075916,0.33954375524528846,-0.0017700465400167786
1679688393327519,-0.9435568780041201,0.3314869916838328,-0.0060425726710917615
1679688393343509,-0.936354619668879,0.3367360952162963,-0.0039673456931410556
1679688393359253,-0.9335469596398869,0.3468680857557027,0.0038452735179674846
1679688393375241,-0.9251239795529105,0.34882124055847985,-0.002746623941405346
1679688393391230,-0.9250019073777369,0.3478446631570913,-0.01641870756084529
1679688393407219,-0.9335469596398869,0.3515068284122984,-0.030823224231326662
1679688393423208,-0.947585259784848,0.35883115892271267,-0.03595025558861664
1679688393439197,-0.9601586938277258,0.35468070496681126,-0.026916914625772392
1679688393455186,-0.9479514763103687,0.35016403448538913,-0.017883573662928143
1679688393471174,-0.9315938048371097,0.3440604257267106,-0.009216449225604606
1679688393487163,-0.9265888456549933,0.3305104142824442,-0.001037613488975353
1679688393503152,-0.9275654230563819,0.3368581673914699,-0.008728160524910322
1679688393519141,-0.9387960631723509,0.3561455710688941,-0.024963759822995257
1679688393535130,-0.9369649805447469,0.36346990157930836,-0.035217822537575216
1679688393551118,-0.9420920119020373,0.3683527885862512,-0.036194399938963784
1679688393567107,-0.9435568780041201,0.3678644998855569,-0.024475471122300974
1679688393583096,-0.9375753414206152,0.3587090867475391,-0.014099336232547444
1679688393599085,-0.9334248874647133,0.3518730449378191,-0.010315098802166744
1679688393615074,-0.9326924544136719,0.348210879682612,-0.007995727473868897
1679688393631063,-0.9323262378881512,0.3486991683833063,-0.007019150072480329
1679688393647051,-0.931227588311589,0.3495536736095213,-0.004943923094529623
1679688393663040,-0.9359884031433583,0.34760051880674414,-0.005188067444876765
1679688393678863,-0.936354619668879,0.3452811474784463,-0.00579842832074462
1679688393694852,-0.9365987640192261,0.34467078660257844,-0.006775005722133187
1679688393710840,-0.938185702296483,0.3461356527046613,-0.004455634393835339
1679688393726828,-0.939894712748913,0.34552529182879343,-5.493247882810692E-4
1679688393742817,-0.9420920119020373,0.3468680857557027,-9.15541313801782E-4
1679688393758805,-0.9400167849240866,0.34918745708400056,-0.00579842832074462
1679688393774793,-0.9365987640192261,0.352483405813687,-0.015075913633936011
1679688393790782,-0.9311055161364155,0.35895323109788624,-0.028625925078202386
1679688393806770,-0.9334248874647133,0.3620050354772255,-0.03314259555962451
1679688393822758,-0.9367208361943997,0.3621271076523991,-0.029846646829938095
1679688393838747,-0.9429465171282523,0.35687800411993553,-0.02288853284504455
1679688393854735,-0.9473411154345008,0.35138475623712484,-0.02020294499122599
1679688393870723,-0.9419699397268637,0.3468680857557027,-0.020569161516746703
1679688393886712,-0.9359884031433583,0.34845502403295914,-0.020569161516746703
1679688393902700,-0.9304951552605476,0.3557793545433734,-0.023254749370565264
1679688393918688,-0.9304951552605476,0.3594415197985805,-0.02130159456778813
1679688393934677,-0.930373083085374,0.3621271076523991,-0.017273212787060288
1679688393950665,-0.924391546501869,0.3640802624551762,-0.00836194399938961
1679688393966653,-0.9165789272907605,0.3649347676813912,0.003112840466926059
1679688393982642,-0.9136491950865948,0.36432440680552336,0.003112840466926059
1679688393998413,-0.9181658655680169,0.36188296330205194,3.0518043793392735E-4
1679688394014400,-0.9208514534218355,0.35846494239719195,-0.00579842832074462
1679688394030388,-0.9311055161364155,0.35797665369649767,-0.005432211795223907
1679688394046375,-0.9428244449530787,0.3562676432440677,-0.002746623941405346
1679688394062362,-0.951857785915923,0.349919890135042,0.006286717021438903
1679688394078350,-0.9529564354924851,0.3461356527046613,0.010437170977340315
1679688394094337,-0.9478294041351951,0.34833295185778557,1.831082627603564E-4
1679688394110324,-0.9386739909971773,0.3548027771419848,-0.010803387502861028
1679688394126312,-0.9296406500343326,0.3578545815213241,-0.02020294499122599
1679688394142299,-0.9298847943846797,0.35797665369649767,-0.018005645838101714
1679688394158287,-0.930373083085374,0.36151674677653123,-0.016784924086366004
1679688394174274,-0.9351338979171433,0.36054016937514266,-0.004699778744182481
1679688394190261,-0.934645609216449,0.36066224155031623,0.00323491264209963
1679688394206249,-0.9345235370412754,0.35846494239719195,0.011535820553902454
1679688394222236,-0.9311055161364155,0.35773250934615053,0.0020141908903639205
1679688394238224,-0.931227588311589,0.36261539635309337,-0.006286717021438903
1679688394254211,-0.9336690318150604,0.3628595407034405,-0.006652933546959616
1679688394270198,-0.9351338979171433,0.3657892729076062,-0.0039673456931410556
1679688394286186,-0.9347676813916226,0.36273746852826694,-0.0014038300144960658
1679688394302173,-0.9330586709391926,0.36066224155031623,0.0020141908903639205
1679688394317993,-0.931227588311589,0.3629816128786141,0.0020141908903639205
1679688394333980,-0.9328145265888454,0.36688792248416835,5.493247882810692E-4
1679688394349967,-0.9325703822384983,0.3670099946593419,4.272526131074983E-4
1679688394365954,-0.9339131761654076,0.36737621118486263,0.0012817578393224949
1679688394381940,-0.9408712901503016,0.3692072938124662,-0.0039673456931410556
1679688394397927,-0.9384298466468302,0.36932936598763977,-0.006286717021438903
1679688394413914,-0.9307392996108947,0.3661554894331269,5.493247882810692E-4
1679688394429901,-0.9268329900053405,0.3670099946593419,0.0016479743648432077
1679688394445888,-0.9253681239032576,0.3671320668345155,0.0025024795910582043
1679688394461875,-0.9256122682536048,0.36737621118486263,-0.0012817578393224949
1679688394477862,-0.9264667734798198,0.37103837644006976,-0.0020141908903639205
1679688394493849,-0.9265888456549933,0.37494468604562403,-0.004821850919356052
1679688394509836,-0.9281757839322498,0.37409018081940903,-6.713969634546402E-4
1679688394525823,-0.9300068665598533,0.3709163042648962,0.003479056992446772
1679688394541810,-0.9330586709391926,0.37067215991454905,0.007385366598001042
1679688394557797,-0.9356221866178376,0.3699397268635076,0.010070954451819603
1679688394573783,-0.9353780422674904,0.36945143816281334,0.008239871824216038
1679688394589770,-0.9273212787060348,0.3734798199435412,0.006408789196612474
1679688394605757,-0.9241474021515219,0.37409018081940903,0.004455634393835339
1679688394621744,-0.9207293812466619,0.3757991912718399,0.0037232013427939137
1679688394637573,-0.9220721751735712,0.3755550469214928,0.008728160524910322
1679688394653559,-0.9248798352025633,0.37445639734492975,0.011535820553902454
1679688394669545,-0.9271992065308612,0.3747005416952769,0.01361104753185316
1679688394685531,-0.927809567406729,0.37531090257114563,0.014343480582894585
1679688394701517,-0.9284199282825969,0.3747005416952769,0.008850232700083893
1679688394717503,-0.924391546501869,0.37811856260013776,0.006897077897306758
1679688394733489,-0.9245136186770426,0.3788509956511792,0.0060425726710917615
1679688394749475,-0.9236591134508276,0.3776302738994435,0.006530861371786045
1679688394765461,-0.926100556954299,0.3766536964980549,0.006408789196612474
1679688394781447,-0.9281757839322498,0.3745784695201033,0.00982681010147246
1679688394797433,-0.9293965056839855,0.37396810864423546,0.01104753185320817
1679688394813418,-0.9280537117570762,0.3750667582207985,0.014099336232547444
1679688394829404,-0.9270771343556876,0.3757991912718399,0.011291676203555312
1679688394845390,-0.928664072632944,0.37811856260013776,0.002990768291752488
1679688394861376,-0.9287861448081176,0.37946135652704704,-0.002746623941405346
1679688394877362,-0.9271992065308612,0.37860685130083205,0.0026245517662317752
1679688394893348,-0.9254901960784312,0.3737239642938883,0.008239871824216038
1679688394909334,-0.926955062180514,0.37225909819180547,0.014343480582894585
1679688394925320,-0.9291523613336383,0.37225909819180547,0.01886015106431671
1679688394941306,-0.932082093537804,0.37360189211871475,0.0214236667429617
1679688394957153,-0.9318379491874569,0.3805600061036092,0.012756542305638163
1679688394973138,-0.9264667734798198,0.3834897383077749,0.005920500495918191
1679688394989124,-0.9251239795529105,0.38117036697947704,0.007385366598001042
1679688395005109,-0.9262226291294726,0.38031586175326204,0.0061646448462653325
1679688395021095,-0.9300068665598533,0.37824063477531134,0.007263294422827471
1679688395037080,-0.9325703822384983,0.3792172121766999,0.010315098802166744
1679688395053066,-0.932082093537804,0.37994964522774133,0.011657892729076025
1679688395069051,-0.9275654230563819,0.3834897383077749,0.012146181429770309
1679688395085037,-0.9223163195239183,0.383733882658122,0.003112840466926059
1679688395101022,-0.9137712672617684,0.38666361486228773,-0.005676356145571049
1679688395117008,-0.9084000915541313,0.3843442435339899,-0.0021362630655374915
1679688395132993,-0.9137712672617684,0.37824063477531134,0.007263294422827471
1679688395148979,-0.927809567406729,0.3747005416952769,0.026306553749904538
1679688395164964,-0.9383077744716566,0.3721370260166319,0.040222781719691625
1679688395180950,-0.9313496604867626,0.3738460364690619,0.04107728694590662
1679688395196935,-0.926100556954299,0.3771419851987492,0.03265430685893023
1679688395212921,-0.9206073090714884,0.38068207827878275,0.018005645838101714
1679688395228906,-0.9259784847791255,0.39252307927061914,0.0039673456931410556
1679688395244892,-0.9235370412756541,0.391424429694057,-0.015808346684977437
1679688395260877,-0.9195086594949262,0.3900816357671477,-0.015686274509803866
1679688395276733,-0.9231708247501333,0.38410009918364274,-0.006530861371786045
1679688395292718,-0.9324483100633247,0.37067215991454905,4.272526131074983E-4
1679688395308703,-0.9290302891584648,0.34760051880674414,0.0017700465400167786
1679688395324688,-0.9206073090714884,0.31818112458991354,0.009216449225604606
1679688395340673,-0.9163347829404134,0.3267261768520635,0.015442130159456724
1679688395356658,-0.891676203555352,0.3451590753032727,-0.06671244373235696
1679688395372643,-0.8871595330739299,0.43915465018692323,-0.10919356069275965
1679688395388628,-0.9162127107652398,0.41388570992599405,-0.0394903486686502
1679688395404613,-0.9486839093614101,0.38666361486228773,0.03668268863965807
1679688395420598,-0.9606469825284201,0.41266498817425834,0.04510566872663446
1679688395436583,-0.9392843518730452,0.42938887617303756,0.005310139620050336
1679688395452568,-0.913893339436942,0.4072938124666212,-0.03302052338445094
1679688395468553,-0.913893339436942,0.38410009918364274,-0.046814679179064456
1679688395484538,-0.9317158770122833,0.3952086671244377,-0.03411917296101308
1679688395500523,-0.9413595788509959,0.39240100709544556,-0.03265430685893023
1679688395516508,-0.9339131761654076,0.37604333562218706,-0.03826962691691449
1679688395532493,-0.9254901960784312,0.37311360341802047,-0.03997863736934448
1679688395548478,-0.9220721751735712,0.37482261387045046,-0.03729304951552592
1679688395564463,-0.9173113603418019,0.3742122529945826,-0.03814755474174092
1679688395580448,-0.9152361333638512,0.3793392843518735,-0.04486152437628732
1679688395596313,-0.9228046082246126,0.38031586175326204,-0.050720988784618726
1679688395612298,-0.931227588311589,0.3766536964980549,-0.052918287937743
1679688395628282,-0.9315938048371097,0.3716487373159376,-0.04864576180666802
1679688395644267,-0.9291523613336383,0.3707942320897226,-0.028503852903028815
1679688395660251,-0.9228046082246126,0.3674982833600362,-0.009460593575951748
1679688395676236,-0.9098649576562141,0.36151674677653123,-0.011169604028381741
1679688395692220,-0.907911802853437,0.3667658503089948,-0.024353398947127403
1679688395708205,-0.9184100099183641,0.38068207827878275,-0.038879987792782345
1679688395724189,-0.9248798352025633,0.3872739757381556,-0.046814679179064456
1679688395740174,-0.9275654230563819,0.3883726253147177,-0.04864576180666802
1679688395756158,-0.9275654230563819,0.3864194705119406,-0.03204394598306237
1679688395772143,-0.9192645151445791,0.3721370260166319,-0.017761501487754572
1679688395788128,-0.911329823758297,0.36823071641107763,-0.01751735713740743
1679688395804112,-0.9049820706492713,0.37323567559319404,-0.03070115205615309
1679688395820097,-0.8955825131609063,0.3775082017242699,-0.03436331731136022
1679688395836081,-0.8991226062409399,0.3726253147173262,-0.026184481574730967
1679688395852066,-0.9191424429694055,0.37824063477531134,-0.02655069810025168
1679688395868050,-0.9579613946746015,0.3864194705119406,-0.04449530785076661
1679688395884035,-0.9530785076676587,0.3952086671244377,-0.06671244373235696
1679688395900019,-0.943312733653773,0.3936217288471813,-0.06439307240405912
1679688395915893,-0.9317158770122833,0.38019378957808847,-0.043030441748683756
1679688395931877,-0.9275654230563819,0.36652170595864764,-0.03558403906309593
1679688395947861,-0.9341573205157547,0.37067215991454905,-0.05255207141222229
1679688395963845,-0.9296406500343326,0.3714045929655905,-0.06292820630197626
1679688395979829,-0.9317158770122833,0.3726253147173262,-0.05743495841916513
1679688395995813,-0.9289082169832912,0.3690852216372926,-0.04766918440527945
1679688396011798,-0.9319600213626305,0.37018387121385476,-0.04498359655146089
1679688396027782,-0.9297627222095062,0.37360189211871475,-0.062317845426107965
1679688396043766,-0.9356221866178376,0.37860685130083205,-0.07269398031586194
1679688396059750,-0.9417257953765166,0.37824063477531134,-0.06292820630197626
1679688396075734,-0.9387960631723509,0.3754329747463192,-0.0499885557335773
1679688396091718,-0.9311055161364155,0.3734798199435412,-0.045593957427328746
1679688396107702,-0.9234149691004805,0.37274738689249975,-0.047913328755626594
1679688396123686,-0.9197528038452734,0.37616540779736063,-0.045471885252155175
1679688396139670,-0.9235370412756541,0.37360189211871475,-0.03985656519417091
1679688396155654,-0.9108415350576027,0.3734798199435412,-0.03314259555962451
1679688396171638,-0.8994888227664606,0.37274738689249975,-0.02423132677195383
1679688396187622,-0.8915541313801785,0.3755550469214928,-0.016540779736018862
1679688396203606,-0.897657740138857,0.3812924391546506,-0.015442130159456724
1679688396219590,-0.8946059357595177,0.37067215991454905,-0.02423132677195383
1679688396235473,-0.8996108949416342,0.36737621118486263,-0.018249790188448856
1679688396251457,-0.9086442359044784,0.3743343251697562,-0.013244831006332447
1679688396267440,-0.900221255817502,0.3699397268635076,-0.03070115205615309
1679688396283424,-0.8966811627374685,0.3607843137254898,-0.03851377126726163
1679688396299408,-0.9214618142977034,0.3875181200885027,-0.037659266041046635
1679688396315391,-0.9361104753185319,0.39533073929961127,-0.03936827649347663
1679688396331375,-0.9298847943846797,0.385442893110552,-0.058289463645380124
1679688396347358,-0.9341573205157547,0.385442893110552,-0.06842145418478696
1679688396363342,-0.9468528267338066,0.3876401922636763,-0.07855344472419334
1679688396379325,-0.9463645380331123,0.3825131609063863,-0.07965209430075548
1679688396395309,-0.9472190432593273,0.3787289234760056,-0.08538948653391332
1679688396411293,-0.9456321049820708,0.3788509956511792,-0.09747463187609684
1679688396427276,-0.9457541771572444,0.3776302738994435,-0.10077058060578326
1679688396443260,-0.9342793926909283,0.3750667582207985,-0.09991607537956826
1679688396459243,-0.9273212787060348,0.3747005416952769,-0.10370031280994896
1679688396475227,-0.9258564126039519,0.37567711909666635,-0.10443274586099038
1679688396491211,-0.9258564126039519,0.37494468604562403,-0.10077058060578326
1679688396507194,-0.9263447013046462,0.37640955214770777,-0.09625391012436113
1679688396523178,-0.9268329900053405,0.3762874799725342,-0.08831921873807902
1679688396539161,-0.9267109178301669,0.37775234607461705,-0.08661020828564903
1679688396555053,-0.9223163195239183,0.3767757686732285,-0.07867551689936692
1679688396571036,-0.9193865873197526,0.37689784084840205,-0.07171740291447337
1679688396587020,-0.9182879377431905,0.3750667582207985,-0.06585793850614197
1679688396603003,-0.9167009994659341,0.37531090257114563,-0.05560387579156156
1679688396618986,-0.9145037003128098,0.37409018081940903,-0.04901197833218873
1679688396634969,-0.9115739681086441,0.37531090257114563,-0.045593957427328746
1679688396650952,-0.911329823758297,0.37604333562218706,-0.04827954528114731
1679688396666935,-0.9152361333638512,0.3770199130235756,-0.05035477225909801
1679688396682918,-0.9168230716411077,0.37567711909666635,-0.05523765926604085
1679688396698901,-0.9191424429694055,0.37775234607461705,-0.05267414358739586
1679688396714884,-0.9219501029983976,0.3788509956511792,-0.05535973144121442
1679688396730867,-0.9225604638742655,0.3784847791256585,-0.06268406195162912
1679688396746851,-0.9214618142977034,0.3795834287022206,-0.06549172198062125
1679688396762834,-0.9185320820935376,0.38019378957808847,-0.07086289768825837
1679688396778817,-0.9199969481956205,0.3771419851987492,-0.0736705577172505
1679688396794800,-0.9217059586480505,0.3755550469214928,-0.07342641336690336
1679688396810783,-0.9263447013046462,0.37494468604562403,-0.08099488822766476
1679688396826766,-0.9293965056839855,0.3725032425421526,-0.0879530022125583
1679688396842749,-0.9293965056839855,0.3700617990386812,-0.09076066224155044
1679688396858732,-0.9311055161364155,0.3709163042648962,-0.09039444571602973
1679688396874603,-0.9285420004577705,0.37201495384145833,-0.09308003356984829
1679688396890586,-0.9274433508812083,0.3716487373159376,-0.09198138399328615
1679688396906568,-0.9241474021515219,0.36945143816281334,-0.08844129091325259
1679688396922551,-0.9240253299763483,0.37152666514076405,-0.08661020828564903
1679688396938533,-0.9225604638742655,0.37323567559319404,-0.08612191958495474
1679688396954516,-0.9217059586480505,0.3737239642938883,-0.08343633173113618
1679688396970499,-0.9245136186770426,0.37225909819180547,-0.08075074387731762
1679688396986481,-0.9275654230563819,0.3734798199435412,-0.0733043411917298
1679688397002464,-0.9271992065308612,0.37238117036697904,-0.06964217593652267
1679688397018447,-0.9250019073777369,0.37225909819180547,-0.0686655985351341
1679688397034429,-0.924391546501869,0.3728694590676733,-0.06805523765926624
1679688397050412,-0.9202410925459676,0.3733577477683676,-0.0631723506523234
1679688397066394,-0.9176775768673227,0.3729915312428469,-0.059876401922636546
1679688397082377,-0.9177996490424962,0.3721370260166319,-0.057190814068817986
1679688397098360,-0.9182879377431905,0.3726253147173262,-0.06060883497367797
1679688397114342,-0.9228046082246126,0.3733577477683676,-0.062317845426107965
1679688397130325,-0.9190203707942319,0.3745784695201033,-0.06378271152819126
1679688397146308,-0.9208514534218355,0.3754329747463192,-0.06475928892957983
1679688397162290,-0.9215838864728769,0.3759212634470135,-0.06646829938200982
1679688397178273,-0.9217059586480505,0.3788509956511792,-0.06939803158617552
1679688397194213,-0.9232928969253069,0.3838559548332956,-0.07086289768825837
1679688397210196,-0.9229266803997862,0.383733882658122,-0.07428091859311836
1679688397226179,-0.9232928969253069,0.3833676661326013,-0.07342641336690336
1679688397242161,-0.9184100099183641,0.38275730525673346,-0.07977416647592905
1679688397258144,-0.9159685664148927,0.3851987487602049,-0.08038452735179691
1679688397274127,-0.9176775768673227,0.388006408789197,-0.07794308384832549
1679688397290109,-0.915602349889372,0.38788433661402344,-0.07306019684138265
1679688397306092,-0.9170672159914548,0.39069199664301557,-0.07269398031586194
1679688397322075,-0.9190203707942319,0.39252307927061914,-0.07293812466620908
1679688397338057,-0.9177996490424962,0.39166857404440414,-0.07208361943999408
1679688397354040,-0.9107194628824291,0.38910505836575915,-0.07293812466620908
1679688397370022,-0.9149919890135041,0.39240100709544556,-0.06927595941100195
1679688397386005,-0.9164568551155869,0.3969176775768677,-0.06366063935301769
1679688397401988,-0.9141374837872891,0.39960326543068625,-0.060852979324025114
1679688397417970,-0.9103532463569084,0.39630731670099983,-0.058289463645380124
1679688397433953,-0.9055924315251391,0.39374380102235484,-0.059876401922636546
1679688397449936,-0.9043717097734034,0.3952086671244377,-0.05902189669642155
1679688397465918,-0.9074235141527427,0.39838254367895054,-0.05938811322194226
1679688397481901,-0.9116960402838177,0.40289921416037267,-0.05743495841916513
1679688397497883,-0.9162127107652398,0.4057068741893648,-0.06341649500267055
1679688397513763,-0.9215838864728769,0.41217669947356406,-0.0657358663309684
1679688397529745,-0.9250019073777369,0.4141298542763412,-0.05535973144121442
1679688397545727,-0.9208514534218355,0.41510643167772976,-0.05352864881361086
1679688397561710,-0.907911802853437,0.40497444113832337,-0.06036469062333083
1679688397577692,-0.9046158541237506,0.4003356984817277,-0.059754329747462975
1679688397593674,-0.9033951323720149,0.4032654306858934,-0.05938811322194226
1679688397609656,-0.902784771496147,0.4120546272983905,-0.06524757763027411
1679688397625638,-0.8990005340657663,0.41803616388189546,-0.06292820630197626
1679688397641620,-0.8928969253070878,0.4182803082322426,-0.05609216449225585
1679688397657602,-0.8922865644312199,0.4216983291371026,-0.04901197833218873
1679688397673585,-0.8921644922560463,0.42230869001297044,-0.046692607003890885
1679688397689567,-0.8948500801098649,0.42059967956054045,-0.05230792706187515
1679688397705549,-0.8986343175402456,0.42194247348744973,-0.05365072098878443
1679688397721531,-0.899366750591287,0.4325627527275504,-0.0575570305943387
1679688397737513,-0.9015640497444113,0.43280689707789755,-0.053162432288090145
1679688397753495,-0.8987563897154192,0.43060959792477327,-0.05169756618600729
1679688397769477,-0.8994888227664606,0.4265812161440454,-0.04864576180666802
1679688397785460,-0.901930266269932,0.42609292744335114,-0.04876783398184159
1679688397801442,-0.908766308079652,0.41901274128328403,-0.051941710536354435
1679688397817424,-0.9131609063859005,0.41937895780880474,-0.04779125658045302
1679688397833343,-0.9099870298313877,0.421576256961929,-0.05096513313496587
1679688397849325,-0.9060807202258334,0.42145418478675545,-0.04644846265354374
1679688397865306,-0.9035172045471884,0.42609292744335114,-0.04730296787975874
1679688397881288,-0.9021744106202791,0.4237735561150533,-0.05133134966048658
1679688397897270,-0.901075761043717,0.4242618448157476,-0.04962233920805659
1679688397913252,-0.9015640497444113,0.42182040131227616,-0.048157473105973736
1679688397929233,-0.903639276722362,0.4236514839398797,-0.04962233920805659
1679688397945215,-0.9051041428244448,0.424139772640574,-0.04852368963149445
1679688397961197,-0.9052262149996184,0.4246280613412683,-0.047913328755626594
1679688397977178,-0.9042496375982298,0.42572671091783043,-0.0432745860990309
1679688397993160,-0.9037613488975356,0.42523842221713615,-0.039124132143129486
1679688398009142,-0.9047379262989241,0.4216983291371026,-0.03814755474174092
1679688398025123,-0.907057297627222,0.42279697871366473,-0.041687647821774476
1679688398041105,-0.9093766689555198,0.42352941176470615,-0.043030441748683756
1679688398057087,-0.9035172045471884,0.4221866178377969,-0.04571602960250232
1679688398073068,-0.8979018844892042,0.41852445258258975,-0.04461738002594018
1679688398089050,-0.892530708781567,0.4170595864805069,-0.04071107042038591
1679688398105032,-0.8893568322270542,0.41925688563363117,-0.04046692607003877
1679688398121013,-0.8920424200808728,0.4221866178377969,-0.04583810177767589
1679688398136995,-0.8970473792629892,0.4262149996185247,-0.04693675135423803
1679688398152923,-0.907057297627222,0.42475013351644186,-0.04339665827420447
1679688398168905,-0.9107194628824291,0.4170595864805069,-0.0394903486686502
1679688398184887,-0.9184100099183641,0.4144960708018619,-0.04254215304798947
1679688398200868,-0.9201190203707941,0.4148622873273826,-0.04608224612802303
1679688398216850,-0.9191424429694055,0.41547264820325047,-0.052918287937743
1679688398232832,-0.9179217212176698,0.4132753490501262,-0.05487144274052014
1679688398248813,-0.9142595559624627,0.4131532768749526,-0.05511558709086728
1679688398264795,-0.912184328984512,0.4091248950942248,-0.05365072098878443
1679688398280777,-0.911329823758297,0.41046768902113406,-0.05218585488670158
1679688398296758,-0.907057297627222,0.41010147249561335,-0.05133134966048658
1679688398312740,-0.8994888227664606,0.41095597772182835,-0.04852368963149445
1679688398328722,-0.896803234912642,0.4122987716487376,-0.04632639047837017
1679688398344703,-0.8970473792629892,0.41144426642252263,-0.04473945220111375
1679688398360685,-0.9014419775692377,0.41144426642252263,-0.04571602960250232
1679688398376667,-0.9094987411306934,0.4136415655756469,-0.0432745860990309
1679688398392648,-0.9140154116121155,0.4116884107728698,-0.042664225223163044
1679688398408630,-0.9108415350576027,0.41266498817425834,-0.03741512169069949
1679688398424612,-0.9051041428244448,0.4120546272983905,-0.0365606164644845
1679688398440593,-0.9022964827954527,0.41046768902113406,-0.03314259555962451
1679688398456575,-0.8990005340657663,0.4110780498970019,-0.03350881208514522
1679688398472473,-0.9014419775692377,0.4110780498970019,-0.03204394598306237
1679688398488454,-0.9016861219195849,0.40424200808728195,-0.029602502479590953
1679688398504435,-0.9075455863279163,0.40375371938658766,-0.032288090333409514
1679688398520416,-0.9093766689555198,0.4077821011673155,-0.038757915617608774
1679688398536398,-0.9120622568093384,0.40973525597009264,-0.04632639047837017
1679688398552379,-0.913038834210727,0.41217669947356406,-0.04852368963149445
1679688398568360,-0.9124284733348591,0.40582894636453837,-0.05145342183566015
1679688398584341,-0.9190203707942319,0.4035095750362405,-0.054383154039825854
1679688398600322,-0.9160906385900662,0.40302128633554624,-0.05352864881361086
1679688398616304,-0.9162127107652398,0.4024109254596784,-0.06060883497367797
1679688398632285,-0.9191424429694055,0.4057068741893648,-0.07098496986343195
1679688398648266,-0.9220721751735712,0.4027771419851991,-0.07208361943999408
1679688398664247,-0.9315938048371097,0.4003356984817277,-0.06988632028686981
1679688398680228,-0.9362325474937054,0.4003356984817277,-0.06585793850614197
1679688398696210,-0.9297627222095062,0.4041199359121084,-0.060975051499198685
1679688398712191,-0.9187762264438848,0.40582894636453837,-0.053162432288090145
1679688398728172,-0.9093766689555198,0.40375371938658766,-0.04437323567559304
1679688398744153,-0.9007095445181963,0.3986266880292977,-0.04058899824521234
1679688398760134,-0.8972915236133363,0.40167849240863696,-0.037537193865873064
1679688398776116,-0.8975356679636834,0.40680552376592694,-0.04046692607003877
1679688398792053,-0.900221255817502,0.40888075074387764,-0.04119935912108019
1679688398808034,-0.905348287174792,0.4060730907148855,-0.031067368581673804
1679688398824015,-0.9103532463569084,0.4031433585107198,-0.03070115205615309
1679688398839996,-0.9129167620355534,0.4031433585107198,-0.0319218738078888
1679688398855978,-0.9188982986190584,0.40509651331349694,-0.03411917296101308
1679688398871959,-0.9240253299763483,0.40875867856870407,-0.03350881208514522
1679688398887940,-0.9291523613336383,0.4091248950942248,-0.0289921416037231
1679688398903921,-0.9251239795529105,0.4132753490501262,-0.031067368581673804
1679688398919902,-0.9203631647211412,0.4086366063935305,-0.034851606012054503
1679688398935884,-0.9187762264438848,0.40961318379491907,-0.03155565728236809
1679688398951865,-0.9159685664148927,0.4019226367589841,-0.029724574654764524
1679688398967846,-0.9114518959334705,0.4003356984817277,-0.03350881208514522
1679688398983827,-0.9041275654230563,0.3977721828030827,-0.03814755474174092
1679688398999808,-0.9040054932478827,0.39667353322652055,-0.03924620431830306
1679688399015790,-0.9054703593499656,0.39996948195620696,-0.03668268863965807
1679688399031771,-0.913038834210727,0.3952086671244377,-0.037659266041046635
1679688399047752,-0.9229266803997862,0.39545281147478484,-0.03790341039139378
1679688399063733,-0.9341573205157547,0.40338750286106695,-0.04217593652246876
1679688399079714,-0.9444113832303351,0.4127870603494319,-0.041565575646600905
1679688399095696,-0.9626001373311972,0.4225528343633176,-0.03839169909208806
1679688399111633,-0.9540550850690472,0.42230869001297044,-0.03179980163271523
1679688399127614,-0.9235370412756541,0.40875867856870407,-0.03155565728236809
1679688399143594,-0.8822766460669871,0.40839246204318336,-0.022034027618829555
1679688399159575,-0.8448004882887008,0.4007019150072484,-0.012512397955291021
1679688399175556,-0.8346684977492944,0.3993591210803391,-0.0020141908903639205
1679688399191537,-0.8533455405508508,0.4127870603494319,0.0071412222476539
1679688399207517,-0.8881361104753185,0.42902265964751685,0.011169604028381741
1679688399223498,-0.907057297627222,0.42096589608606116,0.012146181429770309
1679688399239479,-0.9179217212176698,0.4035095750362405,0.013122758831158876
1679688399255459,-0.9251239795529105,0.394842450598917,0.011413748378728883
1679688399271440,-0.926955062180514,0.39496452277409055,0.00848401617456318
1679688399287421,-0.9285420004577705,0.3950865949492641,0.002868696116578917
1679688399303402,-0.9258564126039519,0.39423208972304913,-0.006652933546959616
1679688399319382,-0.9218280308232241,0.3910582131685363,-0.008972304875257464
1679688399335363,-0.9206073090714884,0.3921568627450984,-0.01226825360494388
1679688399351344,-0.9218280308232241,0.39703974975204126,-0.01886015106431671
1679688399367324,-0.9175555046921491,0.4014343480582898,-0.021057450217440987
1679688399383305,-0.9140154116121155,0.40961318379491907,-0.025940337224383825
1679688399399286,-0.9037613488975356,0.4179140917067219,-0.029724574654764524
1679688399415267,-0.8965590905622949,0.4187685969329369,-0.031067368581673804
1679688399431182,-0.8943617914091706,0.4203555352101933,-0.02935835812924381
1679688399447163,-0.8996108949416342,0.42389562829022687,-0.030212863355458808
1679688399463144,-0.9051041428244448,0.4216983291371026,-0.028259708552681673
1679688399479125,-0.9094987411306934,0.4158388647287712,-0.02532997634851597
1679688399495105,-0.9154802777141984,0.40839246204318336,-0.022034027618829555
1679688399511086,-0.9159685664148927,0.40595101853971194,-0.017883573662928143
1679688399527067,-0.9187762264438848,0.4027771419851991,-0.01617456321049815
1679688399543048,-0.9223163195239183,0.39826047150377697,-0.016784924086366004
1679688399559028,-0.9247577630273898,0.3981383993286034,-0.01495384145876244
1679688399575009,-0.9251239795529105,0.3988708323796448,-0.017883573662928143
1679688399590990,-0.9219501029983976,0.4044861524376291,-0.02020294499122599
1679688399606970,-0.9163347829404134,0.4081483176928362,-0.023498893720912406
1679688399622951,-0.9107194628824291,0.4077821011673155,-0.024719615472648115
1679688399638932,-0.9081559472037841,0.4094911116197455,-0.01873807888914314
1679688399654913,-0.911329823758297,0.40888075074387764,-0.024353398947127403
1679688399670893,-0.909620813305867,0.41217669947356406,-0.02923628595407024
1679688399686874,-0.910475318532082,0.41303120469977905,-0.030823224231326662
1679688399702855,-0.9134050507362477,0.4090028229190512,-0.02667277027542525
1679688399718835,-0.9162127107652398,0.4060730907148855,-0.024963759822995257
1679688399734816,-0.913893339436942,0.4053406576638441,-0.020813305867093845
1679688399750763,-0.9107194628824291,0.4043640802624555,-0.019714656290531707
1679688399766743,-0.9090104524299991,0.40595101853971194,-0.022278171969176697
1679688399782724,-0.911329823758297,0.41181048294804334,-0.0252079041733424
1679688399798705,-0.9108415350576027,0.4166933699549862,-0.02410925459678026
1679688399814685,-0.9073014419775691,0.42108796826123474,-0.018249790188448856
1679688399830666,-0.9049820706492713,0.41803616388189546,-0.018249790188448856
1679688399846647,-0.9058365758754863,0.4132753490501262,-0.01239032578011745
1679688399862628,-0.9068131532768748,0.41254291599908477,-0.014465552758068156
1679688399878608,-0.9098649576562141,0.41266498817425834,-0.018005645838101714
1679688399894589,-0.9127946898603798,0.41559472037842404,-0.017639429312581
1679688399910570,-0.9143816281376362,0.41522850385290333,-0.01898222323949028
1679688399926550,-0.9174334325169755,0.4141298542763412,-0.016540779736018862
1679688399942531,-0.9164568551155869,0.4146181429770355,-0.020447089341573133
1679688399958512,-0.9154802777141984,0.4119325551232169,-0.021057450217440987
1679688399974493,-0.9135271229114212,0.41095597772182835,-0.01617456321049815
1679688399990473,-0.9093766689555198,0.4119325551232169,-0.014099336232547444
1679688400006454,-0.9076676585030898,0.4140077821011676,-0.01373311970702673
1679688400022435,-0.9040054932478827,0.4146181429770355,-0.013488975356679589
1679688400038416,-0.9055924315251391,0.41718165865568047,-0.00836194399938961
1679688400054396,-0.9059586480506598,0.4203555352101933,-0.012146181429770309
1679688400070343,-0.9051041428244448,0.4216983291371026,-0.014221408407721015
1679688400086323,-0.9042496375982298,0.42145418478675545,-0.014221408407721015
1679688400102303,-0.9060807202258334,0.4186465247577633,-0.015564202334630295
1679688400118283,-0.9073014419775691,0.41730373083085404,-0.014709697108415298
1679688400134264,-0.9068131532768748,0.4137636377508205,-0.017029068436713146
1679688400150244,-0.9092545967803463,0.41547264820325047,-0.016906996261539575
1679688400166224,-0.9114518959334705,0.4157167925535976,-0.017029068436713146
1679688400182204,-0.9141374837872891,0.4165712977798126,-0.01751735713740743
1679688400198185,-0.9158464942397191,0.4166933699549862,-0.021179522392614558
1679688400214165,-0.9134050507362477,0.41852445258258975,-0.02532997634851597
1679688400230145,-0.9143816281376362,0.41803616388189546,-0.026306553749904538
1679688400246125,-0.9153582055390248,0.41596093690394476,-0.026184481574730967
1679688400262106,-0.9142595559624627,0.41351949340047334,-0.026184481574730967
1679688400278086,-0.9135271229114212,0.4119325551232169,-0.02154573891813527
1679688400294066,-0.908766308079652,0.41095597772182835,-0.021911955443655984
1679688400310046,-0.9151140611886777,0.41181048294804334,-0.024475471122300974
1679688400326027,-0.9152361333638512,0.4157167925535976,-0.01617456321049815
1679688400342007,-0.9099870298313877,0.4146181429770355,-0.013855191882200302
1679688400357987,-0.9082780193789577,0.4146181429770355,-0.013000686655985305
1679688400373967,-0.9076676585030898,0.41730373083085404,-0.007263294422827471
1679688400389923,-0.9007095445181963,0.41522850385290333,-0.00848401617456318
1679688400405903,-0.9026626993209734,0.4129091325246055,-0.011779964904249596
1679688400421883,-0.9007095445181963,0.41437399862668833,-0.007873655298695326
1679688400437863,-0.9000991836423284,0.4124208438239112,-0.002990768291752488
1679688400453844,-0.901075761043717,0.41144426642252263,1.831082627603564E-4
1679688400469824,-0.9030289158464941,0.4144960708018619,-0.0022583352407110624
1679688400485804,-0.9046158541237506,0.4166933699549862,-0.005554283970397478
1679688400501784,-0.9035172045471884,0.4175478751812012,-0.004333562218661768
1679688400517765,-0.903639276722362,0.4158388647287712,9.15541313801782E-4
1679688400533745,-0.905348287174792,0.4132753490501262,-0.0012817578393224949
1679688400549725,-0.9080338750286105,0.4146181429770355,-0.0038452735179674846
1679688400565705,-0.9073014419775691,0.4158388647287712,-0.0037232013427939137
1679688400581686,-0.9073014419775691,0.4141298542763412,-0.0016479743648432077
1679688400597666,-0.9080338750286105,0.41217669947356406,-0.004699778744182481
1679688400613646,-0.9081559472037841,0.4129091325246055,-0.009948882276646032
1679688400629626,-0.9119401846341648,0.4162050812542919,-0.01995880064087885
1679688400645607,-0.9149919890135041,0.42304112306401187,-0.021789883268482413
1679688400661587,-0.9005874723430227,0.4158388647287712,-0.03155565728236809
1679688400677567,-0.901930266269932,0.4149843595025562,-0.020447089341573133
1679688400693547,-0.9042496375982298,0.4124208438239112,-0.013488975356679589
1679688400709472,-0.9119401846341648,0.4102235446707869,-0.0017700465400167786
1679688400725453,-0.910475318532082,0.4119325551232169,-0.01483176928358887
1679688400741433,-0.9098649576562141,0.4157167925535976,-0.022034027618829555
1679688400757413,-0.911329823758297,0.42389562829022687,-0.027527275501640247
1679688400773393,-0.9251239795529105,0.4317082475013354,-0.032288090333409514
1679688400789373,-0.9239032578011748,0.4296330205233847,-0.039002059967955915
1679688400805354,-0.9124284733348591,0.42267490653849116,-0.0386358434424352
1679688400821334,-0.907911802853437,0.4162050812542919,-0.03326466773479808
1679688400837314,-0.9069352254520484,0.4148622873273826,-0.03167772945754166
1679688400853294,-0.9103532463569084,0.4169375143053333,-0.03533989471274879
1679688400869275,-0.9091325246051727,0.41766994735637475,-0.03741512169069949
1679688400885255,-0.9077897306782634,0.42011139085984617,-0.03436331731136022
1679688400901235,-0.903639276722362,0.42059967956054045,-0.029968719005111666
1679688400917215,-0.9009536888685434,0.42304112306401187,-0.03155565728236809
1679688400933196,-0.8999771114671549,0.423285267414359,-0.03204394598306237
1679688400949176,-0.9018081940947584,0.421576256961929,-0.03326466773479808
1679688400965156,-0.9064469367513541,0.4225528343633176,-0.031067368581673804
1679688400981136,-0.9066910811017013,0.42145418478675545,-0.031189440756847375
1679688400997117,-0.904493781948577,0.4170595864805069,-0.029724574654764524
1679688401013097,-0.9040054932478827,0.41596093690394476,-0.026184481574730967
1679688401029022,-0.9043717097734034,0.4175478751812012,-0.025818265049210254
1679688401045002,-0.9057145037003127,0.4179140917067219,-0.025818265049210254
1679688401060981,-0.906202792401007,0.419867246509499,-0.022156099794003126
1679688401076961,-0.9033951323720149,0.4186465247577633,-0.02252231631952384
1679688401092941,-0.900221255817502,0.41937895780880474,-0.021667811093308842
1679688401108921,-0.9013199053940641,0.41681544213015975,-0.02264438849469741
1679688401124900,-0.9030289158464941,0.41901274128328403,-0.020935378042267416
1679688401140880,-0.9066910811017013,0.41937895780880474,-0.023743038071259548
1679688401156860,-0.9059586480506598,0.42230869001297044,-0.027405203326466676
1679688401172840,-0.9055924315251391,0.42145418478675545,-0.031067368581673804
1679688401188820,-0.9063248645761806,0.4213321126115819,-0.030823224231326662
1679688401204799,-0.910475318532082,0.41522850385290333,-0.029846646829938095
1679688401220779,-0.9097428854810405,0.4148622873273826,-0.03143358510719452
1679688401236759,-0.9097428854810405,0.4149843595025562,-0.029968719005111666
1679688401252739,-0.9082780193789577,0.4160830090791183,-0.036316472114137355
1679688401268718,-0.9093766689555198,0.41681544213015975,-0.03448538948653379
1679688401284698,-0.9094987411306934,0.4166933699549862,-0.03155565728236809
1679688401300678,-0.908766308079652,0.41596093690394476,-0.03179980163271523
1679688401316658,-0.9103532463569084,0.4160830090791183,-0.030212863355458808
1679688401332637,-0.9093766689555198,0.4148622873273826,-0.029480430304417382
1679688401348602,-0.9058365758754863,0.4122987716487376,-0.03045700770580595
1679688401364582,-0.9068131532768748,0.4162050812542919,-0.03045700770580595
1679688401380561,-0.9074235141527427,0.4195010299839783,-0.031067368581673804
1679688401396541,-0.907057297627222,0.42096589608606116,-0.028870069428549527
1679688401412521,-0.9031509880216677,0.41937895780880474,-0.03302052338445094
1679688401428501,-0.9015640497444113,0.4162050812542919,-0.03460746166170736
1679688401444481,-0.9032730601968413,0.4216983291371026,-0.040100709544518054
1679688401460460,-0.9037613488975356,0.42182040131227616,-0.0386358434424352
1679688401476440,-0.9063248645761806,0.4199893186846726,-0.042786297398336615
1679688401492420,-0.9085221637293048,0.42145418478675545,-0.044129091325245895
1679688401508400,-0.9105973907072555,0.41974517433432545,-0.04498359655146089
1679688401524379,-0.9092545967803463,0.4225528343633176,-0.04473945220111375
1679688401540359,-0.9047379262989241,0.41925688563363117,-0.047913328755626594
1679688401556339,-0.9054703593499656,0.4208438239108876,-0.04901197833218873
1679688401572319,-0.906202792401007,0.41925688563363117,-0.04742504005493231
1679688401588298,-0.9084000915541313,0.41815823605706903,-0.04632639047837017
1679688401604278,-0.9052262149996184,0.4174258030060276,-0.04449530785076661
1679688401620258,-0.904493781948577,0.41644922560463904,-0.04083314259555948
1679688401636238,-0.9037613488975356,0.41644922560463904,-0.041687647821774476
1679688401652217,-0.9031509880216677,0.4203555352101933,-0.040100709544518054
1679688401668213,-0.9038834210727091,0.41901274128328403,-0.040100709544518054
1679688401684192,-0.902784771496147,0.4162050812542919,-0.03607232776379021
1679688401700172,-0.9043717097734034,0.41547264820325047,-0.036194399938963784
1679688401716152,-0.9041275654230563,0.41644922560463904,-0.03314259555962451
1679688401732132,-0.9064469367513541,0.41974517433432545,-0.035217822537575216
1679688401748111,-0.9099870298313877,0.422430762188144,-0.03338673990997165
1679688401764091,-0.909620813305867,0.4158388647287712,-0.02777141985198739
1679688401780071,-0.9109636072327763,0.4035095750362405,-0.021057450217440987
1679688401796051,-0.9105973907072555,0.40216678110933124,-0.019592584115358136
1679688401812030,-0.9134050507362477,0.4003356984817277,-0.02264438849469741
1679688401828010,-0.9148699168383305,0.40851453421835693,-0.02264438849469741
1679688401843990,-0.9151140611886777,0.41181048294804334,-0.028137636377508102
1679688401859970,-0.9182879377431905,0.4077821011673155,-0.030090791180285237
1679688401875949,-0.9196307316700998,0.4065613794155798,-0.02545204852368954
1679688401891929,-0.9198748760204469,0.40119020370794267,-0.02008087281605242
1679688401907909,-0.9181658655680169,0.3998474097810334,-0.015808346684977437
1679688401923889,-0.9173113603418019,0.4044861524376291,-0.01886015106431671
1679688401939869,-0.9158464942397191,0.41095597772182835,-0.023743038071259548
1679688401955848,-0.9159685664148927,0.41254291599908477,-0.029968719005111666
1679688401971828,-0.9162127107652398,0.4124208438239112,-0.02667277027542525
1679688401987762,-0.9143816281376362,0.40851453421835693,-0.019714656290531707
1679688402003742,-0.9094987411306934,0.40387579156176123,-0.011169604028381741
1679688402019722,-0.9074235141527427,0.4048523689631498,-0.012878614480811734
1679688402035701,-0.9110856794079498,0.4107118333714812,-0.018005645838101714
1679688402051681,-0.9140154116121155,0.41351949340047334,-0.020935378042267416
1679688402067661,-0.9116960402838177,0.41388570992599405,-0.019226367589837423
1679688402083641,-0.9076676585030898,0.41058976119630763,-0.015564202334630295
1679688402099620,-0.9099870298313877,0.4122987716487376,-0.015075913633936011
1679688402115600,-0.9060807202258334,0.4091248950942248,-0.01641870756084529
1679688402131580,-0.9064469367513541,0.40582894636453837,-0.00970473792629889
1679688402147560,-0.9069352254520484,0.4057068741893648,-0.009216449225604606
1679688402163540,-0.909620813305867,0.41058976119630763,-0.00982681010147246
1679688402179519,-0.910475318532082,0.4122987716487376,-0.011535820553902454
1679688402195499,-0.912184328984512,0.4141298542763412,-0.01483176928358887
1679688402211479,-0.9123064011596855,0.4132753490501262,-0.011657892729076025
1679688402227459,-0.9102311741817348,0.4129091325246055,-0.014343480582894585
1679688402243438,-0.9071793698023956,0.4102235446707869,-0.016784924086366004
1679688402259418,-0.9082780193789577,0.4107118333714812,-0.01739528496223386
1679688402275398,-0.9098649576562141,0.41217669947356406,-0.016540779736018862
1679688402291378,-0.9134050507362477,0.4110780498970019,-0.01751735713740743
1679688402307342,-0.9159685664148927,0.4115663385976962,-0.015686274509803866
1679688402323322,-0.9154802777141984,0.41095597772182835,-0.01495384145876244
1679688402339302,-0.9125505455100327,0.4090028229190512,-0.014709697108415298
1679688402355281,-0.9105973907072555,0.4079041733424891,-0.01361104753185316
1679688402371261,-0.907911802853437,0.4072938124666212,-0.01226825360494388
1679688402387241,-0.908766308079652,0.4086366063935305,-0.015686274509803866
1679688402403221,-0.9094987411306934,0.4110780498970019,-0.014465552758068156
1679688402419201,-0.9102311741817348,0.4120546272983905,-0.012634470130464592
1679688402435180,-0.9102311741817348,0.41339742122529977,-0.01483176928358887
1679688402451160,-0.9115739681086441,0.4094911116197455,-0.01873807888914314
1679688402467140,-0.911329823758297,0.4108339055466548,-0.01605249103532458
1679688402483120,-0.9136491950865948,0.4112001220721755,-0.016784924086366004
1679688402499099,-0.9152361333638512,0.40961318379491907,-0.022278171969176697
1679688402515079,-0.9154802777141984,0.40875867856870407,-0.023743038071259548
1679688402531059,-0.9131609063859005,0.4060730907148855,-0.022034027618829555
1679688402547039,-0.911329823758297,0.40497444113832337,-0.020691233691920274
1679688402563018,-0.9107194628824291,0.4070496681162741,-0.023254749370565264
1679688402578998,-0.9102311741817348,0.4115663385976962,-0.023743038071259548
1679688402594978,-0.9103532463569084,0.4120546272983905,-0.025574120698863112
1679688402610958,-0.9092545967803463,0.40924696726939835,-0.020447089341573133
1679688402626922,-0.9098649576562141,0.40766002899214193,-0.02386511024643312
1679688402642902,-0.9131609063859005,0.4069275959411005,-0.02667277027542525
1679688402658881,-0.9154802777141984,0.40546272983901765,-0.025085831998168828
1679688402674860,-0.9173113603418019,0.4077821011673155,-0.024719615472648115
1679688402690839,-0.9154802777141984,0.4090028229190512,-0.02276646066987098
1679688402706819,-0.906202792401007,0.4074158846417948,-0.024963759822995257
1679688402722798,-0.9033951323720149,0.4069275959411005,-0.02911421377889667
1679688402738777,-0.9049820706492713,0.40631723506523265,-0.026916914625772392
1679688402754757,-0.907911802853437,0.40375371938658766,-0.028747997253375956
1679688402770736,-0.9109636072327763,0.4043640802624555,-0.03399710078583951
1679688402786715,-0.9030289158464941,0.39423208972304913,-0.04583810177767589
1679688402802694,-0.8816662851911192,0.37531090257114563,-0.08722056916151688
1679688402818674,-0.8532234683756772,0.3679865720607305,-0.16302738994430443
1679688402834653,-0.8209964141298545,0.33160906385900635,-0.21307698176546896
1679688402850632,-0.8577401388570993,0.39118028534370985,-0.11273365377279321
1679688402866612,-0.9434348058289466,0.4939650568398566,0.008972304875257464
1679688402882591,-0.9931181811245899,0.5227740901808193,0.04205386434729519
1679688402898570,-0.9611352712291144,0.423285267414359,0.0061646448462653325
1679688402914549,-0.9279316395819026,0.3364919508659492,-0.028381780727855244
1679688402930529,-0.9263447013046462,0.31061264972915215,-0.028137636377508102
1679688402946441,-0.9453879606317237,0.34454871442740487,-0.02008087281605242
1679688402962421,-0.9541771572442208,0.3917906462195777,-0.032410162508583085
1679688402978400,-0.9490501258869308,0.4010681315327691,-0.05218585488670158
1679688402994379,-0.9469748989089801,0.39838254367895054,-0.0867322804608226
1679688403010358,-0.945021744106203,0.3670099946593419,-0.1144426642252232
1679688403026338,-0.9461203936827651,0.3527275501640341,-0.10565346761272609
1679688403042317,-0.9513694972152287,0.35211718928816627,-0.08612191958495474
1679688403058296,-0.9523460746166172,0.3590753032730598,-0.08038452735179691
1679688403074276,-0.9419699397268637,0.3657892729076062,-0.08990615701533544
1679688403090255,-0.9352559700923169,0.36932936598763977,-0.09674219882505541
1679688403106234,-0.9287861448081176,0.3679865720607305,-0.08490119783321903
1679688403122213,-0.9323262378881512,0.3616388189517048,-0.06683451590753053
1679688403138193,-0.9374532692454411,0.3461356527046613,-0.0575570305943387
1679688403154172,-0.9373311970702676,0.32953383688105564,-0.05120927748531301
1679688403170151,-0.9271992065308612,0.3242847333485921,-0.042786297398336615
1679688403186131,-0.9192645151445791,0.3373464560921642,-0.0386358434424352
1679688403202110,-0.9125505455100327,0.3604180971999691,-0.03155565728236809
1679688403218089,-0.9175555046921491,0.37738612954909634,-0.01641870756084529
1679688403234068,-0.9165789272907605,0.3750667582207985,-0.007507438773174613
1679688403250048,-0.9120622568093384,0.3662775616083005,-0.006286717021438903
1679688403266021,-0.9171892881666284,0.3578545815213241,-0.0071412222476539
1679688403282001,-0.926100556954299,0.3532158388647284,-0.0038452735179674846
1679688403297980,-0.9315938048371097,0.35260547798886055,-0.010437170977340315
1679688403313959,-0.9391622796978716,0.35553521019302625,-0.021911955443655984
1679688403329939,-0.9445334554055087,0.352483405813687,-0.03399710078583951
1679688403345918,-0.9406271457999544,0.349065384908827,-0.03338673990997165
1679688403361897,-0.9391622796978716,0.351628900587472,-0.03045700770580595
1679688403377876,-0.9350118257419697,0.35223926146333984,-0.03558403906309593
1679688403393856,-0.9280537117570762,0.35687800411993553,-0.03704890516517878
1679688403409835,-0.9206073090714884,0.3554131380178527,-0.04522774090180803
1679688403425814,-0.9065690089265277,0.34174105439841274,-0.04449530785076661
1679688403441794,-0.9037613488975356,0.32831311512931993,-0.03436331731136022
1679688403457773,-0.9042496375982298,0.3377126726176849,-0.028381780727855244
1679688403473752,-0.9064469367513541,0.36346990157930836,-0.029724574654764524
1679688403489731,-0.9101091020065613,0.3809262226291299,-0.03826962691691449
1679688403505711,-0.913893339436942,0.39081406881818914,-0.04571602960250232
1679688403521690,-0.9169451438162812,0.39325551232166056,-0.051941710536354435
1679688403537669,-0.9246356908522162,0.39447623407339627,-0.05011062790875087
1679688403553649,-0.9384298466468302,0.39081406881818914,-0.0386358434424352
1679688403569628,-0.9330586709391926,0.386297398336767,-0.0707408255130848
1679688403585601,-0.9419699397268637,0.3678644998855569,-0.0867322804608226
1679688403601581,-0.9538109407187001,0.3787289234760056,-0.09674219882505541
1679688403617560,-0.9566186007476922,0.3893492027161063,-0.09759670405127041
1679688403633539,-0.9466086823834594,0.38068207827878275,-0.09869535362783255
1679688403649519,-0.9274433508812083,0.3611505302510105,-0.09735255970092327
1679688403665498,-0.9221942473487448,0.35504692149233197,-0.09417868314641042
1679688403681477,-0.9192645151445791,0.36102845807583694,-0.09332417792019543
1679688403697456,-0.9190203707942319,0.3661554894331269,-0.09698634317540256
1679688403713436,-0.9184100099183641,0.3726253147173262,-0.10089265278095683
1679688403729415,-0.9184100099183641,0.37396810864423546,-0.10003814755474183
1679688403745394,-0.9165789272907605,0.3714045929655905,-0.09881742580300612
1679688403761374,-0.9185320820935376,0.37116044861524333,-0.09466697184710471
1679688403777353,-0.9199969481956205,0.3709163042648962,-0.09283588921950114
1679688403793332,-0.9234149691004805,0.37030594338902834,-0.09442282749675757
1679688403809311,-0.9271992065308612,0.36945143816281334,-0.09356832227054257
1679688403825291,-0.9307392996108947,0.36932936598763977,-0.09417868314641042
1679688403841270,-0.9330586709391926,0.36896314946211906,-0.0955214770733197
1679688403857249,-0.932082093537804,0.36517891203173836,-0.0972304875257497
1679688403873229,-0.9297627222095062,0.36652170595864764,-0.09466697184710471
1679688403889208,-0.9315938048371097,0.3750667582207985,-0.0980849927519647
1679688403905151,-0.9276874952315555,0.37689784084840205,-0.09893949797817969
1679688403921130,-0.9304951552605476,0.3831235217822542,-0.09393453879606328
1679688403937110,-0.9444113832303351,0.4007019150072484,-0.09393453879606328
1679688403953089,-0.9391622796978716,0.3985046158541241,-0.09893949797817969
1679688403969068,-0.9251239795529105,0.3821469443808656,-0.10565346761272609
1679688403985047,-0.9163347829404134,0.3876401922636763,-0.10553139543755252
1679688404001027,-0.9093766689555198,0.38959334706645343,-0.093446250095369
1679688404017006,-0.8909437705043106,0.39923704890516554,-0.08648813611047546
1679688404032985,-0.8766613260090028,0.3902037079423213,-0.09039444571602973
1679688404048965,-0.8720225833524071,0.37738612954909634,-0.08831921873807902
1679688404064944,-0.8898451209277485,0.39667353322652055,-0.07025253681239052
1679688404080923,-0.9007095445181963,0.4052185854886705,-0.06805523765926624
1679688404096902,-0.9009536888685434,0.40582894636453837,-0.07550164034485407
1679688404112882,-0.897657740138857,0.4072938124666212,-0.08062867170214405
1679688404128861,-0.8966811627374685,0.40924696726939835,-0.08551155870908689
1679688404144840,-0.8966811627374685,0.40497444113832337,-0.0783093003738462
1679688404160820,-0.9046158541237506,0.4010681315327691,-0.06463721675440626
1679688404176799,-0.9171892881666284,0.4129091325246055,-0.0762340733958955
1679688404192778,-0.9159685664148927,0.41303120469977905,-0.08685435263599617
1679688404208758,-0.9129167620355534,0.40582894636453837,-0.08404669260700404
1679688404224731,-0.913038834210727,0.4031433585107198,-0.08075074387731762
1679688404240710,-0.9112077515831234,0.4024109254596784,-0.08465705348287189
1679688404256690,-0.9041275654230563,0.4010681315327691,-0.08892957961394687
1679688404272669,-0.9004654001678492,0.40094605935759553,-0.08807507438773188
1679688404288648,-0.8987563897154192,0.3998474097810334,-0.08331425955596261
1679688404304628,-0.9051041428244448,0.40167849240863696,-0.07721065079728406
1679688404320607,-0.9109636072327763,0.4052185854886705,-0.0783093003738462
1679688404336586,-0.914747844663157,0.40766002899214193,-0.07904173342488763
1679688404352565,-0.9188982986190584,0.40546272983901765,-0.07769893949797835
1679688404368545,-0.9202410925459676,0.40375371938658766,-0.07721065079728406
1679688404384524,-0.9208514534218355,0.40204470893415767,-0.07525749599450693
1679688404400503,-0.9154802777141984,0.40045777065690125,-0.07843137254901977
1679688404416483,-0.9118181124589912,0.39703974975204126,-0.07611200122072193
1679688404432462,-0.9098649576562141,0.396551461051347,-0.07403677424277122
1679688404448441,-0.911329823758297,0.39826047150377697,-0.0736705577172505
1679688404464420,-0.9149919890135041,0.3989929045548184,-0.0762340733958955
1679688404480400,-0.9143816281376362,0.4027771419851991,-0.08258182650492119
1679688404496379,-0.9145037003128098,0.4027771419851991,-0.08892957961394687
1679688404512358,-0.9135271229114212,0.4048523689631498,-0.091737239642939
1679688404528338,-0.9099870298313877,0.40851453421835693,-0.0838025482566569
1679688404544311,-0.9093766689555198,0.40460822461280266,-0.07904173342488763
1679688404560290,-0.9040054932478827,0.40387579156176123,-0.07965209430075548
1679688404576270,-0.9013199053940641,0.4007019150072484,-0.08355840390630975
1679688404592249,-0.9031509880216677,0.4027771419851991,-0.09369039444571614
1679688404608228,-0.9043717097734034,0.4024109254596784,-0.08111696040283833
1679688404624208,-0.9086442359044784,0.4116884107728698,-0.06976424811169624
1679688404640187,-0.9077897306782634,0.4110780498970019,-0.06634622720683625
1679688404656166,-0.9063248645761806,0.4061951628900591,-0.06817730983443981
1679688404672145,-0.9132829785610741,0.40753795681696836,-0.07904173342488763
1679688404688125,-0.913893339436942,0.4090028229190512,-0.0829480430304419
1679688404704104,-0.9094987411306934,0.4110780498970019,-0.0783093003738462
1679688404720083,-0.907057297627222,0.41046768902113406,-0.07269398031586194
1679688404736063,-0.9033951323720149,0.4110780498970019,-0.07354848554207694
1679688404752042,-0.9011978332188906,0.4098573281452662,-0.0791638056000612
1679688404768021,-0.9011978332188906,0.4127870603494319,-0.08953994048981473
1679688404784000,-0.9074235141527427,0.4191348134584576,-0.08722056916151688
1679688404799980,-0.9193865873197526,0.42438391699092115,-0.08490119783321903
1679688404815959,-0.9215838864728769,0.4291447318226904,-0.09088273441672401
1679688404831938,-0.9160906385900662,0.43231860837720326,-0.10162508583199825
1679688404847918,-0.9091325246051727,0.43524834058136896,-0.11456473640039677
1679688404863861,-0.9043717097734034,0.4468451972228582,-0.12152285038529032
1679688404879840,-0.8965590905622949,0.4456244754711225,-0.11725032425421533
1679688404895818,-0.9031509880216677,0.4464789806973375,-0.10528725108720538
1679688404911797,-0.8849622339208056,0.4406195162890061,-0.09417868314641042
1679688404927776,-0.8813000686655985,0.43915465018692323,-0.0896620126649883
1679688404943755,-0.8676279850461586,0.43817807278553467,-0.091737239642939
1679688404959734,-0.8592050049591822,0.4461127641718168,-0.1047989623865111
1679688404975712,-0.8584725719081407,0.44403753719386607,-0.11566338597695891
1679688404991691,-0.8609140154116122,0.44623483634699035,-0.11773861295490962
1679688405007670,-0.8596932936598765,0.4494087129015032,-0.11480888075074391
1679688405023649,-0.8618905928130007,0.4489204242008089,-0.11371023117418178
1679688405039628,-0.867505912870985,0.4528267338063632,-0.12042420080872818
1679688405055606,-0.8719005111772336,0.44757763027389963,-0.12237735561150531
1679688405071585,-0.8782482642862592,0.4435492484931718,-0.12079041733424889
1679688405087564,-0.8747081712062257,0.45050736247806533,-0.11590753032730605
1679688405103543,-0.8742198825055314,0.48566414892805376,-0.13519493400473026
1679688405119522,-0.870923933775845,0.4635690852216374,-0.13116655222400242
1679688405135501,-0.8687266346227207,0.43915465018692323,-0.11810482948043033
1679688405151479,-0.8747081712062257,0.4476997024490732,-0.11432059205004963
1679688405167458,-0.8755626764324407,0.4501411459525446,-0.11163500419623107
1679688405183441,-0.870923933775845,0.4468451972228582,-0.10699626153963537
1679688405199420,-0.8695811398489357,0.44110780498970037,-0.1106584267948425
1679688405215398,-0.8646982528419929,0.43353933012893897,-0.10650797283894109
1679688405231377,-0.8629892423895629,0.4234073395895326,-0.10064850843060968
1679688405247356,-0.8719005111772336,0.4291447318226904,-0.09893949797817969
1679688405263335,-0.8867933165484092,0.43537041275654254,-0.09918364232852683
1679688405279314,-0.9066910811017013,0.4430609597924775,-0.10443274586099038
1679688405295292,-0.915602349889372,0.4402532997634854,-0.11053635461966893
1679688405311271,-0.9220721751735712,0.43830014496070824,-0.11297779812314035
1679688405327250,-0.9119401846341648,0.4413519493400475,-0.11688410772869462
1679688405343229,-0.9022964827954527,0.43781185626001395,-0.12713817044327458
1679688405359208,-0.8928969253070878,0.4330510414282447,-0.13055619134813456
1679688405375187,-0.8971694514381627,0.43231860837720326,-0.12945754177157243
1679688405391165,-0.8970473792629892,0.4325627527275504,-0.1275043869687953
1679688405407144,-0.8963149462119477,0.43024338139925256,-0.1283588921950103
1679688405423123,-0.8938735027084763,0.42987716487373184,-0.13775844968337525
1679688405439102,-0.8917982757305256,0.43109788662546755,-0.1392233157854581
1679688405455081,-0.8888685435263599,0.4330510414282447,-0.13812466620889596
1679688405471059,-0.8887464713511863,0.4317082475013354,-0.13702601663233382
1679688405487038,-0.8910658426794842,0.4308537422751204,-0.12982375829709314
1679688405503021,-0.8920424200808728,0.42938887617303756,-0.13067826352330814
1679688405519000,-0.8913099870298313,0.42389562829022687,-0.12445258258945602
1679688405534978,-0.8885023270008392,0.4107118333714812,-0.11383230334935535
1679688405550957,-0.8896009765774013,0.4182803082322426,-0.11090257114518964
1679688405566936,-0.8928969253070878,0.42865644312199613,-0.10638590066376752
1679688405582915,-0.9024185549706263,0.44000915541313823,-0.08136110475318548
1679688405598894,-0.8974135957885099,0.468818188754101,-0.11761654077973605
1679688405614873,-0.8711680781261921,0.4162050812542919,-0.1433737697413595
1679688405630851,-0.8698252841992828,0.4187685969329369,-0.15289539940489805
1679688405646830,-0.889967193102922,0.4406195162890061,-0.12506294346532387
1679688405662809,-0.8931410696574349,0.4320744640268561,-0.09759670405127041
1679688405678788,-0.8897230487525749,0.4271915770199133,-0.10345616845960182
1679688405694767,-0.8864271000228885,0.4291447318226904,-0.1203021286335546
1679688405710745,-0.8922865644312199,0.43695735103379896,-0.1275043869687953
1679688405726724,-0.8955825131609063,0.43830014496070824,-0.127870603494316
1679688405742703,-0.8911879148546578,0.4339055466544597,-0.13434042877851526
1679688405758682,-0.8898451209277485,0.4299992370489054,-0.13141069657434956
1679688405774661,-0.8882581826504921,0.42938887617303756,-0.12689402609292744
1679688405790640,-0.8871595330739299,0.43109788662546755,-0.12689402609292744
1679688405806618,-0.8839856565194171,0.42865644312199613,-0.12188906691081103
1679688405822570,-0.8833752956435492,0.4263370717936983,-0.12396429388876173
1679688405838549,-0.8848401617456321,0.430975814450294,-0.12530708781567101
1679688405854528,-0.8854505226214999,0.4367132066834518,-0.1249408712901503
1679688405870507,-0.8834973678187228,0.4375677119096668,-0.12323186083772031
1679688405886486,-0.8793469138628214,0.4396429388876175,-0.1161516746776532
1679688405902464,-0.8833752956435492,0.4455024032959489,-0.11187914854657821
1679688405918443,-0.8997329671168077,0.4522163729304953,-0.10113679713130397
1679688405934422,-0.9165789272907605,0.44037537193865894,-0.08636606393530188
1679688405950401,-0.9229266803997862,0.4417181658655682,-0.07415884641794479
1679688405966380,-0.9204852368963148,0.42731364919508685,-0.06280613412680269
1679688405982359,-0.9085221637293048,0.41547264820325047,-0.05365072098878443
1679688405998337,-0.9026626993209734,0.4002136263065541,-0.04876783398184159
1679688406014316,-0.900221255817502,0.39203479056992485,-0.042908369573510186
1679688406030295,-0.9052262149996184,0.38690775921263487,-0.03973449301899734
1679688406046274,-0.9081559472037841,0.3938658731975284,-0.042664225223163044
1679688406062253,-0.9092545967803463,0.4072938124666212,-0.04473945220111375
1679688406078231,-0.9102311741817348,0.41596093690394476,-0.052918287937743
1679688406094210,-0.912184328984512,0.4203555352101933,-0.060975051499198685
1679688406110189,-0.9101091020065613,0.42475013351644186,-0.06414892805371197
1679688406126168,-0.9132829785610741,0.42011139085984617,-0.06378271152819126
1679688406142151,-0.9142595559624627,0.4186465247577633,-0.0640268558785384
1679688406158129,-0.9173113603418019,0.41522850385290333,-0.06366063935301769
1679688406174108,-0.9225604638742655,0.4182803082322426,-0.07025253681239052
1679688406190087,-0.9204852368963148,0.41925688563363117,-0.07721065079728406
1679688406206066,-0.9276874952315555,0.426703288319219,-0.07904173342488763
1679688406222045,-0.926100556954299,0.4213321126115819,-0.0774547951476312
1679688406238023,-0.9112077515831234,0.43231860837720326,-0.06732280460822482
1679688406254002,-0.8882581826504921,0.43073167009994684,-0.046570534828717314
1679688406269981,-0.8455329213397422,0.41889066910811046,-0.03961242084382377
1679688406285960,-0.8225833524071109,0.41010147249561335,-0.040344853894865196
1679688406301939,-0.8411383230334937,0.4103456168459605,-0.03826962691691449
1679688406317917,-0.8758068207827878,0.41046768902113406,-0.02398718242160669
1679688406333896,-0.9146257724879834,0.4165712977798126,-0.01226825360494388
1679688406349875,-0.9448996719310294,0.4236514839398797,-0.013122758831158876
1679688406365854,-0.9480735484855423,0.42438391699092115,-0.026062409399557396
1679688406381833,-0.9264667734798198,0.42267490653849116,-0.04193179217212162
1679688406397812,-0.902784771496147,0.4229190508888383,-0.054505226214999425
1679688406413790,-0.8900892652780956,0.42438391699092115,-0.05609216449225585
1679688406429769,-0.8883802548256656,0.4225528343633176,-0.049378194857709445
1679688406445748,-0.891676203555352,0.4149843595025562,-0.037537193865873064
1679688406461731,-0.8960708018616006,0.4127870603494319,-0.04217593652246876
1679688406477709,-0.9038834210727091,0.4160830090791183,-0.05267414358739586
1679688406493688,-0.9126726176852062,0.421576256961929,-0.0669565880827041
1679688406509667,-0.9307392996108947,0.4279240100709547,-0.06976424811169624
1679688406525646,-0.9344014648661019,0.4396429388876175,-0.07025253681239052
1679688406541625,-0.9318379491874569,0.4384222171358818,-0.07025253681239052
1679688406557603,-0.9047379262989241,0.43781185626001395,-0.06170748455024011
1679688406573582,-0.8705577172503243,0.42682536049439257,-0.05157549401083372
1679688406589561,-0.8534676127260243,0.4165712977798126,-0.04583810177767589
1679688406605540,-0.8617685206378272,0.422430762188144,-0.0432745860990309
1679688406621519,-0.8821545738918135,0.43622491798275753,-0.04632639047837017
1679688406637498,-0.9025406271457999,0.4498970016021975,-0.05120927748531301
1679688406653476,-0.9126726176852062,0.44953078507667676,-0.053040360112916574
1679688406669455,-0.9140154116121155,0.4376897840848404,-0.0365606164644845
1679688406685434,-0.9007095445181963,0.42987716487373184,-0.030212863355458808
1679688406701413,-0.8902113374532692,0.4337834744792861,-0.0386358434424352
1679688406717392,-0.8848401617456321,0.43317311360341826,-0.042786297398336615
1679688406733370,-0.8864271000228885,0.44208438239108894,-0.050598916609445155
1679688406749349,-0.895094224460212,0.4490424963759825,-0.05633630884260299
1679688406765328,-0.8998550392919813,0.4434271763179982,-0.04962233920805659
1679688406781280,-0.9030289158464941,0.43524834058136896,-0.04473945220111375
1679688406797259,-0.9025406271457999,0.44110780498970037,-0.053040360112916574
1679688406813238,-0.8997329671168077,0.44293888761730393,-0.05914396887159512
1679688406829217,-0.8977798123140306,0.44074158846417966,-0.06305027847714983
1679688406845195,-0.8904554818036163,0.44037537193865894,-0.06366063935301769
1679688406861174,-0.8913099870298313,0.4392767223620968,-0.0631723506523234
1679688406877153,-0.8917982757305256,0.4287785152971697,-0.05621423666742942
1679688406893132,-0.895094224460212,0.46100556954299243,-0.0745250629434655
1679688406909111,-0.8875257495994506,0.45587853818570245,-0.08905165178912045
1679688406925089,-0.8860608834973678,0.43781185626001395,-0.06903181506065481
1679688406941068,-0.8944838635843442,0.44403753719386607,-0.04827954528114731
1679688406957047,-0.8931410696574349,0.4481879911497675,-0.04229800869764233
1679688406973026,-0.8820325017166399,0.4387884336614025,-0.041687647821774476
1679688406989005,-0.8781261921110857,0.4291447318226904,-0.04461738002594018
1679688407004984,-0.8836194399938964,0.4397650110627911,-0.050476844434271584
1679688407020962,-0.8888685435263599,0.4402532997634854,-0.04840161745632088
1679688407036941,-0.8911879148546578,0.432684824902724,-0.047913328755626594
1679688407052920,-0.8946059357595177,0.42767986572060757,-0.05352864881361086
1679688407068899,-0.9032730601968413,0.45551232166018174,-0.06829938200961339
1679688407084878,-0.9091325246051727,0.4774853131914245,-0.07782101167315192
1679688407100860,-0.9032730601968413,0.43707942320897253,-0.05877775234607441
1679688407116839,-0.9086442359044784,0.4220645456626233,-0.05401693751430514
1679688407132818,-0.9074235141527427,0.43146410315098827,-0.06012054627298369
1679688407148797,-0.9052262149996184,0.4392767223620968,-0.06927595941100195
1679688407164775,-0.9059586480506598,0.43915465018692323,-0.07318226901655622
1679688407180754,-0.9057145037003127,0.4329289692530711,-0.07025253681239052
1679688407196733,-0.8974135957885099,0.4253604943923097,-0.06536964980544768
1679688407212712,-0.8931410696574349,0.42609292744335114,-0.05889982452124798
1679688407228691,-0.8889906157015335,0.42951094834821113,-0.05889982452124798
1679688407244670,-0.8866712443732356,0.4291447318226904,-0.06073090714885154
1679688407260648,-0.8878919661249713,0.4296330205233847,-0.06329442282749698
1679688407276627,-0.8939955748836499,0.4299992370489054,-0.06329442282749698
1679688407292606,-0.895948729686427,0.43451590753032754,-0.061097123674372256
1679688407308585,-0.8979018844892042,0.43524834058136896,-0.06207370107576082
1679688407324564,-0.8994888227664606,0.43146410315098827,-0.06073090714885154
1679688407340542,-0.8983901731898984,0.428412298771649,-0.05535973144121442
1679688407356521,-0.8981460288395513,0.42938887617303756,-0.05352864881361086
1679688407372500,-0.895094224460212,0.43329518577859183,-0.05413900968947871
1679688407388479,-0.8944838635843442,0.43231860837720326,-0.05816739147020655
1679688407404458,-0.889967193102922,0.4334172579537654,-0.057068741893644415
1679688407420410,-0.8937514305333027,0.43244068055237683,-0.0575570305943387
1679688407436389,-0.8971694514381627,0.4330510414282447,-0.060975051499198685
1679688407452367,-0.8975356679636834,0.4320744640268561,-0.06463721675440626
1679688407468346,-0.8974135957885099,0.4303654535744261,-0.0640268558785384
1679688407484325,-0.8941176470588235,0.4287785152971697,-0.06610208285648911
1679688407500304,-0.8954604409857327,0.4321965362020297,-0.06744487678339839
1679688407516283,-0.8954604409857327,0.4303654535744261,-0.06903181506065481
1679688407532261,-0.898512245365072,0.4289005874723433,-0.06756694895857196
1679688407548240,-0.900221255817502,0.43451590753032754,-0.06732280460822482
1679688407564219,-0.8957045853360799,0.42780193789578114,-0.07086289768825837
1679688407580198,-0.8932631418326085,0.424139772640574,-0.07635614557106907
1679688407596177,-0.8969253070878156,0.4245059891660947,-0.0800183108262762
1679688407612156,-0.9000991836423284,0.4220645456626233,-0.07647821774624264
1679688407628134,-0.8996108949416342,0.42316319523918544,-0.07769893949797835
1679688407644113,-0.8996108949416342,0.42951094834821113,-0.09381246662088971
1679688407660092,-0.9066910811017013,0.4392767223620968,-0.09942778667887398
1679688407676071,-0.9209735255970091,0.4408636606393532,-0.0753795681696805
1679688407692050,-0.9091325246051727,0.4279240100709547,-0.07672236209658978
1679688407708028,-0.8992446784161134,0.4199893186846726,-0.08953994048981473
1679688407724007,-0.896803234912642,0.41937895780880474,-0.0905165178912033
1679688407739959,-0.8999771114671549,0.42023346303501974,-0.0867322804608226
1679688407755938,-0.9033951323720149,0.4263370717936983,-0.08392462043183047
1679688407771917,-0.9032730601968413,0.42645914396887186,-0.0879530022125583
1679688407787896,-0.905348287174792,0.42645914396887186,-0.08770885786221116
1679688407803875,-0.9052262149996184,0.424994277866789,-0.08062867170214405
1679688407819853,-0.9031509880216677,0.41974517433432545,-0.07806515602349906
1679688407835832,-0.895094224460212,0.42279697871366473,-0.08136110475318548
1679688407851811,-0.8864271000228885,0.426703288319219,-0.08270389868009476
1679688407867790,-0.8906996261539635,0.4279240100709547,-0.08282597085526833
1679688407883769,-0.8924086366063935,0.42780193789578114,-0.07977416647592905
1679688407899747,-0.8953383688105592,0.4262149996185247,-0.06988632028686981
1679688407915726,-0.8969253070878156,0.42267490653849116,-0.07342641336690336
1679688407931705,-0.8947280079346913,0.4184023804074162,-0.0733043411917298
1679688407947684,-0.8941176470588235,0.4170595864805069,-0.07647821774624264
1679688407963663,-0.8979018844892042,0.4184023804074162,-0.07769893949797835
1679688407979642,-0.898512245365072,0.41425192645151476,-0.07086289768825837
1679688407995620,-0.8981460288395513,0.4153505760280769,-0.07049668116273766
1679688408011599,-0.8960708018616006,0.40973525597009264,-0.07794308384832549
1679688408027578,-0.8894789044022278,0.4036316472114141,-0.07513542381933336
1679688408043557,-0.8952162966353856,0.40302128633554624,-0.07660028992141621
1679688408059539,-0.9048599984740977,0.4069275959411005,-0.0800183108262762
1679688408075518,-0.9210955977721826,0.41351949340047334,-0.0850232700083926
1679688408091497,-0.9298847943846797,0.4119325551232169,-0.08368047608148332
1679688408107476,-0.9319600213626305,0.4048523689631498,-0.08599984740978117
1679688408123455,-0.9291523613336383,0.3998474097810334,-0.08844129091325259
1679688408139433,-0.9230487525749598,0.39545281147478484,-0.08831921873807902
1679688408155412,-0.9174334325169755,0.3921568627450984,-0.09015030136568258
1679688408171391,-0.911329823758297,0.39203479056992485,-0.09027237354085615
1679688408187370,-0.912184328984512,0.3964293888761734,-0.09137102311741829
1679688408203349,-0.9125505455100327,0.395696955825132,-0.09246967269398043
1679688408219328,-0.9137712672617684,0.3950865949492641,-0.09027237354085615
1679688408235306,-0.9127946898603798,0.3967956054016941,-0.09198138399328615
1679688408251285,-0.9140154116121155,0.397405966277562,-0.09405661097123685
1679688408267264,-0.9098649576562141,0.39618524452582626,-0.09100480659189758
1679688408283243,-0.9119401846341648,0.3969176775768677,-0.08917372396429402
1679688408299222,-0.9126726176852062,0.395696955825132,-0.08905165178912045
1679688408315200,-0.9124284733348591,0.396551461051347,-0.08978408484016187
1679688408331179,-0.9120622568093384,0.3960631723506527,-0.08575570305943403
1679688408347158,-0.911329823758297,0.3967956054016941,-0.08026245517662334
1679688408363137,-0.910475318532082,0.397405966277562,-0.0800183108262762
1679688408379119,-0.9114518959334705,0.397405966277562,-0.08172732127870619
1679688408395098,-0.9107194628824291,0.39667353322652055,-0.08319218738078904
1679688408411077,-0.9102311741817348,0.39838254367895054,-0.0838025482566569
1679688408427056,-0.9101091020065613,0.3985046158541241,-0.08282597085526833
1679688408443035,-0.9073014419775691,0.39838254367895054,-0.07904173342488763
1679688408459014,-0.9029068436713206,0.40082398718242196,-0.08026245517662334
1679688408474992,-0.9041275654230563,0.40253299763485195,-0.08307011520561547
1679688408490971,-0.9047379262989241,0.4035095750362405,-0.08270389868009476
1679688408506950,-0.9063248645761806,0.4032654306858934,-0.08197146562905333
1679688408522929,-0.9081559472037841,0.4041199359121084,-0.08050659952697048
1679688408538908,-0.9108415350576027,0.40460822461280266,-0.07940794995040834
1679688408554886,-0.9092545967803463,0.40338750286106695,-0.0800183108262762
1679688408570865,-0.9082780193789577,0.40167849240863696,-0.07989623865110262
1679688408586844,-0.9080338750286105,0.4031433585107198,-0.08148317692835905
1679688408602823,-0.9102311741817348,0.4026550698100255,-0.08416876478217761
1679688408618802,-0.9110856794079498,0.4026550698100255,-0.08392462043183047
1679688408634781,-0.9132829785610741,0.40289921416037267,-0.08331425955596261
1679688408650759,-0.9119401846341648,0.40216678110933124,-0.08429083695735118
1679688408666738,-0.9114518959334705,0.4026550698100255,-0.08624399176012831
1679688408682717,-0.911329823758297,0.40119020370794267,-0.08661020828564903
1679688408698669,-0.9109636072327763,0.4035095750362405,-0.08416876478217761
1679688408714647,-0.9092545967803463,0.4043640802624555,-0.0850232700083926
1679688408730626,-0.909620813305867,0.40338750286106695,-0.08319218738078904
1679688408746604,-0.9073014419775691,0.4014343480582898,-0.08245975432974761
1679688408762582,-0.9085221637293048,0.4036316472114141,-0.08282597085526833
1679688408778561,-0.9081559472037841,0.40460822461280266,-0.07940794995040834
1679688408794539,-0.9103532463569084,0.40460822461280266,-0.07940794995040834
1679688408810517,-0.9105973907072555,0.4043640802624555,-0.07940794995040834
1679688408826496,-0.9120622568093384,0.4041199359121084,-0.07843137254901977
1679688408842474,-0.9109636072327763,0.4024109254596784,-0.07757686732280478
1679688408858452,-0.9108415350576027,0.4043640802624555,-0.07867551689936692
1679688408874431,-0.9102311741817348,0.40375371938658766,-0.07806515602349906
1679688408890409,-0.9105973907072555,0.40668345159075336,-0.07843137254901977
1679688408906387,-0.9110856794079498,0.40509651331349694,-0.07733272297245763
1679688408922366,-0.9115739681086441,0.4043640802624555,-0.07464713511863907
1679688408938344,-0.9105973907072555,0.4057068741893648,-0.07708857862211049
1679688408954322,-0.9088883802548255,0.4041199359121084,-0.07647821774624264
1679688408970301,-0.9057145037003127,0.40680552376592694,-0.07891966124971406
1679688408986279,-0.907057297627222,0.40766002899214193,-0.0791638056000612
1679688409002257,-0.909620813305867,0.4072938124666212,-0.07513542381933336
1679688409018249,-0.9099870298313877,0.4079041733424891,-0.07354848554207694
1679688409034228,-0.9091325246051727,0.4064393072404062,-0.07415884641794479
1679688409050207,-0.9066910811017013,0.40851453421835693,-0.07513542381933336
1679688409066186,-0.9075455863279163,0.4082703898680098,-0.07354848554207694
1679688409082164,-0.9063248645761806,0.4081483176928362,-0.07171740291447337
1679688409098143,-0.9091325246051727,0.40753795681696836,-0.07171740291447337
1679688409114122,-0.9073014419775691,0.4098573281452662,-0.07013046463721695
1679688409130101,-0.9074235141527427,0.41181048294804334,-0.06988632028686981
1679688409146080,-0.907911802853437,0.41217669947356406,-0.0733043411917298
1679688409162058,-0.906202792401007,0.4107118333714812,-0.0736705577172505
1679688409178037,-0.9057145037003127,0.41339742122529977,-0.07464713511863907
1679688409194016,-0.9099870298313877,0.4136415655756469,-0.07269398031586194
1679688409209995,-0.9097428854810405,0.4102235446707869,-0.07293812466620908
1679688409225974,-0.9081559472037841,0.40802624551766264,-0.07147325856412623
1679688409241953,-0.9102311741817348,0.4115663385976962,-0.0724498359655148
1679688409257931,-0.9105973907072555,0.4187685969329369,-0.07403677424277122
1679688409273910,-0.9119401846341648,0.4182803082322426,-0.07281605249103551
1679688409289889,-0.9145037003128098,0.4191348134584576,-0.06903181506065481
1679688409305868,-0.9149919890135041,0.41718165865568047,-0.06060883497367797
1679688409321847,-0.9097428854810405,0.41266498817425834,-0.06073090714885154
1679688409337829,-0.9052262149996184,0.40009155413138053,-0.055970092317082276
1679688409353808,-0.9035172045471884,0.40045777065690125,-0.054505226214999425
1679688409369787,-0.9008316166933699,0.4052185854886705,-0.05426108186465228
1679688409385766,-0.903639276722362,0.4099794003204398,-0.053040360112916574
1679688409401744,-0.9040054932478827,0.4079041733424891,-0.05560387579156156
1679688409417723,-0.9047379262989241,0.4108339055466548,-0.053772793163958
1679688409433702,-0.9077897306782634,0.4129091325246055,-0.05279621576256943
1679688409449681,-0.9093766689555198,0.41303120469977905,-0.0508430609597923
1679688409465660,-0.9065690089265277,0.4077821011673155,-0.054627298390172996
1679688409481639,-0.9060807202258334,0.40924696726939835,-0.05426108186465228
1679688409497617,-0.9054703593499656,0.4093690394445719,-0.054505226214999425
1679688409513596,-0.9081559472037841,0.4082703898680098,-0.0575570305943387
1679688409529575,-0.9076676585030898,0.4094911116197455,-0.06146334019989297
1679688409545554,-0.9065690089265277,0.41132219424734906,-0.06341649500267055
1679688409561533,-0.9060807202258334,0.40888075074387764,-0.062195773250934394
1679688409577511,-0.9049820706492713,0.41010147249561335,-0.05865568017090084
1679688409593490,-0.9043717097734034,0.4122987716487376,-0.06060883497367797
1679688409609469,-0.9051041428244448,0.41425192645151476,-0.07257190814068837
1679688409625448,-0.9099870298313877,0.4131532768749526,-0.07891966124971406
1679688409641427,-0.9209735255970091,0.4140077821011676,-0.06292820630197626
1679688409657379,-0.910475318532082,0.4216983291371026,-0.06378271152819126
1679688409673357,-0.9059586480506598,0.41644922560463904,-0.06549172198062125
1679688409689335,-0.9024185549706263,0.4119325551232169,-0.06817730983443981
1679688409705314,-0.9033951323720149,0.41901274128328403,-0.07501335164415979
1679688409721292,-0.9084000915541313,0.4182803082322426,-0.07379262989242408
1679688409737270,-0.9088883802548255,0.41596093690394476,-0.06720073243305125
1679688409753249,-0.9093766689555198,0.4102235446707869,-0.06610208285648911
1679688409769227,-0.9084000915541313,0.40802624551766264,-0.06817730983443981
1679688409785205,-0.9092545967803463,0.4026550698100255,-0.0678110933089191
1679688409801184,-0.9093766689555198,0.4041199359121084,-0.07098496986343195
1679688409817162,-0.9065690089265277,0.4069275959411005,-0.07428091859311836
1679688409833140,-0.9048599984740977,0.4112001220721755,-0.0800183108262762
1679688409849119,-0.905348287174792,0.4165712977798126,-0.07550164034485407
1679688409865097,-0.906202792401007,0.41889066910811046,-0.0715953307392998
1679688409881075,-0.9086442359044784,0.4132753490501262,-0.07306019684138265
1679688409897054,-0.9080338750286105,0.4099794003204398,-0.07354848554207694
1679688409913032,-0.9082780193789577,0.41425192645151476,-0.07232776379034123
1679688409929010,-0.9086442359044784,0.421576256961929,-0.06964217593652267
1679688409944989,-0.9125505455100327,0.4270695048447397,-0.06683451590753053
1679688409960967,-0.915602349889372,0.42902265964751685,-0.07354848554207694
1679688409976959,-0.9167009994659341,0.4299992370489054,-0.07122911421377909
1679688409992937,-0.9088883802548255,0.4216983291371026,-0.0715953307392998
1679688410008916,-0.9009536888685434,0.40717174029144765,-0.06512550545510054
1679688410024894,-0.8915541313801785,0.39166857404440414,-0.051819638361180864
1679688410040872,-0.8841077286945906,0.3855649652857256,-0.04351873044937804
1679688410056851,-0.8874036774242771,0.38580910963607273,-0.03826962691691449
1679688410072829,-0.9015640497444113,0.3964293888761734,-0.04095521477073305
1679688410088807,-0.9202410925459676,0.4107118333714812,-0.04180971999694805
1679688410104786,-0.9297627222095062,0.4177920195315483,-0.039002059967955915
1679688410120764,-0.9313496604867626,0.41510643167772976,-0.04461738002594018
1679688410136742,-0.9219501029983976,0.41351949340047334,-0.04742504005493231
1679688410152721,-0.9165789272907605,0.4144960708018619,-0.04632639047837017
1679688410168699,-0.9129167620355534,0.4182803082322426,-0.04364080262455161
1679688410184677,-0.9065690089265277,0.42023346303501974,-0.04095521477073305
1679688410200656,-0.8947280079346913,0.41046768902113406,-0.042664225223163044
1679688410216634,-0.8882581826504921,0.4036316472114141,-0.04229800869764233
1679688410232612,-0.8906996261539635,0.40302128633554624,-0.04058899824521234
1679688410248591,-0.901075761043717,0.4072938124666212,-0.0327763790341038
1679688410264569,-0.911329823758297,0.4132753490501262,-0.029846646829938095
1679688410280547,-0.9134050507362477,0.4157167925535976,-0.02935835812924381
1679688410296539,-0.9103532463569084,0.41730373083085404,-0.02777141985198739
1679688410312518,-0.9081559472037841,0.41937895780880474,-0.025085831998168828
1679688410328497,-0.9055924315251391,0.4174258030060276,-0.02679484245059882
1679688410344475,-0.9065690089265277,0.4131532768749526,-0.022278171969176697
1679688410360454,-0.9110856794079498,0.40839246204318336,-0.0214236667429617
1679688410376433,-0.9136491950865948,0.4074158846417948,-0.019348439765010994
1679688410392412,-0.9123064011596855,0.4099794003204398,-0.018493934538795997
1679688410408391,-0.9097428854810405,0.40961318379491907,-0.019470511940184565
1679688410424369,-0.9080338750286105,0.4103456168459605,-0.02398718242160669
1679688410440348,-0.9041275654230563,0.41522850385290333,-0.026062409399557396
1679688410456327,-0.9052262149996184,0.41596093690394476,-0.026916914625772392
1679688410472306,-0.9082780193789577,0.4170595864805069,-0.029480430304417382
1679688410488285,-0.9094987411306934,0.41681544213015975,-0.027649347676813818
1679688410504264,-0.9101091020065613,0.4153505760280769,-0.030823224231326662
1679688410520242,-0.9112077515831234,0.4124208438239112,-0.031311512932020946
1679688410536221,-0.910475318532082,0.40961318379491907,-0.030090791180285237
1679688410552200,-0.9110856794079498,0.41058976119630763,-0.03265430685893023
1679688410568179,-0.9093766689555198,0.4131532768749526,-0.031067368581673804
1679688410584158,-0.9051041428244448,0.41474021515220905,-0.028747997253375956
1679688410600136,-0.9052262149996184,0.4174258030060276,-0.02423132677195383
1679688410616088,-0.9081559472037841,0.4175478751812012,-0.014343480582894585
1679688410632067,-0.9143816281376362,0.42096589608606116,-0.00848401617456318
1679688410648045,-0.9120622568093384,0.4148622873273826,-0.015075913633936011
1679688410664024,-0.9003433279926756,0.39618524452582626,-0.026184481574730967
1679688410680002,-0.8855725947966735,0.3881284809643706,-0.041565575646600905
1679688410695980,-0.8781261921110857,0.3800717174029149,-0.04107728694590662
1679688410711959,-0.893385214007782,0.3779964904249642,-0.02789349202716096
1679688410727937,-0.9048599984740977,0.3943541618982227,-0.015686274509803866
1679688410743915,-0.9054703593499656,0.42230869001297044,-0.051941710536354435
1679688410759894,-0.9246356908522162,0.4750438696879531,-0.08319218738078904
1679688410775872,-0.9436789501792937,0.49530785076676587,-0.09112687876707115
1679688410791850,-0.9425803006027316,0.46894026092927454,-0.07257190814068837
1679688410807829,-0.931227588311589,0.4350041962310218,-0.06512550545510054
1679688410823807,-0.9029068436713206,0.38776226443884987,-0.06280613412680269
1679688410839785,-0.8839856565194171,0.36774242771038335,-0.06073090714885154
1679688410855764,-0.8971694514381627,0.40680552376592694,-0.062195773250934394
1679688410871742,-0.8960708018616006,0.44110780498970037,-0.08453498130769832
1679688410887720,-0.8971694514381627,0.461982146944381,-0.10199130235751896
1679688410903699,-0.9662623025864043,0.4472114137483789,-0.019348439765010994
1679688410919677,-0.9418478675516901,0.3867856870374613,0.004333562218661768
1679688410935669,-0.8844739452201114,0.35053025101090984,-0.03338673990997165
1679688410951647,-0.8596932936598765,0.38153658350499775,-0.07122911421377909
1679688410967625,-0.8631113145647364,0.41766994735637475,-0.07989623865110262
1679688410983604,-0.8834973678187228,0.46393530174715814,-0.0838025482566569
1679688410999582,-0.8994888227664606,0.4564888990615703,-0.0829480430304419
1679688411015560,-0.9068131532768748,0.42767986572060757,-0.058533607995727266
1679688411031539,-0.9008316166933699,0.40497444113832337,-0.04718089570458517
1679688411047517,-0.8996108949416342,0.40253299763485195,-0.044129091325245895
1679688411063495,-0.8944838635843442,0.4153505760280769,-0.06353856717784412
1679688411079474,-0.8852063782711528,0.4317082475013354,-0.08722056916151688
1679688411095452,-0.8830090791180285,0.432684824902724,-0.09796292057679112
1679688411111430,-0.8845960173952849,0.43244068055237683,-0.09881742580300612
1679688411127409,-0.8980239566643777,0.4299992370489054,-0.08978408484016187
1679688411143387,-0.9181658655680169,0.4385442893110554,-0.07611200122072193
1679688411159365,-0.9184100099183641,0.4271915770199133,-0.06720073243305125
1679688411175344,-0.9102311741817348,0.4166933699549862,-0.0678110933089191
1679688411191322,-0.903639276722362,0.4112001220721755,-0.0669565880827041
1679688411207300,-0.903639276722362,0.4177920195315483,-0.06732280460822482
1679688411223279,-0.9065690089265277,0.4229190508888383,-0.06890974288548124
1679688411239257,-0.9026626993209734,0.42230869001297044,-0.06414892805371197
1679688411255249,-0.906202792401007,0.4098573281452662,-0.05902189669642155
1679688411271227,-0.9098649576562141,0.40753795681696836,-0.057190814068817986
1679688411287205,-0.915602349889372,0.40717174029144765,-0.051941710536354435
1679688411303184,-0.9195086594949262,0.40717174029144765,-0.05352864881361086
1679688411319162,-0.9184100099183641,0.4072938124666212,-0.053162432288090145
1679688411335140,-0.9146257724879834,0.4032654306858934,-0.05487144274052014
1679688411351119,-0.9137712672617684,0.40509651331349694,-0.05401693751430514
1679688411367097,-0.9151140611886777,0.4166933699549862,-0.0567025253681237
1679688411383075,-0.9142595559624627,0.4160830090791183,-0.06121919584954583
1679688411399054,-0.9091325246051727,0.4129091325246055,-0.06060883497367797
1679688411415032,-0.9046158541237506,0.4036316472114141,-0.05535973144121442
1679688411431010,-0.9052262149996184,0.39081406881818914,-0.03826962691691449
1679688411446989,-0.9129167620355534,0.41303120469977905,-0.04095521477073305
1679688411462967,-0.9105973907072555,0.43744563973449324,-0.07208361943999408
1679688411478945,-0.9022964827954527,0.41181048294804334,-0.06829938200961339
1679688411494924,-0.9060807202258334,0.40851453421835693,-0.0499885557335773
1679688411510902,-0.912184328984512,0.41010147249561335,-0.03595025558861664
1679688411526880,-0.9141374837872891,0.4137636377508205,-0.03704890516517878
1679688411542859,-0.9090104524299991,0.4120546272983905,-0.04486152437628732
1679688411558837,-0.9024185549706263,0.4093690394445719,-0.050598916609445155
1679688411574798,-0.9014419775692377,0.41266498817425834,-0.04852368963149445
1679688411590777,-0.9029068436713206,0.4116884107728698,-0.04364080262455161
1679688411606755,-0.9055924315251391,0.40888075074387764,-0.03741512169069949
1679688411622733,-0.9077897306782634,0.41266498817425834,-0.03704890516517878
1679688411638712,-0.9102311741817348,0.4132753490501262,-0.03936827649347663
1679688411654690,-0.9092545967803463,0.41181048294804334,-0.036194399938963784
1679688411670668,-0.9142595559624627,0.4081483176928362,-0.03167772945754166
1679688411686647,-0.9145037003128098,0.40631723506523265,-0.024353398947127403
1679688411702625,-0.9120622568093384,0.40009155413138053,-0.02642862592507811
1679688411718603,-0.9154802777141984,0.39459830624856984,-0.03057907988097952
1679688411734582,-0.9165789272907605,0.4041199359121084,-0.03070115205615309
1679688411750560,-0.9129167620355534,0.4077821011673155,-0.03167772945754166
1679688411766538,-0.9124284733348591,0.40509651331349694,-0.034973678187228074
1679688411782517,-0.9131609063859005,0.4070496681162741,-0.03460746166170736
1679688411798495,-0.9169451438162812,0.40802624551766264,-0.03448538948653379
1679688411814473,-0.9175555046921491,0.41132219424734906,-0.03326466773479808
1679688411830452,-0.9196307316700998,0.4140077821011676,-0.03326466773479808
1679688411846430,-0.9190203707942319,0.4208438239108876,-0.03424124513618665
1679688411862408,-0.914747844663157,0.42389562829022687,-0.031067368581673804
1679688411878387,-0.9102311741817348,0.42182040131227616,-0.021911955443655984
1679688411894348,-0.907911802853437,0.4027771419851991,-0.009948882276646032
1679688411910326,-0.9091325246051727,0.40082398718242196,-0.0012817578393224949
1679688411926304,-0.9092545967803463,0.4052185854886705,0.0020141908903639205
1679688411942283,-0.9060807202258334,0.4057068741893648,-0.00457770656900891
1679688411958261,-0.9015640497444113,0.40839246204318336,-0.005920500495918191
1679688411974239,-0.900221255817502,0.40375371938658766,6.103608758678547E-5
1679688411990218,-0.9018081940947584,0.4032654306858934,0.0022583352407110624
1679688412006196,-0.9086442359044784,0.4039978637369348,0.005920500495918191
1679688412022174,-0.9129167620355534,0.40802624551766264,0.007629510948348184
1679688412038153,-0.9143816281376362,0.4099794003204398,0.004821850919356052
1679688412054131,-0.912184328984512,0.4077821011673155,0.002868696116578917
1679688412070109,-0.9086442359044784,0.4064393072404062,-0.0017700465400167786
1679688412086088,-0.9109636072327763,0.40924696726939835,-0.004943923094529623
1679688412102066,-0.9142595559624627,0.4072938124666212,0.001037613488975353
1679688412118044,-0.914747844663157,0.4099794003204398,-0.0014038300144960658
1679688412134023,-0.914747844663157,0.41266498817425834,0.001159685664148924
1679688412150001,-0.9131609063859005,0.4119325551232169,-0.0022583352407110624
1679688412165979,-0.909620813305867,0.41803616388189546,-0.007629510948348184
1679688412181958,-0.9075455863279163,0.4191348134584576,-0.0109254596780346
1679688412197936,-0.9085221637293048,0.4153505760280769,-0.009216449225604606
1679688412213928,-0.9094987411306934,0.41058976119630763,-0.006286717021438903
1679688412229906,-0.9126726176852062,0.40680552376592694,-0.005188067444876765
1679688412245885,-0.913038834210727,0.4057068741893648,-0.005188067444876765
1679688412261863,-0.9140154116121155,0.4098573281452662,-0.007995727473868897
1679688412277841,-0.9124284733348591,0.41217669947356406,-0.014465552758068156
1679688412293820,-0.9101091020065613,0.4141298542763412,-0.01373311970702673
1679688412309798,-0.9085221637293048,0.4144960708018619,-0.014099336232547444
1679688412325776,-0.9081559472037841,0.4129091325246055,-0.006897077897306758
1679688412341755,-0.9066910811017013,0.4179140917067219,-0.0018921187151903496
1679688412357733,-0.9049820706492713,0.41644922560463904,-0.003112840466926059
1679688412373711,-0.9041275654230563,0.41510643167772976,-0.006408789196612474
1679688412389690,-0.9065690089265277,0.41217669947356406,-0.0015259021896696368
1679688412405668,-0.9090104524299991,0.4103456168459605,0.003356984817273201
1679688412421646,-0.9146257724879834,0.40839246204318336,0.0040894178683146265
1679688412437625,-0.9169451438162812,0.4081483176928362,0.001037613488975353
1679688412453603,-0.9137712672617684,0.40888075074387764,-0.0016479743648432077
1679688412469581,-0.9097428854810405,0.4116884107728698,-0.0038452735179674846
1679688412485560,-0.9077897306782634,0.41339742122529977,-0.0026245517662317752
1679688412501538,-0.909620813305867,0.4153505760280769,-0.002990768291752488
1679688412517516,-0.9131609063859005,0.4191348134584576,-0.009460593575951748
1679688412533477,-0.9158464942397191,0.42609292744335114,-0.017029068436713146
1679688412549456,-0.9174334325169755,0.42645914396887186,-0.020813305867093845
1679688412565434,-0.9358663309681847,0.4552681773098346,-0.031189440756847375
1679688412581412,-0.9538109407187001,0.5271686884870679,-0.050720988784618726
1679688412597391,-0.9694361791409172,0.5742885481040663,-0.05902189669642155
1679688412613369,-0.9629663538567179,0.5446250095368885,-0.025818265049210254
1679688412629347,-0.954421301594568,0.44623483634699035,0.0470588235294116
1679688412645326,-0.9270771343556876,0.390569924467842,0.07867551689936647
1679688412661304,-0.9035172045471884,0.34247348744945416,0.09002822919050857
1679688412677282,-0.8701915007248036,0.24896620126649882,0.11078049897001563
1679688412693261,-0.8601815823605707,0.19305714503700333,0.13580529488059856
1679688412709239,-0.8781261921110857,0.20257877470054186,0.1553368429083699
1679688412725217,-0.9004654001678492,0.2444495307850767,0.17291523613336413
1679688412741196,-0.899366750591287,0.2477454795147631,0.17462424658579412
1679688412757174,-0.9167009994659341,0.28961623559929794,0.1511863889524685
1679688412773152,-0.9251239795529105,0.36481269550621764,0.11920347905699202
1679688412789131,-0.9282978561074233,0.40253299763485195,0.11395437552452847
1679688412805109,-0.9336690318150604,0.41559472037842404,0.11663996337834703
1679688412821087,-0.9350118257419697,0.39826047150377697,0.11969176775768631
1679688412837066,-0.9262226291294726,0.3616388189517048,0.12494087129014986
1679688412853057,-0.9199969481956205,0.33575951781490776,0.11993591210803345
1679688412869036,-0.9198748760204469,0.33990997177080917,0.11944762340733917
1679688412885014,-0.9206073090714884,0.35004196231021556,0.11407644769970204
1679688412900992,-0.9195086594949262,0.34967574578469485,0.10955977721827992
1679688412916971,-0.9201190203707941,0.34332799267566916,0.10089265278095638
1679688412932949,-0.9370870527199204,0.3645685511558705,0.0861219195849543
1679688412948928,-0.9485618371862365,0.41803616388189546,0.07196154726482007
1679688412964906,-0.9478294041351951,0.4614938582436867,0.058289463645380124
1679688412980884,-0.9442893110551616,0.45673304341191745,0.05682459754329727
1679688412996863,-0.9248798352025633,0.38654154268711416,0.06964217593652222
1679688413012841,-0.9197528038452734,0.35345998321507555,0.0814831769283586
1679688413028819,-0.9215838864728769,0.3523613336385134,0.08722056916151644
1679688413044798,-0.924391546501869,0.36823071641107763,0.08380254825665645
1679688413060776,-0.9236591134508276,0.3787289234760056,0.07464713511863863
1679688413076754,-0.9203631647211412,0.3814145113298242,0.07135118638895221
1679688413092733,-0.9203631647211412,0.3787289234760056,0.07049668116273722
1679688413108711,-0.9232928969253069,0.3705500877393755,0.07928587777523433
1679688413124689,-0.9208514534218355,0.36151674677653123,0.08331425955596217
1679688413140668,-0.9152361333638512,0.349919890135042,0.08331425955596217
1679688413156646,-0.9090104524299991,0.3423514152742806,0.0794079499504079
1679688413172638,-0.9101091020065613,0.3527275501640341,0.07330434119172935
1679688413188616,-0.9151140611886777,0.3817807278553449,0.06121919584954583
1679688413204594,-0.9245136186770426,0.40973525597009264,0.049134050507362304
1679688413220573,-0.9298847943846797,0.4270695048447397,0.0394903486686502
1679688413236551,-0.932082093537804,0.4296330205233847,0.03167772945754166
1679688413252529,-0.9311055161364155,0.4177920195315483,0.03302052338445094
1679688413268508,-0.9284199282825969,0.39960326543068625,0.035217822537575216
1679688413284486,-0.9280537117570762,0.386297398336767,0.03546196688792236
1679688413300464,-0.925246051728084,0.3838559548332956,0.03314259555962451
1679688413316443,-0.9232928969253069,0.3893492027161063,0.029846646829938095
1679688413332421,-0.9219501029983976,0.3988708323796448,0.02386511024643312
1679688413348399,-0.9219501029983976,0.4103456168459605,0.01739528496223386
1679688413364378,-0.9197528038452734,0.4122987716487376,0.015320057984283153
1679688413380356,-0.9192645151445791,0.40216678110933124,0.016906996261539575
1679688413396334,-0.9187762264438848,0.3952086671244377,0.022278171969176697
1679688413412313,-0.9177996490424962,0.3917906462195777,0.02679484245059882
1679688413428291,-0.9168230716411077,0.3959411001754791,0.023498893720912406
1679688413444269,-0.9175555046921491,0.4115663385976962,0.016906996261539575
1679688413460248,-0.9213397421225298,0.43317311360341826,0.0071412222476539
1679688413476226,-0.9304951552605476,0.44623483634699035,0.0061646448462653325
1679688413492187,-0.9350118257419697,0.4597848477912567,0.011169604028381741
1679688413508165,-0.9370870527199204,0.4456244754711225,0.024841687647821686
1679688413524144,-0.9378194857709623,0.4287785152971697,0.034851606012054503
1679688413540122,-0.9359884031433583,0.4057068741893648,0.054627298390172996
1679688413556100,-0.9348897535667962,0.3864194705119406,0.07928587777523433
1679688413572079,-0.9293965056839855,0.3657892729076062,0.09295796139467427
1679688413588057,-0.910475318532082,0.3317311360341799,0.09271381704432713
1679688413604035,-0.8964370183871213,0.31122301060502,0.0852674143587393
1679688413620014,-0.8958266575112535,0.31317616540779714,0.09161516746776499
1679688413635992,-0.9040054932478827,0.31647211413748355,0.1138323033493549
1679688413651970,-0.9057145037003127,0.2981612878614479,0.13177691309987072
1679688413667949,-0.9116960402838177,0.2995040817883572,0.12384222171358772
1679688413683927,-0.914747844663157,0.341374837872892,0.09857328145265853
1679688413699905,-0.9220721751735712,0.4065613794155798,0.07708857862211005
1679688413715884,-0.935500114442664,0.43988708323796466,0.06976424811169579
1679688413731862,-0.9342793926909283,0.39459830624856984,0.08294804303044145
1679688413747841,-0.9281757839322498,0.35431448844129054,0.09210345616845927
1679688413763819,-0.9210955977721826,0.32904554818036136,0.09137102311741785
1679688413779797,-0.9141374837872891,0.3237964446478978,0.08477912565804502
1679688413795776,-0.9158464942397191,0.34930952925917413,0.07379262989242363
1679688413811767,-0.9265888456549933,0.3960631723506527,0.055970092317082276
1679688413827746,-0.9353780422674904,0.431830319676509,0.04217593652246876
1679688413843724,-0.9378194857709623,0.4442816815442132,0.030945296406500233
1679688413859702,-0.935500114442664,0.431830319676509,0.03155565728236809
1679688413875681,-0.9287861448081176,0.4031433585107198,0.04339665827420447
1679688413891659,-0.9248798352025633,0.38410009918364274,0.05120927748531301
1679688413907637,-0.9207293812466619,0.37531090257114563,0.054627298390172996
1679688413923616,-0.9204852368963148,0.3759212634470135,0.04718089570458517
1679688413939594,-0.9206073090714884,0.3850766765850313,0.04437323567559304
1679688413955572,-0.9231708247501333,0.393987945372702,0.03729304951552592
1679688413971551,-0.9234149691004805,0.39618524452582626,0.03814755474174092
1679688413987529,-0.9259784847791255,0.39533073929961127,0.04119935912108019
1679688414003507,-0.9237811856260012,0.39166857404440414,0.04217593652246876
1679688414019486,-0.9224383916990919,0.3855649652857256,0.044129091325245895
1679688414035464,-0.9218280308232241,0.37982757305256776,0.04522774090180803
1679688414051442,-0.9213397421225298,0.384588387884337,0.041565575646600905
1679688414067421,-0.9198748760204469,0.38861676966506487,0.04119935912108019
1679688414083399,-0.9197528038452734,0.3883726253147177,0.045471885252155175
1679688414099377,-0.9184100099183641,0.38654154268711416,0.04376287479972518
1679688414115356,-0.9177996490424962,0.3834897383077749,0.04571602960250232
1679688414131347,-0.9218280308232241,0.3808041504539563,0.041687647821774476
1679688414147326,-0.9242694743266955,0.386297398336767,0.039002059967955915
1679688414163304,-0.9258564126039519,0.3947203784237434,0.0327763790341038
1679688414179282,-0.9242694743266955,0.39789425497825626,0.03472953383688093
1679688414195261,-0.9215838864728769,0.39325551232166056,0.03668268863965807
1679688414211239,-0.9196307316700998,0.38959334706645343,0.03704890516517878
1679688414227217,-0.9207293812466619,0.39069199664301557,0.03582818341344307
1679688414243196,-0.9223163195239183,0.39069199664301557,0.03155565728236809
1679688414259174,-0.9218280308232241,0.39154650186923057,0.029480430304417382
1679688414275152,-0.9234149691004805,0.39423208972304913,0.028503852903028815
1679688414291131,-0.9193865873197526,0.394842450598917,0.030945296406500233
1679688414307109,-0.9202410925459676,0.3917906462195777,0.03204394598306237
1679688414323087,-0.9195086594949262,0.39337758449683413,0.029602502479590953
1679688414339066,-0.9197528038452734,0.3947203784237434,0.029724574654764524
1679688414355044,-0.9187762264438848,0.3950865949492641,0.029724574654764524
1679688414371022,-0.9190203707942319,0.39252307927061914,0.02789349202716096
1679688414387001,-0.9209735255970091,0.39325551232166056,0.028381780727855244
1679688414402979,-0.9220721751735712,0.3938658731975284,0.029602502479590953
1679688414418957,-0.9225604638742655,0.39166857404440414,0.03057907988097952
1679688414434936,-0.9197528038452734,0.390569924467842,0.028259708552681673
1679688414450897,-0.9182879377431905,0.3926451514457927,0.02789349202716096
1679688414466875,-0.9171892881666284,0.3959411001754791,0.025696192874036683
1679688414482854,-0.9143816281376362,0.39826047150377697,0.02545204852368954
1679688414498832,-0.9169451438162812,0.39716182192721483,0.02423132677195383
1679688414514810,-0.9195086594949262,0.39911497672999197,0.025574120698863112
1679688414530789,-0.9196307316700998,0.4005798428320748,0.024719615472648115
1679688414546767,-0.9173113603418019,0.3997253376058598,0.02276646066987098
1679688414562745,-0.9215838864728769,0.39716182192721483,0.023743038071259548
1679688414578724,-0.9223163195239183,0.39630731670099983,0.02642862592507811
1679688414594702,-0.9231708247501333,0.3976501106279091,0.02777141985198739
1679688414610680,-0.9221942473487448,0.3981383993286034,0.026062409399557396
1679688414626659,-0.9213397421225298,0.3988708323796448,0.021667811093308842
1679688414642637,-0.9190203707942319,0.394842450598917,0.02276646066987098
1679688414658615,-0.9173113603418019,0.3910582131685363,0.02679484245059882
1679688414674594,-0.9187762264438848,0.3902037079423213,0.027161058976119534
1679688414690572,-0.9192645151445791,0.39118028534370985,0.024963759822995257
1679688414706550,-0.9223163195239183,0.39240100709544556,0.02386511024643312
1679688414722529,-0.9242694743266955,0.3921568627450984,0.02423132677195383
1679688414738507,-0.9245136186770426,0.39545281147478484,0.019470511940184565
1679688414754485,-0.9228046082246126,0.39716182192721483,0.019348439765010994
1679688414770477,-0.9209735255970091,0.39960326543068625,0.02410925459678026
1679688414786455,-0.9188982986190584,0.39752803845273554,0.02264438849469741
1679688414802434,-0.9145037003128098,0.395696955825132,0.025085831998168828
1679688414818412,-0.9124284733348591,0.3927672236209663,0.026062409399557396
1679688414834390,-0.9154802777141984,0.3952086671244377,0.028137636377508102
1679688414850369,-0.9182879377431905,0.39703974975204126,0.028137636377508102
1679688414866347,-0.9195086594949262,0.394842450598917,0.0319218738078888
1679688414882325,-0.9177996490424962,0.39154650186923057,0.03216601815823594
1679688414898304,-0.9145037003128098,0.38910505836575915,0.03143358510719452
1679688414914282,-0.9140154116121155,0.3926451514457927,0.03302052338445094
1679688414930260,-0.9181658655680169,0.39545281147478484,0.030945296406500233
1679688414946239,-0.9191424429694055,0.3980163271534298,0.02911421377889667
1679688414962217,-0.9210955977721826,0.397405966277562,0.03167772945754166
1679688414978195,-0.9175555046921491,0.39325551232166056,0.032410162508583085
1679688414994174,-0.9181658655680169,0.39069199664301557,0.029968719005111666
1679688415010152,-0.9215838864728769,0.39154650186923057,0.025696192874036683
1679688415026130,-0.9215838864728769,0.3883726253147177,0.02410925459678026
1679688415042109,-0.9246356908522162,0.38104829480430347,0.01861600671396957
1679688415058087,-0.9192645151445791,0.3762874799725342,0.021911955443655984
1679688415074065,-0.9110856794079498,0.36566720073243264,0.02032501716639956
1679688415090057,-0.8996108949416342,0.35345998321507555,0.02252231631952384
1679688415106035,-0.8753185320820935,0.343938353551537,0.028137636377508102
1679688415122014,-0.8618905928130007,0.3624933241779198,0.03143358510719452
1679688415137992,-0.8688487067978943,0.3994811932555127,0.028747997253375956
1679688415153970,-0.897657740138857,0.44831006332494105,0.010559243152513886
1679688415169949,-0.9258564126039519,0.4854200045777066,-0.011779964904249596
1679688415185927,-0.9505149919890137,0.49445334554055087,-0.03558403906309593
1679688415201905,-0.9477073319600215,0.46601052872510884,-0.04315251392385733
1679688415217884,-0.9479514763103687,0.4397650110627911,-0.038879987792782345
1679688415233862,-0.9361104753185319,0.4271915770199133,-0.03985656519417091
1679688415249840,-0.9192645151445791,0.4237735561150533,-0.04901197833218873
1679688415265819,-0.9090104524299991,0.428412298771649,-0.05743495841916513
1679688415281797,-0.901930266269932,0.42523842221713615,-0.057190814068817986
1679688415297775,-0.9015640497444113,0.42560463874265686,-0.053040360112916574
1679688415313754,-0.9033951323720149,0.42487220569161543,-0.05133134966048658
1679688415329732,-0.911329823758297,0.42352941176470615,-0.049500267032883016
1679688415345710,-0.9129167620355534,0.4251163500419626,-0.04986648355840373
1679688415361689,-0.9124284733348591,0.42645914396887186,-0.04351873044937804
1679688415377667,-0.9033951323720149,0.4274357213702604,-0.03924620431830306
1679688415393645,-0.8949721522850385,0.4329289692530711,-0.03302052338445094
1679688415409607,-0.8906996261539635,0.43280689707789755,-0.027527275501640247
1679688415425585,-0.8875257495994506,0.4289005874723433,-0.026916914625772392
1679688415441563,-0.8911879148546578,0.4291447318226904,-0.028503852903028815
1679688415457542,-0.8979018844892042,0.43903257801174966,-0.031067368581673804
1679688415473520,-0.9033951323720149,0.45502403295948746,-0.023132677195391693
1679688415489498,-0.9007095445181963,0.4308537422751204,-0.02032501716639956
1679688415505477,-0.907911802853437,0.3893492027161063,0.002990768291752488
1679688415521455,-0.9132829785610741,0.38019378957808847,0.010315098802166744
1679688415537433,-0.9154802777141984,0.3850766765850313,0.007019150072480329
1679688415553412,-0.9193865873197526,0.40009155413138053,0.002746623941405346
1679688415569390,-0.9188982986190584,0.4064393072404062,0.001037613488975353
