Timestamp (microseconds),Gyro X (°/s),Gyro Y (°/s),Gyro Z (°/s)
1679688390801880,-16.49500267032886,15.060654612039343,-10.727092393377575
1679688390817875,-19.607843137254918,16.6781109330891,-14.206149385824347
1679688390833870,-24.55176623178454,18.6007476920729,-16.800183108262786
1679688390849865,-30.38071259632261,19.54680704966802,-18.11245899137873
1679688390865860,-38.681620508125434,19.82146944380861,-18.326085297932423
1679688390881855,-46.82993820096124,17.1053635461966,-18.20401312275885
1679688390897850,-50.61417563134205,12.191958495460426,-16.372930495155288
1679688390913845,-51.346608682383476,6.912336919203426,-14.480811779964824
1679688390929840,-50.49210345616848,2.3651483939879654,-12.283512626840547
1679688390945835,-45.365072098878386,-0.6866559853513081,-10.849164568551146
1679688390961830,-36.66742961776151,-2.639810788128443,-9.41481651026163
1679688390977825,-26.44388494697489,-3.799496452277367,-8.010986495765565
1679688390993820,-16.922255283436357,-3.0670634012359415,-7.40062561989771
1679688391009815,-10.055695429922935,-1.144426642252256,-7.888914320591994
1679688391025810,-6.2714579995422355,0.8087281605248791,-8.316166933699492
1679688391041805,-5.0202182040130765,1.6937514305333252,-7.156481269550568
1679688391057800,-5.172808422980097,0.106813153276903,-4.684519722285813
1679688391073795,-5.386434729533789,-3.341725795376533,-1.8158236057068962
1679688391089790,-3.891050583657602,-4.623483634699028,0.22888532845047393
1679688391105785,1.5106431677729688,-2.1210040436408235,2.334630350194516
1679688391121765,9.750514991989007,3.0365453574426056,4.3183031967651
1679688391137760,18.814373998626593,7.55321583886473,4.86762798504617
1679688391153755,26.87113756008239,10.269321736476627,4.043640802624509
1679688391169750,30.07553215838857,10.605020218204004,4.1962310215915295
1679688391185745,26.23025864042097,7.888914320591994,4.715037766079149
1679688391201740,19.363698786907662,5.569542992294146,5.142290379186647
1679688391217735,14.938582436865772,5.905241474021523,5.477988860914024
1679688391233730,13.534752422369706,7.980468451972229,4.776073853665935
1679688391249725,14.908064393072323,9.842069123369129,3.799496452277367
1679688391265720,17.22743572137017,10.360875867856862,3.8300144960708167
1679688391281715,18.02090485999838,8.651865415426869,4.348821240558436
1679688391297710,16.952773327229693,6.088349736781879,4.409857328145222
1679688391313705,14.511329823758274,3.921568627450938,3.9826047150377235
1679688391329700,11.42900740062555,2.761882963302014,3.1891355764095124
1679688391345695,7.949950408178779,2.3956664377813013,1.6327153429465397
1679688391361690,5.264362554360218,2.1210040436408235,0.106813153276903
1679688391377685,3.6469062333104603,1.7242694743266611,-0.9613183794918996
1679688391393680,2.6703288319218927,1.266498817425827,-1.5716792553597543
1679688391409675,1.968413824673803,1.052872510872021,-1.8768596932936816
1679688391425670,0.9002822919051141,1.144426642252256,-2.090485999847374
1679688391441681,-1.022354467078685,1.6021972991530902,-2.6703288319218927
1679688391457676,-3.1586175326161765,1.9989318684672526,-3.250171663996298
1679688391473671,-4.562447547112242,2.1210040436408235,-3.463797970550104
1679688391489666,-4.531929503318793,2.1210040436408235,-3.4332799267566543
1679688391505661,-3.463797970550104,2.1515220874341594,-3.128099488822727
1679688391521656,-2.2735942626077303,2.1515220874341594,-2.7008468757152286
1679688391537651,-1.6937514305333252,2.4567025253680868,-2.3956664377813013
1679688391553646,-1.4496070801861833,2.7008468757152286,-2.4567025253680868
1679688391569641,-1.2054627298390415,2.4872205691615363,-2.5787747005416577
1679688391585636,-0.93080033569845,1.968413824673803,-2.4567025253680868
1679688391601631,-0.5340657663844013,1.2054627298390415,-2.0294499122605885
1679688391617626,0.045777065690117524,0.6256198977645226,-1.6021972991530902
1679688391633621,0.8392462043183286,0.38147554741738077,-1.3885709925993979
1679688391649616,1.6632333867398756,0.3509575036240449,-1.3275349050126124
1679688391665611,2.1515220874341594,-0.015259021896667946,-1.2054627298390415
1679688391681606,2.761882963302014,-0.7171740291447577,-0.5340657663844013
1679688391697601,3.4332799267566543,-1.4801251239795192,0.19836728465702436
1679688391713596,3.8300144960708167,-1.7242694743266611,0.16784924086368846
1679688391729591,4.013122758831173,-1.5716792553597543,-0.07629510948345342
1679688391745586,3.0670634012359415,-1.4496070801861833,-0.4730296787976158
1679688391761322,1.846341649500232,-1.052872510872021,-1.1749446860455919
1679688391777316,0.3204394598305953,-0.5340657663844013,-1.6937514305333252
1679688391793310,-0.07629510948345342,-0.3204394598305953,-1.9073777370870175
1679688391809304,1.2359807736323773,-0.07629510948345342,-1.9989318684672526
1679688391825298,4.562447547112242,0.7171740291447577,-1.6327153429465397
1679688391841292,8.682383459220205,1.8158236057068962,-0.8697642481116645
1679688391857286,12.466620889600904,1.968413824673803,0.7171740291447577
1679688391873280,15.182726787212914,1.5106431677729688,2.3651483939879654
1679688391889274,17.196917677576835,1.052872510872021,3.341725795376533
1679688391905268,18.509193560692665,0.8392462043183286,4.043640802624509
1679688391921262,19.66887922484159,0.6866559853513081,4.470893415732007
1679688391937256,19.0280003051804,0.5645838101777372,4.409857328145222
1679688391953251,16.6781109330891,0.38147554741738077,4.1962310215915295
1679688391969245,13.534752422369706,-0.045777065690117524,4.043640802624509
1679688391985239,10.513466086823769,-0.8087281605248791,3.799496452277367
1679688392001233,7.949950408178779,-1.3885709925993979,3.219653620202962
1679688392017227,6.2714579995422355,-1.2970168612191628,2.334630350194516
1679688392033221,5.0202182040130765,-0.6256198977645226,0.9613183794918996
1679688392049215,3.8300144960708167,-0.2594033722438098,-0.2899214160372594
1679688392065209,2.639810788128443,-0.16784924086368846,-1.2054627298390415
1679688392080932,2.0294499122605885,-0.045777065690117524,-1.5716792553597543
1679688392096925,1.968413824673803,0.106813153276903,-1.5716792553597543
1679688392112918,2.334630350194516,-0.2594033722438098,-1.052872510872021
1679688392128912,2.6703288319218927,-0.7476920729380936,-0.6256198977645226
1679688392144905,3.1586175326161765,-1.144426642252256,-0.4730296787976158
1679688392160898,3.585870145723675,-1.4496070801861833,-0.6256198977645226
1679688392176891,4.135194934004744,-0.8087281605248791,-1.7242694743266611
1679688392192884,4.684519722285813,-0.106813153276903,-2.8229190508887996
1679688392208877,4.83710994125272,0.9613183794918996,-4.409857328145222
1679688392224870,5.081254291599862,1.1139085984588064,-4.86762798504617
1679688392240863,4.989700160219741,1.2970168612191628,-4.562447547112242
1679688392256857,4.440375371938671,0.7171740291447577,-3.1586175326161765
1679688392272850,3.768978408484031,0.07629510948345342,-1.7853055619134466
1679688392288843,3.3112077515830833,-0.07629510948345342,-0.6866559853513081
1679688392304836,3.3112077515830833,0.7171740291447577,-0.045777065690117524
1679688392320829,3.1891355764095124,0.9613183794918996,0.5340657663844013
1679688392336822,2.7924010070954637,1.0833905546654705,0.6561379415579722
1679688392352815,3.006027313649156,1.3885709925993979,0.4730296787976158
1679688392368808,3.372243839169869,1.7853055619134466,-0.19836728465702436
1679688392384801,3.9520866712443876,2.3956664377813013,-1.5411612115663047
1679688392400512,4.440375371938671,2.7924010070954637,-2.3956664377813013
1679688392416504,4.776073853665935,3.128099488822727,-2.883955138475585
1679688392432496,4.684519722285813,3.677424277103796,-2.6703288319218927
1679688392448487,4.776073853665935,3.768978408484031,-2.090485999847374
1679688392464479,4.654001678492364,3.7384603646905816,-1.937895780880467
1679688392480471,4.989700160219741,3.6163881895170107,-1.9989318684672526
1679688392496462,5.691615167467717,3.5248340581368893,-1.9989318684672526
1679688392512454,6.088349736781879,4.1046768902112944,-2.5177386129548722
1679688392528446,5.386434729533789,4.86762798504617,-2.9144731822690346
1679688392544438,4.440375371938671,5.0202182040130765,-2.7008468757152286
1679688392560429,3.7384603646905816,4.745555809872599,-2.182040131227609
1679688392576421,3.4332799267566543,4.287785152971651,-1.968413824673803
1679688392592413,2.548256656748322,3.8300144960708167,-1.9073777370870175
1679688392608404,1.6632333867398756,3.1586175326161765,-1.3885709925993979
1679688392624396,1.144426642252256,3.463797970550104,-1.7242694743266611
1679688392640388,0.5035477225909517,6.363012130922357,-3.585870145723675
1679688392656379,-2.3956664377813013,11.245899137865194,-6.942854962996876
1679688392672371,-4.898146028839506,15.609979400320412,-10.75761043717091
1679688392688363,-5.416952773327239,17.563134203097547,-12.405584802014118
1679688392704354,-4.531929503318793,17.68520637827112,-11.276417181658644
1679688392720092,-3.341725795376533,16.769665064469336,-9.750514991989007
1679688392736083,-0.4730296787976158,12.191958495460426,-7.919432364385443
1679688392752074,2.9449912260623705,7.55321583886473,-5.752651255054502
1679688392768065,4.898146028839506,6.912336919203426,-4.898146028839506
1679688392784055,3.921568627450938,8.346684977492941,-5.630579079880931
1679688392800046,1.6327153429465397,9.903105210955914,-7.614251926451516
1679688392816037,0.22888532845047393,11.673151750972693,-9.506370641641865
1679688392832028,0.5645838101777372,12.069886320286855,-9.903105210955914
1679688392848018,2.5787747005416577,12.069886320286855,-8.77393759060044
1679688392864009,5.722133211261166,12.588693064774475,-7.125963225757232
1679688392880000,7.797360189211872,12.68024719615471,-5.50850690470736
1679688392895990,8.163576714732585,11.947814145113284,-4.043640802624509
1679688392911981,8.22461280231937,11.001754787518053,-2.4567025253680868
1679688392927972,8.133058670939135,10.025177386129485,-0.9002822919051141
1679688392943963,8.865491721980561,9.353780422674845,0.2594033722438098
1679688392959953,10.391393911650198,9.201190203707938,0.9918364232852355
1679688392975944,11.30693522545198,8.77393759060044,1.3885709925993979
1679688392991935,10.452429999236983,8.285648889906156,1.144426642252256
1679688393007926,8.22461280231937,6.9733730067902115,1.1139085984588064
1679688393023916,5.447470817120575,5.172808422980097,1.5106431677729688
1679688393039703,2.8229190508887996,2.7008468757152286,2.548256656748322
1679688393055693,0.1373311970702389,-0.3204394598305953,3.9826047150377235
1679688393071683,-2.1210040436408235,-3.006027313649156,5.477988860914024
1679688393087672,-2.639810788128443,-5.447470817120575,6.759746700236519
1679688393103662,-1.9989318684672526,-7.278553444724139,7.339589532310924
1679688393119652,-0.19836728465702436,-8.560311284046634,7.0954451819637825
1679688393135642,1.7853055619134466,-8.407721065079727,6.118867780575215
1679688393151631,1.968413824673803,-4.928664072632955,3.7384603646905816
1679688393167621,-0.3509575036240449,-1.968413824673803,0.3509575036240449
1679688393183611,-4.379339284351886,-1.6937514305333252,-2.3651483939879654
1679688393199601,-6.363012130922357,-3.768978408484031,-3.555352101930225
1679688393215591,-6.088349736781879,-3.585870145723675,-3.799496452277367
1679688393231580,-2.7008468757152286,-1.4190890363927338,-4.1962310215915295
1679688393247570,1.8158236057068962,1.5411612115663047,-4.745555809872599
1679688393263560,3.799496452277367,4.074158846417959,-5.081254291599862
1679688393279550,3.219653620202962,4.1046768902112944,-5.081254291599862
1679688393295539,1.4190890363927338,2.334630350194516,-4.531929503318793
1679688393311529,-0.4730296787976158,0.5035477225909517,-3.7384603646905816
1679688393327519,-1.4190890363927338,-0.015259021896667946,-2.426184481574751
1679688393343509,-0.8087281605248791,0.6561379415579722,-0.5645838101777372
1679688393359253,0.9613183794918996,1.4496070801861833,1.266498817425827
1679688393375241,2.853437094682249,1.9073777370870175,1.968413824673803
1679688393391230,3.921568627450938,2.731364919508678,1.1749446860455919
1679688393407219,3.9520866712443876,4.043640802624509,-0.19836728465702436
1679688393423208,2.548256656748322,4.379339284351886,-1.022354467078685
1679688393439197,0.44251163500416624,2.97550926985582,-0.9002822919051141
1679688393455186,-1.022354467078685,0.045777065690117524,0.1373311970702389
1679688393471174,-1.6021972991530902,-2.7008468757152286,1.8768596932936816
1679688393487163,-1.1139085984588064,-4.348821240558436,2.731364919508678
1679688393503152,0.6561379415579722,-4.989700160219741,2.4872205691615363
1679688393519141,2.6703288319218927,-4.928664072632955,1.6937514305333252
1679688393535130,2.3651483939879654,-4.3183031967651,1.3580529488059483
1679688393551118,1.3275349050126124,-1.3275349050126124,0.22888532845047393
1679688393567107,0.38147554741738077,2.059967956054038,-1.6021972991530902
1679688393583096,-0.6561379415579722,2.7924010070954637,-3.219653620202962
1679688393599085,-1.144426642252256,1.937895780880467,-3.891050583657602
1679688393615074,-0.93080033569845,1.144426642252256,-3.341725795376533
1679688393631063,0.015259021896667946,1.0833905546654705,-2.090485999847374
1679688393647051,1.3580529488059483,1.7242694743266611,-1.2054627298390415
1679688393663040,2.334630350194516,2.548256656748322,-1.2054627298390415
1679688393678863,2.3651483939879654,2.4567025253680868,-1.968413824673803
1679688393694852,2.0294499122605885,1.937895780880467,-2.6703288319218927
1679688393710840,1.9073777370870175,1.3885709925993979,-2.7008468757152286
1679688393726828,2.3956664377813013,1.022354467078685,-1.846341649500232
1679688393742817,3.6163881895170107,0.6256198977645226,-0.6256198977645226
1679688393758805,5.2338445105668825,0.045777065690117524,0.6256198977645226
1679688393774793,6.546120393682713,-0.16784924086368846,1.5411612115663047
1679688393790782,6.301976043335571,-0.1373311970702389,1.3885709925993979
1679688393806770,4.470893415732007,0.045777065690117524,0.6866559853513081
1679688393822758,2.334630350194516,0.2594033722438098,0.2899214160372594
1679688393838747,1.3275349050126124,0.3509575036240449,0.5951018539711868
1679688393854735,1.1139085984588064,-0.22888532845047393,1.4496070801861833
1679688393870723,1.052872510872021,-1.2359807736323773,2.5787747005416577
1679688393886712,0.6256198977645226,-2.3956664377813013,3.4027618829633184
1679688393902700,-0.16784924086368846,-3.219653620202962,3.8300144960708167
1679688393918688,-1.6937514305333252,-4.1046768902112944,3.891050583657602
1679688393934677,-3.463797970550104,-4.928664072632955,3.677424277103796
1679688393950665,-4.3183031967651,-5.600061036087595,2.761882963302014
1679688393966653,-3.768978408484031,-5.50850690470736,0.9918364232852355
1679688393982642,-2.30411230640118,-3.8300144960708167,-1.6327153429465397
1679688393998413,-1.1139085984588064,-0.9613183794918996,-4.3183031967651
1679688394014400,0.015259021896667946,2.1515220874341594,-6.607156481269499
1679688394030388,-0.045777065690117524,4.287785152971651,-8.010986495765565
1679688394046375,-0.9613183794918996,4.654001678492364,-7.919432364385443
1679688394062362,-1.5411612115663047,3.6469062333104603,-6.179903868162
1679688394078350,-0.44251163500416624,1.8768596932936816,-3.372243839169869
1679688394094337,1.846341649500232,0.22888532845047393,-0.2899214160372594
1679688394110324,3.128099488822727,-0.8087281605248791,1.7242694743266611
1679688394126312,2.7924010070954637,-0.9918364232852355,2.059967956054038
1679688394142299,1.1139085984588064,-1.0833905546654705,1.2359807736323773
1679688394158287,-0.6561379415579722,-1.2359807736323773,0.38147554741738077
1679688394174274,-1.5716792553597543,-1.052872510872021,-0.106813153276903
1679688394190261,-1.022354467078685,-0.7476920729380936,0.4730296787976158
1679688394206249,0.8392462043183286,-0.5035477225909517,1.4801251239795192
1679688394222236,2.8229190508887996,-0.6561379415579722,2.059967956054038
1679688394238224,3.4332799267566543,-1.266498817425827,1.9989318684672526
1679688394254211,2.5177386129548722,-2.059967956054038,1.6937514305333252
1679688394270198,1.052872510872021,-2.6092927443351073,1.6021972991530902
1679688394286186,0.106813153276903,-2.853437094682249,1.7547875181201107
1679688394302173,0.19836728465702436,-2.426184481574751,1.7547875181201107
1679688394317993,1.0833905546654705,-1.5716792553597543,1.1749446860455919
1679688394333980,1.968413824673803,-0.7782101167315432,0.2899214160372594
1679688394349967,2.1210040436408235,-0.6561379415579722,-0.106813153276903
1679688394365954,2.212558175020945,-0.6866559853513081,-0.07629510948345342
1679688394381940,2.3651483939879654,-1.144426642252256,0.41199359121083035
1679688394397927,2.0294499122605885,-1.8768596932936816,1.2970168612191628
1679688394413914,1.3885709925993979,-1.8158236057068962,1.5716792553597543
1679688394429901,0.9918364232852355,-1.9989318684672526,2.059967956054038
1679688394445888,1.022354467078685,-2.3956664377813013,2.731364919508678
1679688394461875,1.7242694743266611,-1.9989318684672526,2.6092927443351073
1679688394477862,2.3956664377813013,-1.1749446860455919,1.5106431677729688
1679688394493849,2.090485999847374,-0.6256198977645226,0.22888532845047393
1679688394509836,0.9613183794918996,-0.015259021896667946,-0.7171740291447577
1679688394525823,-0.015259021896667946,0.22888532845047393,-1.052872510872021
1679688394541810,-0.44251163500416624,-0.22888532845047393,-0.7171740291447577
1679688394557797,-0.07629510948345342,-1.022354467078685,0.07629510948345342
1679688394573783,0.93080033569845,-1.6021972991530902,0.8392462043183286
1679688394589770,1.7242694743266611,-1.846341649500232,1.266498817425827
1679688394605757,2.0294499122605885,-1.5411612115663047,1.266498817425827
1679688394621744,1.7242694743266611,-1.2054627298390415,0.8087281605248791
1679688394637573,0.9918364232852355,-0.7476920729380936,0.3204394598305953
1679688394653559,0.3204394598305953,-0.5340657663844013,0.1373311970702389
1679688394669545,0.3509575036240449,-0.6256198977645226,0.16784924086368846
1679688394685531,0.9613183794918996,-0.5951018539711868,0.3204394598305953
1679688394701517,1.6937514305333252,-0.5035477225909517,0.2899214160372594
1679688394717503,2.2735942626077303,-0.22888532845047393,-0.07629510948345342
1679688394733489,2.334630350194516,0.16784924086368846,-0.93080033569845
1679688394749475,1.4496070801861833,0.22888532845047393,-1.8768596932936816
1679688394765461,0.4730296787976158,-0.045777065690117524,-2.3956664377813013
1679688394781447,0.045777065690117524,-0.07629510948345342,-2.212558175020945
1679688394797433,0.3509575036240449,0.2594033722438098,-1.7242694743266611
1679688394813418,0.8392462043183286,0.4730296787976158,-1.266498817425827
1679688394829404,1.6021972991530902,0.6256198977645226,-1.052872510872021
1679688394845390,2.4567025253680868,1.052872510872021,-1.0833905546654705
1679688394861376,2.6092927443351073,1.6937514305333252,-1.3275349050126124
1679688394877362,1.9989318684672526,1.968413824673803,-1.5411612115663047
1679688394893348,0.5951018539711868,1.4496070801861833,-1.6327153429465397
1679688394909334,-0.7476920729380936,0.2899214160372594,-1.144426642252256
1679688394925320,-1.3885709925993979,-1.266498817425827,-0.22888532845047393
1679688394941306,-0.44251163500416624,-1.9073777370870175,0.7476920729380936
1679688394957153,1.3580529488059483,-1.4190890363927338,1.144426642252256
1679688394973138,2.7008468757152286,-0.5340657663844013,1.022354467078685
1679688394989124,2.853437094682249,0.1373311970702389,0.7171740291447577
1679688395005109,1.7547875181201107,-0.2899214160372594,0.16784924086368846
1679688395021095,-0.22888532845047393,-1.6937514305333252,0.41199359121083035
1679688395037080,-1.5411612115663047,-3.128099488822727,1.3885709925993979
1679688395053066,-1.3580529488059483,-3.768978408484031,2.548256656748322
1679688395069051,0.4730296787976158,-3.006027313649156,3.219653620202962
1679688395085037,2.9144731822690346,-1.144426642252256,2.548256656748322
1679688395101022,3.5248340581368893,0.5340657663844013,0.2899214160372594
1679688395117008,1.2359807736323773,1.266498817425827,-2.639810788128443
1679688395132993,-2.761882963302014,1.266498817425827,-4.1962310215915295
1679688395148979,-5.264362554360218,0.7476920729380936,-3.555352101930225
1679688395164964,-4.501411459525457,-0.2899214160372594,-1.3580529488059483
1679688395180950,-1.0833905546654705,-1.3885709925993979,1.2359807736323773
1679688395196935,2.731364919508678,-1.9073777370870175,2.6703288319218927
1679688395212921,6.088349736781879,-1.4801251239795192,2.8229190508887996
1679688395228906,7.888914320591994,-0.2899214160372594,1.6021972991530902
1679688395244892,7.55321583886473,1.2054627298390415,0.22888532845047393
1679688395260877,4.501411459525457,2.8229190508887996,-1.144426642252256
1679688395276733,0.2899214160372594,3.250171663996298,-1.4190890363927338
1679688395292718,-0.9613183794918996,2.3651483939879654,0.2899214160372594
1679688395308703,1.6632333867398756,2.4567025253680868,2.7924010070954637
1679688395324688,9.597924773021987,6.912336919203426,3.4943160143434397
1679688395340673,22.537575341420506,14.236667429617683,2.182040131227609
1679688395356658,31.876096742199024,21.072709239337655,-0.5340657663844013
1679688395372643,26.53543907835501,29.43465323872738,-5.294880598153668
1679688395388628,10.605020218204004,31.815060654612125,-9.323262378881509
1679688395404613,4.226749065384865,26.1692225528343,-12.314030670633997
1679688395420598,8.255130846112706,16.617074845502316,-11.184863050278409
1679688395436583,11.093308918898288,7.675288014038301,-5.325398641947004
1679688395452568,8.285648889906156,2.2430762188143945,-0.5340657663844013
1679688395468553,4.684519722285813,1.052872510872021,-0.19836728465702436
1679688395484538,3.250171663996298,1.6327153429465397,-1.937895780880467
1679688395500523,2.1210040436408235,0.8697642481116645,-2.6703288319218927
1679688395516508,0.8392462043183286,-1.7242694743266611,-2.2430762188143945
1679688395532493,0.38147554741738077,-3.891050583657602,-1.3885709925993979
1679688395548478,0.7476920729380936,-5.203326466773433,-0.4730296787976158
1679688395564463,2.334630350194516,-4.806591897459384,-0.22888532845047393
1679688395580448,4.257267109178315,-2.7008468757152286,-1.3580529488059483
1679688395596313,4.959182116426291,-0.38147554741738077,-3.372243839169869
1679688395612298,3.4027618829633184,0.4730296787976158,-5.081254291599862
1679688395628282,0.045777065690117524,-0.6256198977645226,-5.355916685740453
1679688395644267,-2.731364919508678,-2.761882963302014,-2.9449912260623705
1679688395660251,-2.9144731822690346,-4.287785152971651,1.052872510872021
1679688395676236,-1.1139085984588064,-4.959182116426291,4.379339284351886
1679688395692220,1.5716792553597543,-3.8300144960708167,6.027313649195094
1679688395708205,4.531929503318793,-1.022354467078685,5.844205386434737
1679688395724189,5.9357595178148586,1.968413824673803,3.891050583657602
1679688395740174,4.745555809872599,3.9826047150377235,0.8697642481116645
1679688395756158,1.9989318684672526,4.3183031967651,-1.1749446860455919
1679688395772143,-0.38147554741738077,2.731364919508678,-1.4496070801861833
1679688395788128,-0.3204394598305953,1.022354467078685,-0.5035477225909517
1679688395804112,1.5716792553597543,0.4730296787976158,0.5035477225909517
1679688395820097,2.334630350194516,0.9002822919051141,-0.106813153276903
1679688395836081,2.4567025253680868,1.968413824673803,-1.9989318684672526
1679688395852066,5.813687342641288,4.684519722285813,-4.470893415732007
1679688395868050,10.269321736476627,8.285648889906156,-6.637674525062948
1679688395884035,11.398489356832215,8.926527809567347,-8.804455634393776
1679688395900019,8.957045853360796,7.614251926451516,-9.323262378881509
1679688395915893,4.470893415732007,3.891050583657602,-8.316166933699492
1679688395931877,1.7853055619134466,-0.5951018539711868,-5.996795605401644
1679688395947861,2.5787747005416577,-2.426184481574751,-2.97550926985582
1679688395963845,3.4332799267566543,-1.846341649500232,-0.44251163500416624
1679688395979829,3.1586175326161765,-0.6256198977645226,0.16784924086368846
1679688395995813,2.8229190508887996,0.19836728465702436,-0.22888532845047393
1679688396011798,2.9449912260623705,-0.07629510948345342,-0.41199359121083035
1679688396027782,3.3112077515830833,-0.7171740291447577,0.3509575036240449
1679688396043766,3.219653620202962,0.5645838101777372,0.9002822919051141
1679688396059750,2.2430762188143945,2.6703288319218927,1.266498817425827
1679688396075734,0.9918364232852355,2.182040131227609,1.9989318684672526
1679688396091718,-0.7476920729380936,-1.6021972991530902,3.341725795376533
1679688396107702,-2.731364919508678,-5.844205386434737,4.83710994125272
1679688396123686,-3.7079423208972457,-7.888914320591994,5.9357595178148586
1679688396139670,-2.97550926985582,-7.003891050583661,6.2714579995422355
1679688396155654,-1.3275349050126124,-5.172808422980097,5.386434729533789
1679688396171638,-0.015259021896667946,-3.3112077515830833,3.7079423208972457
1679688396187622,1.052872510872021,-1.937895780880467,1.5411612115663047
1679688396203606,1.937895780880467,-1.0833905546654705,0.07629510948345342
1679688396219590,3.372243839169869,-0.106813153276903,-0.7171740291447577
1679688396235473,6.21042191195545,2.6703288319218927,-1.6021972991530902
1679688396251457,10.78812848096436,6.118867780575215,-2.334630350194516
1679688396267440,14.511329823758274,8.163576714732585,-3.0670634012359415
1679688396283424,17.01380941481648,10.11673151750972,-3.6469062333104603
1679688396299408,18.692301823453022,11.673151750972693,-4.898146028839506
1679688396315391,18.966964217593613,11.093308918898288,-5.53902494850081
1679688396331375,18.753337911039807,9.262226291294724,-6.301976043335571
1679688396347358,18.387121385519094,8.133058670939135,-5.874723430228073
1679688396363342,16.861219195849458,7.217517357137353,-6.301976043335571
1679688396379325,14.236667429617683,4.745555809872599,-5.50850690470736
1679688396395309,12.069886320286855,2.9449912260623705,-4.257267109178315
1679688396411293,10.177767605096506,1.7547875181201107,-3.097581445029391
1679688396427276,7.492179751277945,0.2899214160372594,-1.968413824673803
1679688396443260,4.745555809872599,-1.144426642252256,-1.144426642252256
1679688396459243,2.6703288319218927,-1.6327153429465397,-0.5035477225909517
1679688396475227,0.7171740291447577,-1.9073777370870175,0.1373311970702389
1679688396491211,-1.6327153429465397,-2.334630350194516,0.5951018539711868
1679688396507194,-3.5248340581368893,-2.3651483939879654,0.9002822919051141
1679688396523178,-4.715037766079149,-1.8158236057068962,1.2054627298390415
1679688396539161,-5.294880598153668,-0.9613183794918996,1.4801251239795192
1679688396555053,-5.630579079880931,0.015259021896667946,1.6632333867398756
1679688396571036,-5.874723430228073,0.8697642481116645,1.6327153429465397
1679688396587020,-5.996795605401644,1.5106431677729688,1.7242694743266611
1679688396603003,-5.569542992294146,1.6937514305333252,1.968413824673803
1679688396618986,-4.1962310215915295,1.7547875181201107,2.182040131227609
1679688396634969,-2.182040131227609,1.9073777370870175,1.8768596932936816
1679688396650952,-0.1373311970702389,1.9073777370870175,1.1139085984588064
1679688396666935,0.9613183794918996,1.4801251239795192,0.16784924086368846
1679688396682918,1.4190890363927338,1.3580529488059483,-0.6866559853513081
1679688396698901,1.7853055619134466,1.7242694743266611,-1.6021972991530902
1679688396714884,2.548256656748322,2.1515220874341594,-2.548256656748322
1679688396730867,3.1891355764095124,2.334630350194516,-3.1891355764095124
1679688396746851,3.585870145723675,2.853437094682249,-3.9520866712443876
1679688396762834,4.3183031967651,3.5248340581368893,-4.959182116426291
1679688396778817,4.745555809872599,4.1046768902112944,-6.118867780575215
1679688396794800,4.928664072632955,4.3183031967651,-6.637674525062948
1679688396810783,4.684519722285813,3.8300144960708167,-6.1493858243686645
1679688396826766,3.7079423208972457,2.6703288319218927,-4.959182116426291
1679688396842749,2.334630350194516,1.6632333867398756,-3.891050583657602
1679688396858732,1.3275349050126124,1.5106431677729688,-2.9144731822690346
1679688396874603,0.3509575036240449,1.3885709925993979,-2.1210040436408235
1679688396890586,-1.052872510872021,1.266498817425827,-1.5106431677729688
1679688396906568,-2.2735942626077303,0.8392462043183286,-1.1749446860455919
1679688396922551,-3.250171663996298,0.4730296787976158,-1.022354467078685
1679688396938533,-4.074158846417959,0.1373311970702389,-0.93080033569845
1679688396954516,-4.776073853665935,0.19836728465702436,-0.9002822919051141
1679688396970499,-5.172808422980097,0.93080033569845,-0.9613183794918996
1679688396986481,-5.081254291599862,1.5411612115663047,-0.9918364232852355
1679688397002464,-4.592965590905578,1.6632333867398756,-0.7171740291447577
1679688397018447,-4.074158846417959,1.4190890363927338,-0.2899214160372594
1679688397034429,-3.7079423208972457,0.9613183794918996,0.16784924086368846
1679688397050412,-3.463797970550104,0.5951018539711868,0.5645838101777372
1679688397066394,-2.7924010070954637,0.41199359121083035,0.6866559853513081
1679688397082377,-1.4801251239795192,0.5340657663844013,0.8392462043183286
1679688397098360,-0.1373311970702389,0.7171740291447577,0.9002822919051141
1679688397114342,0.6561379415579722,0.5035477225909517,1.2054627298390415
1679688397130325,0.8087281605248791,-0.015259021896667946,1.5716792553597543
1679688397146308,0.9918364232852355,-0.22888532845047393,1.6327153429465397
1679688397162290,1.4496070801861833,-0.045777065690117524,1.8158236057068962
1679688397178273,1.846341649500232,-0.106813153276903,2.090485999847374
1679688397194213,1.7547875181201107,-0.41199359121083035,2.761882963302014
1679688397210196,1.3885709925993979,-0.93080033569845,3.5248340581368893
1679688397226179,0.8087281605248791,-1.3580529488059483,4.013122758831173
1679688397242161,0.3509575036240449,-1.6327153429465397,4.257267109178315
1679688397258144,-0.045777065690117524,-1.6021972991530902,4.226749065384865
1679688397274127,-0.2594033722438098,-1.3580529488059483,4.074158846417959
1679688397290109,-0.045777065690117524,-1.144426642252256,3.9826047150377235
1679688397306092,0.41199359121083035,-0.6561379415579722,4.013122758831173
1679688397322075,0.19836728465702436,-0.6561379415579722,4.257267109178315
1679688397338057,-0.93080033569845,-1.2054627298390415,4.562447547112242
1679688397354040,-2.6092927443351073,-1.7853055619134466,4.348821240558436
1679688397370022,-3.891050583657602,-1.846341649500232,3.5248340581368893
1679688397386005,-4.654001678492364,-1.6937514305333252,2.9144731822690346
1679688397401988,-5.142290379186647,-1.7547875181201107,2.5787747005416577
1679688397417970,-5.477988860914024,-1.6021972991530902,2.1515220874341594
1679688397433953,-5.0202182040130765,-1.2970168612191628,1.5716792553597543
1679688397449936,-4.776073853665935,-0.3204394598305953,0.44251163500416624
1679688397465918,-4.623483634699028,0.9002822919051141,-0.6866559853513081
1679688397481901,-4.715037766079149,2.182040131227609,-1.7853055619134466
1679688397497883,-5.569542992294146,3.555352101930225,-2.0294499122605885
1679688397513763,-7.461661707484495,4.16571297779808,-0.6256198977645226
1679688397529745,-9.933623254749364,2.9144731822690346,1.9989318684672526
1679688397545727,-11.490043488212336,0.93080033569845,4.898146028839506
1679688397561710,-11.612115663385907,0.045777065690117524,7.827878233005208
1679688397577692,-9.658960860608772,1.1749446860455919,10.971236743724717
1679688397593674,-6.759746700236519,3.555352101930225,13.687342641336613
1679688397609656,-5.325398641947004,5.2338445105668825,14.02304112306399
1679688397625638,-6.027313649195094,4.959182116426291,12.283512626840547
1679688397641620,-6.88181887541009,4.257267109178315,9.506370641641865
1679688397657602,-7.370107576104374,3.1586175326161765,6.72922865644307
1679688397673585,-7.156481269550568,2.090485999847374,4.409857328145222
1679688397689567,-6.2714579995422355,1.7547875181201107,2.090485999847374
1679688397705549,-5.172808422980097,1.937895780880467,-0.2594033722438098
1679688397721531,-4.226749065384865,2.1515220874341594,-2.2430762188143945
1679688397737513,-4.409857328145222,1.4190890363927338,-3.585870145723675
1679688397753495,-4.715037766079149,0.16784924086368846,-4.135194934004744
1679688397769477,-5.081254291599862,-0.7171740291447577,-4.3183031967651
1679688397785460,-4.470893415732007,-0.7782101167315432,-3.9520866712443876
1679688397801442,-3.6163881895170107,-0.6866559853513081,-3.6163881895170107
1679688397817424,-2.5787747005416577,-0.7476920729380936,-3.219653620202962
1679688397833343,-1.8158236057068962,-0.8697642481116645,-2.4567025253680868
1679688397849325,-1.4496070801861833,-1.1139085984588064,-1.9073777370870175
1679688397865306,-1.6327153429465397,-1.266498817425827,-1.6021972991530902
1679688397881288,-2.1210040436408235,-1.022354467078685,-1.3275349050126124
1679688397897270,-2.0294499122605885,-0.5340657663844013,-1.2054627298390415
1679688397913252,-1.7853055619134466,0.015259021896667946,-1.6632333867398756
1679688397929233,-1.3885709925993979,0.5340657663844013,-2.212558175020945
1679688397945215,-1.144426642252256,0.8087281605248791,-2.4872205691615363
1679688397961197,-1.022354467078685,0.8087281605248791,-2.4567025253680868
1679688397977178,-0.8697642481116645,0.93080033569845,-2.2735942626077303
1679688397993160,-0.8697642481116645,1.144426642252256,-2.1210040436408235
1679688398009142,-0.8697642481116645,1.266498817425827,-1.7547875181201107
1679688398025123,-0.9002822919051141,0.93080033569845,-1.022354467078685
1679688398041105,-1.5716792553597543,-0.015259021896667946,-0.045777065690117524
1679688398057087,-2.426184481574751,-0.9918364232852355,0.41199359121083035
1679688398073068,-2.6092927443351073,-0.9918364232852355,-0.045777065690117524
1679688398089050,-1.5716792553597543,-0.045777065690117524,-1.3885709925993979
1679688398105032,0.1373311970702389,1.4190890363927338,-3.555352101930225
1679688398121013,0.9002822919051141,3.250171663996298,-5.966277561608308
1679688398136995,0.16784924086368846,5.0202182040130765,-7.827878233005208
1679688398152923,-1.022354467078685,5.630579079880931,-8.22461280231937
1679688398168905,-1.1749446860455919,5.081254291599862,-7.614251926451516
1679688398184887,-0.19836728465702436,4.623483634699028,-6.88181887541009
1679688398200868,1.1139085984588064,4.074158846417959,-6.240939955748786
1679688398216850,2.182040131227609,3.3112077515830833,-5.477988860914024
1679688398232832,2.3651483939879654,2.090485999847374,-4.562447547112242
1679688398248813,1.9073777370870175,1.2359807736323773,-3.4332799267566543
1679688398264795,1.0833905546654705,0.44251163500416624,-2.090485999847374
1679688398280777,-0.045777065690117524,-0.7171740291447577,-0.9002822919051141
1679688398296758,-1.3275349050126124,-1.6632333867398756,0.106813153276903
1679688398312740,-2.0294499122605885,-1.937895780880467,0.2594033722438098
1679688398328722,-2.212558175020945,-1.1749446860455919,-0.5035477225909517
1679688398344703,-1.937895780880467,-0.2899214160372594,-1.7547875181201107
1679688398360685,-1.4190890363927338,0.38147554741738077,-2.731364919508678
1679688398376667,-1.022354467078685,0.106813153276903,-2.9449912260623705
1679688398392648,-0.2899214160372594,-0.7476920729380936,-2.090485999847374
1679688398408630,-0.015259021896667946,-1.3885709925993979,-1.4190890363927338
1679688398424612,0.6561379415579722,-1.2970168612191628,-1.5716792553597543
1679688398440593,1.4190890363927338,-0.7171740291447577,-2.3651483939879654
1679688398456575,1.7853055619134466,-0.1373311970702389,-3.4943160143434397
1679688398472473,1.6327153429465397,0.5340657663844013,-4.287785152971651
1679688398488454,1.9073777370870175,1.3885709925993979,-4.531929503318793
1679688398504435,2.9144731822690346,2.1515220874341594,-4.83710994125272
1679688398520416,3.7384603646905816,2.6703288319218927,-4.86762798504617
1679688398536398,3.768978408484031,3.1586175326161765,-4.989700160219741
1679688398552379,3.097581445029391,3.6163881895170107,-5.081254291599862
1679688398568360,2.30411230640118,4.1962310215915295,-4.928664072632955
1679688398584341,1.7547875181201107,4.654001678492364,-4.83710994125272
1679688398600322,1.5411612115663047,3.8300144960708167,-4.86762798504617
1679688398616304,1.8768596932936816,2.761882963302014,-4.898146028839506
1679688398632285,1.5106431677729688,2.059967956054038,-4.654001678492364
1679688398648266,-0.16784924086368846,1.3580529488059483,-3.799496452277367
1679688398664247,-2.1515220874341594,0.16784924086368846,-2.548256656748322
1679688398680228,-3.5248340581368893,-1.6937514305333252,-0.2594033722438098
1679688398696210,-4.86762798504617,-3.555352101930225,2.3956664377813013
1679688398712191,-6.454566262302592,-4.928664072632955,4.287785152971651
1679688398728172,-7.705806057831637,-5.477988860914024,4.776073853665935
1679688398744153,-7.40062561989771,-5.2338445105668825,3.921568627450938
1679688398760134,-5.50850690470736,-4.043640802624509,2.30411230640118
1679688398776116,-3.921568627450938,-3.128099488822727,0.16784924086368846
1679688398792053,-3.5248340581368893,-2.5787747005416577,-1.7547875181201107
1679688398808034,-3.4332799267566543,-1.9989318684672526,-2.97550926985582
1679688398824015,-2.6703288319218927,-1.3275349050126124,-3.219653620202962
1679688398839996,-1.3275349050126124,-0.16784924086368846,-2.9144731822690346
1679688398855978,-0.1373311970702389,1.6327153429465397,-3.0365453574426056
1679688398871959,0.7171740291447577,3.372243839169869,-3.585870145723675
1679688398887940,1.7853055619134466,4.013122758831173,-3.8605325398641526
1679688398903921,2.3651483939879654,2.9449912260623705,-3.891050583657602
1679688398919902,1.9073777370870175,1.6632333867398756,-3.7384603646905816
1679688398935884,0.7171740291447577,1.1139085984588064,-3.8605325398641526
1679688398951865,-0.8392462043183286,0.7782101167315432,-3.7079423208972457
1679688398967846,-1.7853055619134466,0.41199359121083035,-3.1891355764095124
1679688398983827,-2.97550926985582,-0.106813153276903,-2.426184481574751
1679688398999808,-4.470893415732007,-0.045777065690117524,-1.7242694743266611
1679688399015790,-5.722133211261166,0.3204394598305953,-1.3580529488059483
1679688399031771,-6.454566262302592,0.6866559853513081,-0.9002822919051141
1679688399047752,-6.576638437476163,0.5035477225909517,0.07629510948345342
1679688399063733,-6.424048218509142,-0.9613183794918996,1.9073777370870175
1679688399079714,-7.248035400930803,-4.1962310215915295,4.257267109178315
1679688399095696,-9.353780422674845,-9.048599984740918,6.759746700236519
1679688399111633,-12.466620889600904,-15.701533531700647,9.048599984740918
1679688399127614,-14.297703517204468,-20.370794232089793,9.9641412985427
1679688399143594,-13.717860685130063,-20.279240100709558,8.590829327840083
1679688399159575,-11.459525444419,-15.21324483100625,4.562447547112242
1679688399175556,-7.339589532310924,-6.546120393682713,-1.022354467078685
1679688399191537,-2.6703288319218927,2.182040131227609,-6.607156481269499
1679688399207517,-0.22888532845047393,7.949950408178779,-9.353780422674845
1679688399223498,-0.015259021896667946,9.99465934233615,-9.506370641641865
1679688399239479,0.2899214160372594,10.208285648889841,-8.62134737163342
1679688399255459,1.846341649500232,10.025177386129485,-7.217517357137353
1679688399271440,3.799496452277367,9.29274433508806,-5.416952773327239
1679688399287421,4.989700160219741,8.010986495765565,-3.7384603646905816
1679688399303402,5.081254291599862,6.240939955748786,-2.334630350194516
1679688399319382,4.16571297779808,3.9520866712443876,-0.9918364232852355
1679688399335363,3.219653620202962,1.937895780880467,0.4730296787976158
1679688399351344,2.5177386129548722,0.015259021896667946,2.090485999847374
1679688399367324,1.8768596932936816,-1.3885709925993979,3.6469062333104603
1679688399383305,1.022354467078685,-1.6937514305333252,4.531929503318793
1679688399399286,-0.41199359121083035,-1.1749446860455919,4.379339284351886
1679688399415267,-1.846341649500232,0.22888532845047393,3.250171663996298
1679688399431182,-2.6703288319218927,2.059967956054038,1.4801251239795192
1679688399447163,-2.6092927443351073,3.5248340581368893,-0.6256198977645226
1679688399463144,-2.4872205691615363,5.050736247806526,-2.6092927443351073
1679688399479125,-2.212558175020945,6.424048218509142,-4.379339284351886
1679688399495105,-1.4801251239795192,7.55321583886473,-5.447470817120575
1679688399511086,-0.7171740291447577,7.461661707484495,-5.661097123674381
1679688399527067,-0.106813153276903,6.424048218509142,-4.83710994125272
1679688399543048,0.3509575036240449,5.0202182040130765,-3.677424277103796
1679688399559028,0.7476920729380936,3.799496452277367,-2.5787747005416577
1679688399575009,1.144426642252256,2.30411230640118,-1.4496070801861833
1679688399590990,1.3580529488059483,0.38147554741738077,-0.6561379415579722
1679688399606970,0.9002822919051141,-1.3580529488059483,-0.07629510948345342
1679688399622951,0.41199359121083035,-1.8768596932936816,-0.07629510948345342
1679688399638932,0.41199359121083035,-1.2970168612191628,-0.3509575036240449
1679688399654913,0.7171740291447577,-0.7171740291447577,-0.2594033722438098
1679688399670893,0.8087281605248791,-0.41199359121083035,-0.106813153276903
1679688399686874,0.07629510948345342,-0.2594033722438098,-0.22888532845047393
1679688399702855,-0.6256198977645226,-0.2899214160372594,-0.5035477225909517
1679688399718835,-0.5340657663844013,-0.3509575036240449,-0.3509575036240449
1679688399734816,-0.106813153276903,-0.7782101167315432,0.3204394598305953
1679688399750763,0.38147554741738077,-1.2970168612191628,1.144426642252256
1679688399766743,0.8392462043183286,-1.4801251239795192,1.6937514305333252
1679688399782724,1.3580529488059483,-1.2359807736323773,1.7547875181201107
1679688399798705,1.4190890363927338,-0.8697642481116645,1.4801251239795192
1679688399814685,0.7782101167315432,-0.5340657663844013,0.8392462043183286
1679688399830666,0.16784924086368846,-0.16784924086368846,0.015259021896667946
1679688399846647,-0.07629510948345342,-0.015259021896667946,-0.7476920729380936
1679688399862628,0.045777065690117524,-0.16784924086368846,-1.1749446860455919
1679688399878608,0.2594033722438098,-0.22888532845047393,-1.3885709925993979
1679688399894589,0.5951018539711868,0.015259021896667946,-1.5716792553597543
1679688399910570,1.052872510872021,0.44251163500416624,-1.7242694743266611
1679688399926550,1.5716792553597543,0.5951018539711868,-1.6632333867398756
1679688399942531,1.8158236057068962,0.22888532845047393,-1.2054627298390415
1679688399958512,1.6327153429465397,-0.5645838101777372,-0.5951018539711868
1679688399974493,1.2359807736323773,-1.5411612115663047,0.16784924086368846
1679688399990473,1.266498817425827,-2.2430762188143945,0.8697642481116645
1679688400006454,1.4190890363927338,-2.5177386129548722,1.3275349050126124
1679688400022435,1.8768596932936816,-2.3956664377813013,1.266498817425827
1679688400038416,2.7008468757152286,-2.090485999847374,0.6561379415579722
1679688400054396,3.4027618829633184,-1.5716792553597543,-0.015259021896667946
1679688400070343,3.585870145723675,-0.8697642481116645,-0.5035477225909517
1679688400086323,3.341725795376533,-0.045777065690117524,-0.8697642481116645
1679688400102303,2.97550926985582,0.5340657663844013,-1.2359807736323773
1679688400118283,2.761882963302014,0.8087281605248791,-1.5716792553597543
1679688400134264,2.761882963302014,1.052872510872021,-1.7242694743266611
1679688400150244,2.8229190508887996,1.3885709925993979,-1.9989318684672526
1679688400166224,2.883955138475585,1.6632333867398756,-2.212558175020945
1679688400182204,2.853437094682249,1.6632333867398756,-2.2430762188143945
1679688400198185,2.883955138475585,1.3580529488059483,-2.0294499122605885
1679688400214165,2.761882963302014,0.8697642481116645,-1.7242694743266611
1679688400230145,2.090485999847374,0.16784924086368846,-1.3275349050126124
1679688400246125,1.1749446860455919,-0.5340657663844013,-1.144426642252256
1679688400262106,0.16784924086368846,-1.052872510872021,-0.9613183794918996
1679688400278086,-0.6256198977645226,-1.6021972991530902,-0.7782101167315432
1679688400294066,-0.9613183794918996,-1.968413824673803,-0.7171740291447577
1679688400310046,-1.052872510872021,-2.212558175020945,-0.7171740291447577
1679688400326027,-1.052872510872021,-2.7924010070954637,-0.6561379415579722
1679688400342007,-0.93080033569845,-3.341725795376533,-0.3204394598305953
1679688400357987,-0.6256198977645226,-3.372243839169869,-0.045777065690117524
1679688400373967,-0.5645838101777372,-3.463797970550104,-0.2594033722438098
1679688400389923,-0.5951018539711868,-3.677424277103796,-0.44251163500416624
1679688400405903,-0.7476920729380936,-3.128099488822727,-0.4730296787976158
1679688400421883,-1.052872510872021,-2.5177386129548722,-0.41199359121083035
1679688400437863,-0.9918364232852355,-1.968413824673803,-0.5035477225909517
1679688400453844,-0.2899214160372594,-1.2359807736323773,-0.5645838101777372
1679688400469824,0.4730296787976158,-0.5645838101777372,-0.7782101167315432
1679688400485804,0.7171740291447577,-0.015259021896667946,-1.1749446860455919
1679688400501784,0.4730296787976158,0.4730296787976158,-1.7547875181201107
1679688400517765,0.22888532845047393,0.93080033569845,-2.090485999847374
1679688400533745,0.3509575036240449,1.4190890363927338,-2.059967956054038
1679688400549725,0.4730296787976158,1.7853055619134466,-1.9073777370870175
1679688400565705,0.16784924086368846,1.846341649500232,-1.5106431677729688
1679688400581686,-0.1373311970702389,2.0294499122605885,-1.144426642252256
1679688400597666,-0.07629510948345342,1.968413824673803,-0.6256198977645226
1679688400613646,0.5645838101777372,2.1515220874341594,-0.3509575036240449
1679688400629626,1.6021972991530902,3.0670634012359415,-0.5035477225909517
1679688400645607,2.0294499122605885,5.050736247806526,-0.7476920729380936
1679688400661587,1.9989318684672526,7.614251926451516,-1.2970168612191628
1679688400677567,2.1210040436408235,10.269321736476627,-1.9073777370870175
1679688400693547,3.2806897077897474,11.85626001373305,-2.1515220874341594
1679688400709472,4.928664072632955,11.703669794766142,-1.3885709925993979
1679688400725453,7.034409094376997,9.903105210955914,-0.2899214160372594
1679688400741433,8.316166933699492,8.255130846112706,0.7171740291447577
1679688400757413,8.22461280231937,6.942854962996876,0.6866559853513081
1679688400773393,7.40062561989771,5.386434729533789,0.16784924086368846
1679688400789373,5.813687342641288,3.250171663996298,0.2594033722438098
1679688400805354,3.891050583657602,1.937895780880467,0.16784924086368846
1679688400821334,2.3651483939879654,1.2054627298390415,-0.44251163500416624
1679688400837314,1.4496070801861833,0.2594033722438098,-0.6866559853513081
1679688400853294,1.022354467078685,-0.5340657663844013,-0.2594033722438098
1679688400869275,0.5340657663844013,-1.2359807736323773,0.4730296787976158
1679688400885255,0.1373311970702389,-1.5411612115663047,0.9918364232852355
1679688400901235,-0.015259021896667946,-1.6021972991530902,1.052872510872021
1679688400917215,0.1373311970702389,-1.6937514305333252,0.5951018539711868
1679688400933196,0.38147554741738077,-1.5716792553597543,-0.22888532845047393
1679688400949176,0.44251163500416624,-1.0833905546654705,-1.1749446860455919
1679688400965156,0.3509575036240449,-0.41199359121083035,-1.8768596932936816
1679688400981136,-0.045777065690117524,-0.3509575036240449,-2.059967956054038
1679688400997117,-0.7171740291447577,-0.7476920729380936,-1.7853055619134466
1679688401013097,-1.144426642252256,-1.1139085984588064,-1.5411612115663047
1679688401029022,-0.9002822919051141,-1.2054627298390415,-1.144426642252256
1679688401045002,-0.38147554741738077,-0.6561379415579722,-0.8392462043183286
1679688401060981,-0.2594033722438098,-0.045777065690117524,-1.022354467078685
1679688401076961,-0.4730296787976158,0.19836728465702436,-1.4496070801861833
1679688401092941,-0.6561379415579722,0.1373311970702389,-1.937895780880467
1679688401108921,-0.5645838101777372,0.2594033722438098,-2.3956664377813013
1679688401124900,-0.3509575036240449,0.5951018539711868,-2.6703288319218927
1679688401140880,0.045777065690117524,1.1139085984588064,-2.731364919508678
1679688401156860,0.41199359121083035,1.6327153429465397,-2.6703288319218927
1679688401172840,0.6256198977645226,1.937895780880467,-2.6703288319218927
1679688401188820,0.6561379415579722,2.212558175020945,-2.8229190508887996
1679688401204799,0.44251163500416624,2.1210040436408235,-2.5787747005416577
1679688401220779,0.44251163500416624,1.6021972991530902,-2.334630350194516
1679688401236759,0.38147554741738077,1.144426642252256,-1.846341649500232
1679688401252739,0.2594033722438098,0.7476920729380936,-1.4496070801861833
1679688401268718,0.07629510948345342,0.3204394598305953,-1.2359807736323773
1679688401284698,-0.07629510948345342,0.41199359121083035,-1.022354467078685
1679688401300678,0.07629510948345342,0.8697642481116645,-0.8697642481116645
1679688401316658,0.5340657663844013,1.4801251239795192,-0.6561379415579722
1679688401332637,1.4801251239795192,2.5787747005416577,-0.16784924086368846
1679688401348602,3.0365453574426056,4.379339284351886,0.38147554741738077
1679688401364582,4.898146028839506,6.363012130922357,0.5951018539711868
1679688401380561,5.966277561608308,7.248035400930803,0.5340657663844013
1679688401396541,6.088349736781879,7.0954451819637825,0.3204394598305953
1679688401412521,5.874723430228073,5.813687342641288,-0.045777065690117524
1679688401428501,5.630579079880931,4.440375371938671,-0.7476920729380936
1679688401444481,5.2338445105668825,3.7384603646905816,-1.2359807736323773
1679688401460460,4.592965590905578,3.4027618829633184,-1.5716792553597543
1679688401476440,4.013122758831173,3.0670634012359415,-1.7242694743266611
1679688401492420,3.4943160143434397,2.3956664377813013,-1.6327153429465397
1679688401508400,2.761882963302014,1.4496070801861833,-1.4190890363927338
1679688401524379,2.059967956054038,0.2899214160372594,-1.2359807736323773
1679688401540359,1.4496070801861833,-0.4730296787976158,-0.9613183794918996
1679688401556339,0.8392462043183286,-0.6256198977645226,-1.1139085984588064
1679688401572319,0.3509575036240449,-0.6561379415579722,-1.3885709925993979
1679688401588298,-0.07629510948345342,-0.9918364232852355,-1.5716792553597543
1679688401604278,-0.6561379415579722,-1.6327153429465397,-1.5106431677729688
1679688401620258,-1.052872510872021,-1.968413824673803,-1.3580529488059483
1679688401636238,-1.1139085984588064,-1.9989318684672526,-1.5716792553597543
1679688401652217,-1.2054627298390415,-1.846341649500232,-2.059967956054038
1679688401668213,-1.4190890363927338,-1.7547875181201107,-2.6703288319218927
1679688401684192,-1.6632333867398756,-1.7853055619134466,-3.372243839169869
1679688401700172,-1.937895780880467,-1.846341649500232,-4.135194934004744
1679688401716152,-2.090485999847374,-1.9073777370870175,-5.0202182040130765
1679688401732132,-2.334630350194516,-2.6092927443351073,-6.088349736781879
1679688401748111,-3.8300144960708167,-3.9520866712443876,-6.637674525062948
1679688401764091,-5.691615167467717,-4.989700160219741,-6.546120393682713
1679688401780071,-6.0578316929884295,-5.264362554360218,-6.027313649195094
1679688401796051,-4.684519722285813,-5.0202182040130765,-5.294880598153668
1679688401812030,-2.7924010070954637,-4.287785152971651,-4.654001678492364
1679688401828010,-1.3275349050126124,-3.372243839169869,-4.287785152971651
1679688401843990,-0.9613183794918996,-2.548256656748322,-4.135194934004744
1679688401859970,-1.5106431677729688,-1.846341649500232,-3.9826047150377235
1679688401875949,-2.1210040436408235,-1.4190890363927338,-3.768978408484031
1679688401891929,-2.3651483939879654,-0.9918364232852355,-2.9449912260623705
1679688401907909,-1.6021972991530902,-0.2594033722438098,-1.5106431677729688
1679688401923889,-0.2594033722438098,-0.015259021896667946,0.015259021896667946
1679688401939869,0.41199359121083035,-0.41199359121083035,0.93080033569845
1679688401955848,-0.19836728465702436,-0.93080033569845,0.93080033569845
1679688401971828,-1.3885709925993979,-1.266498817425827,0.6866559853513081
1679688401987762,-2.090485999847374,-1.2359807736323773,0.7782101167315432
1679688402003742,-1.4190890363927338,-0.6866559853513081,1.1749446860455919
1679688402019722,0.1373311970702389,0.2594033722438098,1.5716792553597543
1679688402035701,1.1749446860455919,0.93080033569845,1.3885709925993979
1679688402051681,1.144426642252256,0.8697642481116645,0.7476920729380936
1679688402067661,0.38147554741738077,0.5035477225909517,-0.1373311970702389
1679688402083641,-0.07629510948345342,0.16784924086368846,-0.93080033569845
1679688402099620,-0.1373311970702389,-0.045777065690117524,-1.4801251239795192
1679688402115600,-0.5645838101777372,-0.7476920729380936,-1.5716792553597543
1679688402131580,-1.052872510872021,-1.1139085984588064,-1.144426642252256
1679688402147560,-0.8697642481116645,-0.9918364232852355,-0.6256198977645226
1679688402163540,-0.16784924086368846,-0.6561379415579722,-0.3509575036240449
1679688402179519,0.2899214160372594,-0.07629510948345342,-0.41199359121083035
1679688402195499,0.6866559853513081,0.4730296787976158,-0.9613183794918996
1679688402211479,0.7782101167315432,0.7782101167315432,-1.4190890363927338
1679688402227459,0.6866559853513081,0.6561379415579722,-1.5716792553597543
1679688402243438,0.6256198977645226,0.4730296787976158,-1.4801251239795192
1679688402259418,0.6256198977645226,0.5035477225909517,-1.2970168612191628
1679688402275398,0.6866559853513081,0.8392462043183286,-1.3580529488059483
1679688402291378,0.6866559853513081,1.144426642252256,-1.5716792553597543
1679688402307342,0.7782101167315432,1.2359807736323773,-1.8158236057068962
1679688402323322,0.8392462043183286,1.2054627298390415,-1.9073777370870175
1679688402339302,0.8697642481116645,1.022354467078685,-1.7242694743266611
1679688402355281,0.7171740291447577,0.9002822919051141,-1.4801251239795192
1679688402371261,0.6866559853513081,0.93080033569845,-1.2054627298390415
1679688402387241,0.93080033569845,1.1139085984588064,-1.0833905546654705
1679688402403221,1.1139085984588064,1.3885709925993979,-1.1139085984588064
1679688402419201,1.2359807736323773,1.6937514305333252,-1.4496070801861833
1679688402435180,1.3885709925993979,2.059967956054038,-1.937895780880467
1679688402451160,1.6327153429465397,2.30411230640118,-2.30411230640118
1679688402467140,1.968413824673803,2.7008468757152286,-2.5177386129548722
1679688402483120,2.30411230640118,2.7924010070954637,-2.5787747005416577
1679688402499099,2.3956664377813013,2.548256656748322,-2.3651483939879654
1679688402515079,2.182040131227609,2.090485999847374,-1.968413824673803
1679688402531059,1.7547875181201107,1.6021972991530902,-1.3885709925993979
1679688402547039,1.7547875181201107,1.5106431677729688,-1.052872510872021
1679688402563018,2.1515220874341594,1.7242694743266611,-0.93080033569845
1679688402578998,2.30411230640118,2.059967956054038,-0.9918364232852355
1679688402594978,1.9989318684672526,2.3956664377813013,-1.3885709925993979
1679688402610958,1.6937514305333252,2.548256656748322,-1.9073777370870175
1679688402626922,1.4496070801861833,2.4567025253680868,-2.090485999847374
1679688402642902,1.144426642252256,2.0294499122605885,-1.9989318684672526
1679688402658881,0.8087281605248791,1.6021972991530902,-1.7853055619134466
1679688402674860,0.6256198977645226,1.1139085984588064,-1.3580529488059483
1679688402690839,0.5035477225909517,0.6256198977645226,-0.7782101167315432
1679688402706819,0.3204394598305953,0.22888532845047393,-0.7476920729380936
1679688402722798,0.045777065690117524,0.2594033722438098,-1.6937514305333252
1679688402738777,-0.07629510948345342,0.7476920729380936,-2.7924010070954637
1679688402754757,-0.045777065690117524,1.2970168612191628,-3.2806897077897474
1679688402770736,-0.1373311970702389,1.937895780880467,-3.1891355764095124
1679688402786715,-0.8697642481116645,3.128099488822727,-2.548256656748322
1679688402802694,-2.0294499122605885,5.874723430228073,-2.1210040436408235
1679688402818674,-5.53902494850081,14.66392004272518,-3.463797970550104
1679688402834653,-15.396353093766606,36.97261005569544,-7.064927138170447
1679688402850632,-16.037232013428024,64.31677729457533,-17.929350728618374
1679688402866612,-13.443198290989471,72.9228656443122,-29.648279545281184
1679688402882591,-25.13160906385906,58.42679484245059,-30.77744716563666
1679688402898570,-38.55954833295186,38.925764858472576,-24.490730144197755
1679688402914549,-37.18623636224913,29.404135194933815,-18.90592813000694
1679688402930529,-23.63622491798276,27.389944304570008,-16.403448538948737
1679688402946441,-8.62134737163342,23.392080567635503,-15.091172655832679
1679688402962421,-1.6632333867398756,14.175631342030897,-12.741283283741495
1679688402978400,-2.97550926985582,2.3651483939879654,-9.475852597848416
1679688402994379,-8.041504539559014,-7.705806057831637,-7.980468451972229
1679688403010358,-13.931486991683755,-14.511329823758274,-8.255130846112706
1679688403026338,-15.976195925841239,-17.53261615930421,-8.438239108873063
1679688403042317,-14.755474174105416,-18.966964217593727,-7.736324101625087
1679688403058296,-13.35164415960935,-21.46944380865193,-6.21042191195545
1679688403074276,-13.015945677881973,-23.575188830395973,-4.440375371938671
1679688403090255,-13.076981765468759,-23.147936217288475,-3.2806897077897474
1679688403106234,-13.290608072022565,-20.950637064164198,-2.883955138475585
1679688403122213,-12.68024719615471,-18.966964217593727,-2.3956664377813013
1679688403138193,-10.482948043030433,-18.173495078965516,-1.1749446860455919
1679688403154172,-5.996795605401644,-17.624170290684447,0.5645838101777372
1679688403170151,0.3204394598305953,-15.976195925841239,2.548256656748322
1679688403186131,6.118867780575215,-12.985427634088637,4.16571297779808
1679688403202110,9.56740672922865,-9.750514991989007,4.1962310215915295
1679688403218089,10.08621347371627,-7.125963225757232,2.9449912260623705
1679688403234068,9.536888685435201,-5.325398641947004,0.9918364232852355
1679688403250048,9.018081940947582,-3.4943160143434397,-1.3275349050126124
1679688403266021,8.804455634393776,-1.6937514305333252,-3.1891355764095124
1679688403282001,8.499275196459848,-0.5951018539711868,-3.8605325398641526
1679688403297980,7.858396276798658,-0.2899214160372594,-3.0670634012359415
1679688403313959,7.614251926451516,-0.9002822919051141,-1.7853055619134466
1679688403329939,8.041504539559014,-1.9989318684672526,-0.5645838101777372
1679688403345918,9.536888685435201,-3.1586175326161765,0.93080033569845
1679688403361897,11.825741969939713,-3.9826047150377235,2.9144731822690346
1679688403377876,13.931486991683755,-4.379339284351886,4.501411459525457
1679688403393856,15.548943312733627,-4.409857328145222,5.416952773327239
1679688403409835,16.647592889295765,-3.6469062333104603,5.264362554360218
1679688403425814,18.204013122758738,-0.8392462043183286,4.531929503318793
1679688403441794,21.866178377965866,3.9520866712443876,3.677424277103796
1679688403457773,27.725642786297385,9.353780422674845,2.8229190508887996
1679688403473752,32.66956588082712,13.382162203402686,2.090485999847374
1679688403489731,34.0733958953233,15.548943312733627,0.9918364232852355
1679688403505711,32.120241092546166,16.342412451361838,-0.4730296787976158
1679688403521690,28.824292362859524,16.403448538948624,-2.2735942626077303
1679688403537669,25.619897764553116,16.281376363775053,-4.135194934004744
1679688403553649,22.812237735561098,14.66392004272518,-5.2338445105668825
1679688403569628,20.431830319676465,11.825741969939713,-4.989700160219741
1679688403585601,17.92935072861826,9.475852597848416,-3.9520866712443876
1679688403601581,16.250858319981603,7.705806057831637,-3.0365453574426056
1679688403617560,13.015945677881973,5.294880598153668,-1.5106431677729688
1679688403633539,8.1025406271458,1.937895780880467,0.2594033722438098
1679688403649519,4.409857328145222,-0.6256198977645226,1.5411612115663047
1679688403665498,3.585870145723675,-1.1749446860455919,2.3956664377813013
1679688403681477,3.799496452277367,-1.144426642252256,3.341725795376533
1679688403697456,4.257267109178315,-1.052872510872021,3.4332799267566543
1679688403713436,4.898146028839506,-0.5951018539711868,2.548256656748322
1679688403729415,5.355916685740453,0.22888532845047393,1.5411612115663047
1679688403745394,5.569542992294146,1.1139085984588064,0.5035477225909517
1679688403761374,5.569542992294146,1.968413824673803,-0.3509575036240449
1679688403777353,5.386434729533789,2.4567025253680868,-0.8087281605248791
1679688403793332,5.1117723353933116,2.6703288319218927,-1.1749446860455919
1679688403809311,5.264362554360218,2.7008468757152286,-1.3885709925993979
1679688403825291,5.691615167467717,2.3956664377813013,-1.3580529488059483
1679688403841270,5.691615167467717,1.846341649500232,-0.6256198977645226
1679688403857249,5.477988860914024,0.8087281605248791,0.5645838101777372
1679688403873229,5.600061036087595,-0.045777065690117524,1.8768596932936816
1679688403889208,5.691615167467717,-0.3509575036240449,3.768978408484031
1679688403905151,4.470893415732007,-0.8392462043183286,5.9357595178148586
1679688403921130,3.4332799267566543,-1.5716792553597543,7.522697795071281
1679688403937110,1.846341649500232,-2.761882963302014,10.238803692683291
1679688403953089,-1.2359807736323773,-5.325398641947004,14.358739604791253
1679688403969068,-3.891050583657602,-7.248035400930803,17.1053635461966
1679688403985047,-5.661097123674381,-7.278553444724139,17.502098115510762
1679688404001027,-7.0954451819637825,-7.156481269550568,16.952773327229693
1679688404017006,-6.88181887541009,-6.332494087129021,15.76256961928732
1679688404032985,-7.156481269550568,-4.776073853665935,13.626306553749828
1679688404048965,-6.363012130922357,-2.731364919508678,9.56740672922865
1679688404064944,-3.6163881895170107,-0.38147554741738077,5.53902494850081
1679688404080923,-1.937895780880467,-0.045777065690117524,3.0670634012359415
1679688404096902,-1.1139085984588064,-0.9918364232852355,1.9073777370870175
1679688404112882,-0.045777065690117524,-1.7547875181201107,0.106813153276903
1679688404128861,0.3509575036240449,-1.266498817425827,-1.7547875181201107
1679688404144840,0.5035477225909517,0.5645838101777372,-3.5248340581368893
1679688404160820,2.426184481574751,1.7547875181201107,-5.416952773327239
1679688404176799,4.654001678492364,1.7853055619134466,-6.1493858243686645
1679688404192778,4.654001678492364,0.9002822919051141,-4.86762798504617
1679688404208758,3.7079423208972457,0.19836728465702436,-3.7384603646905816
1679688404224731,3.006027313649156,-0.41199359121083035,-3.0365453574426056
1679688404240710,2.1210040436408235,-1.1139085984588064,-1.8768596932936816
1679688404256690,1.052872510872021,-1.5106431677729688,-0.8697642481116645
1679688404272669,0.045777065690117524,-1.1749446860455919,-1.1749446860455919
1679688404288648,0.1373311970702389,-0.19836728465702436,-2.6092927443351073
1679688404304628,1.2359807736323773,0.8697642481116645,-4.287785152971651
1679688404320607,2.426184481574751,1.7853055619134466,-5.325398641947004
1679688404336586,3.0365453574426056,2.30411230640118,-5.600061036087595
1679688404352565,3.250171663996298,2.2430762188143945,-5.203326466773433
1679688404368545,3.4943160143434397,1.4801251239795192,-4.013122758831173
1679688404384524,3.4332799267566543,0.2899214160372594,-2.3651483939879654
1679688404400503,3.097581445029391,-0.8087281605248791,-0.6866559853513081
1679688404416483,2.548256656748322,-1.6021972991530902,0.3204394598305953
1679688404432462,2.5177386129548722,-1.8158236057068962,0.4730296787976158
1679688404448441,3.097581445029391,-1.7853055619134466,0.38147554741738077
1679688404464420,3.891050583657602,-1.9073777370870175,0.5645838101777372
1679688404480400,4.3183031967651,-2.2735942626077303,1.052872510872021
1679688404496379,4.287785152971651,-2.5787747005416577,1.6327153429465397
1679688404512358,3.7384603646905816,-2.548256656748322,2.090485999847374
1679688404528338,2.9144731822690346,-2.2735942626077303,2.639810788128443
1679688404544311,2.334630350194516,-2.3956664377813013,3.341725795376533
1679688404560290,2.6092927443351073,-2.731364919508678,3.799496452277367
1679688404576270,3.250171663996298,-2.5177386129548722,3.4332799267566543
1679688404592249,3.8605325398641526,-1.3580529488059483,2.212558175020945
1679688404608228,4.379339284351886,0.5645838101777372,0.44251163500416624
1679688404624208,4.86762798504617,2.5787747005416577,-0.9613183794918996
1679688404640187,4.348821240558436,2.426184481574751,-0.7782101167315432
1679688404656166,4.1962310215915295,0.9002822919051141,-0.106813153276903
1679688404672145,3.921568627450938,-0.106813153276903,0.5035477225909517
1679688404688125,2.761882963302014,-0.41199359121083035,1.2359807736323773
1679688404704104,2.0294499122605885,0.015259021896667946,1.6632333867398756
1679688404720083,1.937895780880467,0.7171740291447577,2.182040131227609
1679688404736063,2.4567025253680868,1.1749446860455919,2.6092927443351073
1679688404752042,2.639810788128443,1.5106431677729688,2.9449912260623705
1679688404768021,1.7853055619134466,1.8158236057068962,2.9449912260623705
1679688404784000,0.4730296787976158,2.883955138475585,3.1891355764095124
1679688404799980,-0.6561379415579722,4.83710994125272,4.654001678492364
1679688404815959,-1.4190890363927338,8.041504539559014,8.041504539559014
1679688404831938,-2.090485999847374,12.00885023270007,12.191958495460426
1679688404847918,-3.8300144960708167,16.342412451361838,14.877546349278987
1679688404863861,-7.583733882658066,20.401312275883015,15.671015487907198
1679688404879840,-11.30693522545198,23.483634699015738,16.372930495155174
1679688404895818,-13.35164415960935,25.497825589379545,16.55603875791553
1679688404911797,-14.69443808651863,24.795910582131683,15.121690699626129
1679688404927776,-11.764705882352928,23.361562523842167,14.419775692378039
1679688404943755,-8.133058670939135,21.16426337071789,12.375066758220783
1679688404959734,-3.9520866712443876,18.539711604486115,10.208285648889841
1679688404975712,-1.2970168612191628,14.908064393072323,7.888914320591994
1679688404991691,0.4730296787976158,11.551079575799122,4.409857328145222
1679688405007670,1.5411612115663047,7.614251926451516,0.6256198977645226
1679688405023649,2.212558175020945,3.7079423208972457,-2.1515220874341594
1679688405039628,2.8229190508887996,0.1373311970702389,-3.1891355764095124
1679688405055606,2.731364919508678,-2.639810788128443,-3.2806897077897474
1679688405071585,2.883955138475585,-4.86762798504617,-3.585870145723675
1679688405087564,2.9144731822690346,-6.698710612649734,-4.257267109178315
1679688405103543,0.106813153276903,-8.041504539559014,-4.440375371938671
1679688405119522,-6.942854962996876,-9.658960860608772,-3.372243839169869
1679688405135501,-10.08621347371627,-11.154345006485073,-4.684519722285813
1679688405151479,-8.712901503013654,-10.818646524757696,-6.668192568856284
1679688405167458,-6.546120393682713,-8.865491721980561,-7.370107576104374
1679688405183441,-3.921568627450938,-5.447470817120575,-8.133058670939135
1679688405199420,-1.2359807736323773,-1.9073777370870175,-9.384298466468294
1679688405215398,1.968413824673803,0.93080033569845,-10.177767605096506
1679688405231377,5.172808422980097,4.531929503318793,-11.123826962691624
1679688405247356,8.133058670939135,8.07202258335235,-12.52765697718769
1679688405263335,9.56740672922865,10.269321736476627,-12.710765239948046
1679688405279314,9.44533455405508,10.818646524757696,-11.367971313038765
1679688405295292,8.529793240253298,9.781033035782343,-8.468757152666512
1679688405311271,7.461661707484495,8.285648889906156,-5.477988860914024
1679688405327250,6.485084306095928,6.21042191195545,-3.463797970550104
1679688405343229,5.447470817120575,4.135194934004744,-2.3651483939879654
1679688405359208,4.287785152971651,2.883955138475585,-2.2430762188143945
1679688405375187,3.1586175326161765,2.1210040436408235,-2.5177386129548722
1679688405391165,1.8158236057068962,0.8392462043183286,-2.3956664377813013
1679688405407144,0.8697642481116645,-0.5340657663844013,-1.4190890363927338
1679688405423123,0.22888532845047393,-1.6021972991530902,-0.5340657663844013
1679688405439102,-0.3509575036240449,-2.1210040436408235,0.106813153276903
1679688405455081,-0.8087281605248791,-2.212558175020945,-0.045777065690117524
1679688405471059,-0.8697642481116645,-1.937895780880467,-0.6256198977645226
1679688405487038,-0.4730296787976158,-1.6632333867398756,-1.3275349050126124
1679688405503021,-0.19836728465702436,-1.6327153429465397,-1.8158236057068962
1679688405519000,0.19836728465702436,-1.6021972991530902,-2.059967956054038
1679688405534978,2.0294499122605885,-1.0833905546654705,-1.846341649500232
1679688405550957,4.86762798504617,1.2359807736323773,-0.5340657663844013
1679688405566936,6.179903868162,2.3651483939879654,1.266498817425827
1679688405582915,6.485084306095928,0.7171740291447577,2.761882963302014
1679688405598894,5.905241474021523,-2.8229190508887996,4.86762798504617
1679688405614873,2.0294499122605885,-5.0202182040130765,6.179903868162
1679688405630851,0.3204394598305953,-1.6632333867398756,1.6327153429465397
1679688405646830,-1.4801251239795192,2.4567025253680868,-2.639810788128443
1679688405662809,-1.4801251239795192,2.9449912260623705,-3.341725795376533
1679688405678788,0.93080033569845,2.059967956054038,-2.883955138475585
1679688405694767,3.463797970550104,0.93080033569845,-2.3651483939879654
1679688405710745,3.9826047150377235,0.16784924086368846,-2.0294499122605885
1679688405726724,3.0365453574426056,-0.6866559853513081,-1.2970168612191628
1679688405742703,2.2430762188143945,-1.2054627298390415,-0.7476920729380936
1679688405758682,1.6327153429465397,-1.052872510872021,-0.8392462043183286
1679688405774661,1.5411612115663047,-0.5035477225909517,-1.266498817425827
1679688405790640,1.3275349050126124,-0.19836728465702436,-1.6937514305333252
1679688405806618,0.9002822919051141,-0.9613183794918996,-1.937895780880467
1679688405822570,0.7782101167315432,-2.883955138475585,-2.8229190508887996
1679688405838549,0.2594033722438098,-5.294880598153668,-3.9520866712443876
1679688405854528,-1.4190890363927338,-7.980468451972229,-4.86762798504617
1679688405870507,-4.1962310215915295,-11.398489356832215,-6.027313649195094
1679688405886486,-7.888914320591994,-16.433966582742073,-7.980468451972229
1679688405902464,-12.68024719615471,-21.22529945830479,-10.513466086823769
1679688405918443,-17.746242465858018,-22.598611429007406,-12.039368276493406
1679688405934422,-21.31685358968491,-20.309758144503007,-11.703669794766142
1679688405950401,-22.56809338521407,-16.922255283436357,-9.872587167162578
1679688405966380,-23.941405355916686,-14.908064393072323,-7.431143663691159
1679688405982359,-23.056382085908353,-13.3211261158159,-5.874723430228073
1679688405998337,-20.40131227588313,-11.154345006485073,-5.142290379186647
1679688406014316,-15.793087663080883,-8.560311284046634,-4.531929503318793
1679688406030295,-9.842069123369129,-5.0202182040130765,-3.891050583657602
1679688406046274,-3.799496452277367,-1.7242694743266611,-2.883955138475585
1679688406062253,0.9002822919051141,0.5951018539711868,-1.8768596932936816
1679688406078231,3.463797970550104,1.4496070801861833,-1.5716792553597543
1679688406094210,3.8300144960708167,1.2054627298390415,-1.5411612115663047
1679688406110189,3.1586175326161765,0.7782101167315432,-1.6632333867398756
1679688406126168,1.9073777370870175,0.19836728465702436,-1.6021972991530902
1679688406142151,1.4496070801861833,-0.44251163500416624,-0.7782101167315432
1679688406158129,1.9073777370870175,-0.9918364232852355,0.6256198977645226
1679688406174108,2.8229190508887996,-1.2970168612191628,2.090485999847374
1679688406190087,2.7924010070954637,-1.266498817425827,3.128099488822727
1679688406206066,1.7242694743266611,-1.2970168612191628,4.1046768902112944
1679688406222045,-0.19836728465702436,-2.7008468757152286,4.989700160219741
1679688406238023,-3.4943160143434397,-5.691615167467717,5.661097123674381
1679688406254002,-7.492179751277945,-8.285648889906156,6.515602349889377
1679688406269981,-9.109636072327703,-9.079118028534367,4.470893415732007
1679688406285960,-8.682383459220205,-6.179903868162,-0.3509575036240449
1679688406301939,-7.0954451819637825,0.045777065690117524,-5.477988860914024
1679688406317917,-4.470893415732007,6.546120393682713,-9.29274433508806
1679688406333896,0.2899214160372594,11.123826962691624,-10.08621347371627
1679688406349875,5.630579079880931,11.825741969939713,-7.644769970244852
1679688406365854,9.536888685435201,8.804455634393776,-3.219653620202962
1679688406381833,11.245899137865194,4.013122758831173,0.7476920729380936
1679688406397812,10.330357824063412,0.5340657663844013,2.548256656748322
1679688406413790,8.377203021286277,-0.41199359121083035,2.30411230640118
1679688406429769,6.118867780575215,-0.015259021896667946,0.8087281605248791
1679688406445748,4.654001678492364,0.5035477225909517,-0.9002822919051141
1679688406461731,5.1117723353933116,1.0833905546654705,-2.059967956054038
1679688406477709,5.783169298847952,1.7242694743266611,-1.846341649500232
1679688406493688,5.447470817120575,2.3956664377813013,-0.5645838101777372
1679688406509667,4.074158846417959,2.5787747005416577,1.2359807736323773
1679688406525646,1.937895780880467,0.5035477225909517,3.9826047150377235
1679688406541625,-1.2970168612191628,-2.883955138475585,7.614251926451516
1679688406557603,-4.776073853665935,-6.332494087129021,10.269321736476627
1679688406573582,-7.064927138170447,-7.675288014038301,10.818646524757696
1679688406589561,-6.332494087129021,-6.332494087129021,8.865491721980561
1679688406605540,-3.1586175326161765,-3.4027618829633184,5.416952773327239
1679688406621519,0.3509575036240449,-1.1749446860455919,1.5716792553597543
1679688406637498,2.4872205691615363,0.19836728465702436,-0.6256198977645226
1679688406653476,2.3956664377813013,0.7171740291447577,-1.144426642252256
1679688406669455,1.9073777370870175,-0.38147554741738077,-0.015259021896667946
1679688406685434,3.1586175326161765,-1.7853055619134466,2.2430762188143945
1679688406701413,4.989700160219741,-1.2054627298390415,4.013122758831173
1679688406717392,6.790264744029855,0.106813153276903,3.7079423208972457
1679688406733370,8.926527809567347,1.5716792553597543,0.93080033569845
1679688406749349,9.048599984740918,2.182040131227609,-1.846341649500232
1679688406765328,7.3090714885175885,1.6937514305333252,-3.2806897077897474
1679688406781280,6.179903868162,1.0833905546654705,-3.4027618829633184
1679688406797259,5.874723430228073,1.022354467078685,-1.6632333867398756
1679688406813238,4.83710994125272,1.1139085984588064,0.44251163500416624
1679688406829217,3.6469062333104603,0.4730296787976158,1.6632333867398756
1679688406845195,2.5177386129548722,-0.38147554741738077,1.8158236057068962
1679688406861174,1.2970168612191628,-1.2054627298390415,0.8392462043183286
1679688406877153,0.7171740291447577,-2.212558175020945,-0.3509575036240449
1679688406893132,-0.045777065690117524,-1.7242694743266611,-0.106813153276903
1679688406909111,-5.325398641947004,1.3275349050126124,1.937895780880467
1679688406925089,-9.56740672922865,4.623483634699028,0.9002822919051141
1679688406941068,-10.177767605096506,6.027313649195094,-1.144426642252256
1679688406957047,-9.719996948195558,5.752651255054502,-1.4190890363927338
1679688406973026,-8.712901503013654,5.416952773327239,-2.059967956054038
1679688406989005,-6.485084306095928,6.0578316929884295,-4.470893415732007
1679688407004984,-4.531929503318793,8.041504539559014,-6.607156481269499
1679688407020962,-4.013122758831173,9.658960860608772,-7.156481269550568
1679688407036941,-3.7384603646905816,10.605020218204004,-7.339589532310924
1679688407052920,-3.1586175326161765,11.062790875104838,-7.675288014038301
1679688407068899,-2.883955138475585,11.703669794766142,-7.888914320591994
1679688407084878,-8.1025406271458,12.283512626840547,-6.240939955748786
1679688407100860,-13.046463721675423,11.093308918898288,-4.287785152971651
1679688407116839,-12.985427634088637,9.506370641641865,-4.348821240558436
1679688407132818,-10.574502174410554,7.827878233005208,-4.1046768902112944
1679688407148797,-9.475852597848416,6.607156481269499,-2.97550926985582
1679688407164775,-10.208285648889841,5.1117723353933116,-1.968413824673803
1679688407180754,-11.490043488212336,3.555352101930225,-1.022354467078685
1679688407196733,-11.33745326924543,2.1515220874341594,-0.6561379415579722
1679688407212712,-9.475852597848416,1.2054627298390415,-0.9002822919051141
1679688407228691,-7.064927138170447,0.5035477225909517,-1.3885709925993979
1679688407244670,-4.715037766079149,0.41199359121083035,-1.6632333867398756
1679688407260648,-2.6703288319218927,1.2970168612191628,-1.8768596932936816
1679688407276627,-0.8697642481116645,2.090485999847374,-1.9989318684672526
1679688407292606,0.4730296787976158,2.334630350194516,-2.1515220874341594
1679688407308585,0.8087281605248791,2.334630350194516,-2.182040131227609
1679688407324564,0.6866559853513081,2.5177386129548722,-1.937895780880467
1679688407340542,1.022354467078685,2.3651483939879654,-1.5716792553597543
1679688407356521,1.6021972991530902,1.9073777370870175,-1.2970168612191628
1679688407372500,1.7547875181201107,1.4190890363927338,-1.052872510872021
1679688407388479,1.3580529488059483,1.2359807736323773,-1.022354467078685
1679688407404458,0.9613183794918996,1.5716792553597543,-1.1139085984588064
1679688407420410,0.93080033569845,2.090485999847374,-1.3580529488059483
1679688407436389,0.9613183794918996,2.426184481574751,-1.4496070801861833
1679688407452367,0.9918364232852355,2.6092927443351073,-1.2359807736323773
1679688407468346,1.2054627298390415,2.5177386129548722,-1.022354467078685
1679688407484325,1.7547875181201107,2.30411230640118,-1.2359807736323773
1679688407500304,2.30411230640118,1.968413824673803,-1.7547875181201107
1679688407516283,2.883955138475585,1.9073777370870175,-2.1210040436408235
1679688407532261,4.1046768902112944,2.0294499122605885,-2.4872205691615363
1679688407548240,6.0578316929884295,2.1515220874341594,-2.761882963302014
1679688407564219,8.62134737163342,2.1515220874341594,-2.731364919508678
1679688407580198,10.940718699931267,2.0294499122605885,-3.3112077515830833
1679688407596177,11.97833218890662,1.266498817425827,-4.16571297779808
1679688407612156,11.886778057526499,-0.07629510948345342,-4.745555809872599
1679688407628134,12.069886320286855,-0.9613183794918996,-4.928664072632955
1679688407644113,11.764705882352928,-0.41199359121083035,-5.081254291599862
1679688407660092,10.147249561303056,1.2054627298390415,-5.355916685740453
1679688407676071,7.675288014038301,1.4801251239795192,-4.16571297779808
1679688407692050,6.912336919203426,0.6561379415579722,-1.846341649500232
1679688407708028,6.332494087129021,0.4730296787976158,-0.5951018539711868
1679688407724007,5.416952773327239,0.6256198977645226,-0.7476920729380936
1679688407739959,4.1962310215915295,0.3509575036240449,-1.2970168612191628
1679688407755938,3.4943160143434397,-0.38147554741738077,-1.4190890363927338
1679688407771917,2.5177386129548722,-0.6256198977645226,-1.022354467078685
1679688407787896,1.2970168612191628,-0.7476920729380936,-0.19836728465702436
1679688407803875,0.41199359121083035,-1.1749446860455919,0.7782101167315432
1679688407819853,0.19836728465702436,-1.937895780880467,1.4190890363927338
1679688407835832,0.5645838101777372,-2.2735942626077303,1.7242694743266611
1679688407851811,0.7782101167315432,-2.059967956054038,1.3580529488059483
1679688407867790,0.44251163500416624,-0.9002822919051141,0.5340657663844013
1679688407883769,0.1373311970702389,0.07629510948345342,-0.5645838101777372
1679688407899747,0.6256198977645226,0.6866559853513081,-1.6632333867398756
1679688407915726,1.2359807736323773,0.8392462043183286,-2.639810788128443
1679688407931705,1.937895780880467,0.44251163500416624,-3.8300144960708167
1679688407947684,2.3651483939879654,-0.5645838101777372,-6.301976043335571
1679688407963663,2.4872205691615363,-1.6937514305333252,-8.560311284046634
1679688407979642,2.639810788128443,-2.182040131227609,-9.811551079575793
1679688407995620,2.8229190508887996,-2.3651483939879654,-10.75761043717091
1679688408011599,2.9449912260623705,-1.7242694743266611,-11.154345006485073
1679688408027578,3.4332799267566543,-0.19836728465702436,-11.886778057526499
1679688408043557,5.050736247806526,1.5411612115663047,-13.534752422369706
1679688408059539,6.424048218509142,2.639810788128443,-15.091172655832679
1679688408075518,6.912336919203426,3.2806897077897474,-15.426871137560056
1679688408091497,6.363012130922357,3.219653620202962,-13.748378728923399
1679688408107476,5.447470817120575,2.7008468757152286,-10.66605630579079
1679688408123455,4.623483634699028,2.182040131227609,-6.9733730067902115
1679688408139433,3.891050583657602,1.4496070801861833,-3.5248340581368893
1679688408155412,3.341725795376533,0.9918364232852355,-1.022354467078685
1679688408171391,2.7924010070954637,0.7171740291447577,0.045777065690117524
1679688408187370,2.426184481574751,0.6866559853513081,0.2899214160372594
1679688408203349,1.9073777370870175,0.6561379415579722,0.38147554741738077
1679688408219328,1.7242694743266611,0.6561379415579722,0.5340657663844013
1679688408235306,1.3275349050126124,0.5951018539711868,0.4730296787976158
1679688408251285,1.144426642252256,0.44251163500416624,0.5340657663844013
1679688408267264,0.7782101167315432,0.2899214160372594,0.5340657663844013
1679688408283243,0.7476920729380936,0.19836728465702436,0.5035477225909517
1679688408299222,0.9613183794918996,0.106813153276903,0.5340657663844013
1679688408315200,1.266498817425827,0.16784924086368846,0.6561379415579722
1679688408331179,1.5411612115663047,0.015259021896667946,0.8087281605248791
1679688408347158,1.7853055619134466,-0.106813153276903,1.022354467078685
1679688408363137,1.937895780880467,-0.045777065690117524,1.3580529488059483
1679688408379119,1.6937514305333252,-0.16784924086368846,1.7547875181201107
1679688408395098,1.1749446860455919,-0.6256198977645226,1.846341649500232
1679688408411077,0.5035477225909517,-1.052872510872021,1.6937514305333252
1679688408427056,0.19836728465702436,-1.266498817425827,1.1749446860455919
1679688408443035,0.41199359121083035,-1.2359807736323773,0.7476920729380936
1679688408459014,0.6561379415579722,-1.1749446860455919,0.2899214160372594
1679688408474992,0.5645838101777372,-0.9918364232852355,-0.015259021896667946
1679688408490971,0.16784924086368846,-0.9002822919051141,-0.3204394598305953
1679688408506950,-0.015259021896667946,-0.6256198977645226,-0.5951018539711868
1679688408522929,0.22888532845047393,-0.3204394598305953,-0.9002822919051141
1679688408538908,0.6866559853513081,0.045777065690117524,-1.144426642252256
1679688408554886,1.052872510872021,0.3509575036240449,-1.4801251239795192
1679688408570865,1.0833905546654705,0.6256198977645226,-1.6632333867398756
1679688408586844,1.022354467078685,0.9918364232852355,-1.8768596932936816
1679688408602823,0.9002822919051141,1.022354467078685,-1.7242694743266611
1679688408618802,0.8087281605248791,0.8697642481116645,-1.4190890363927338
1679688408634781,0.8087281605248791,0.6561379415579722,-1.2359807736323773
1679688408650759,0.6561379415579722,0.44251163500416624,-1.266498817425827
1679688408666738,0.5951018539711868,0.2594033722438098,-1.2359807736323773
1679688408682717,0.3204394598305953,0.106813153276903,-1.144426642252256
1679688408698669,0.07629510948345342,-0.1373311970702389,-0.8392462043183286
1679688408714647,-0.19836728465702436,-0.22888532845047393,-0.5035477225909517
1679688408730626,-0.3204394598305953,-0.2594033722438098,-0.3204394598305953
1679688408746604,-0.22888532845047393,-0.41199359121083035,-0.44251163500416624
1679688408762582,0.015259021896667946,-0.44251163500416624,-0.7782101167315432
1679688408778561,0.045777065690117524,-0.2594033722438098,-1.0833905546654705
1679688408794539,-0.106813153276903,-0.07629510948345342,-1.1139085984588064
1679688408810517,-0.015259021896667946,0.015259021896667946,-0.93080033569845
1679688408826496,0.19836728465702436,0.045777065690117524,-0.7476920729380936
1679688408842474,0.2899214160372594,-0.16784924086368846,-0.5951018539711868
1679688408858452,0.41199359121083035,-0.2594033722438098,-0.41199359121083035
1679688408874431,0.2899214160372594,-0.44251163500416624,-0.19836728465702436
1679688408890409,0.045777065690117524,-0.5951018539711868,-0.07629510948345342
1679688408906387,0.015259021896667946,-0.7476920729380936,-0.015259021896667946
1679688408922366,0.1373311970702389,-0.9002822919051141,0.07629510948345342
1679688408938344,0.44251163500416624,-0.9918364232852355,0.16784924086368846
1679688408954322,0.7171740291447577,-0.9918364232852355,0.07629510948345342
1679688408970301,0.9002822919051141,-0.9613183794918996,0.07629510948345342
1679688408986279,0.8087281605248791,-0.8697642481116645,0.045777065690117524
1679688409002257,0.5035477225909517,-0.9002822919051141,0.015259021896667946
1679688409018249,0.44251163500416624,-1.052872510872021,0.16784924086368846
1679688409034228,0.6561379415579722,-1.1139085984588064,0.2594033722438098
1679688409050207,0.93080033569845,-1.022354467078685,0.19836728465702436
1679688409066186,0.9918364232852355,-0.93080033569845,-0.07629510948345342
1679688409082164,0.8697642481116645,-0.93080033569845,-0.3204394598305953
1679688409098143,0.93080033569845,-0.8392462043183286,-0.2594033722438098
1679688409114122,1.2054627298390415,-0.6866559853513081,-0.16784924086368846
1679688409130101,1.4190890363927338,-0.5035477225909517,-0.106813153276903
1679688409146080,1.2970168612191628,-0.5951018539711868,-0.2594033722438098
1679688409162058,0.8697642481116645,-0.5951018539711868,-0.3509575036240449
1679688409178037,0.3204394598305953,-0.6256198977645226,-0.7171740291447577
1679688409194016,-0.3204394598305953,-0.7782101167315432,-0.8087281605248791
1679688409209995,-1.1139085984588064,-1.144426642252256,-0.9002822919051141
1679688409225974,-1.1139085984588064,-1.022354467078685,-0.93080033569845
1679688409241953,-1.0833905546654705,-0.9613183794918996,-1.022354467078685
1679688409257931,-1.4801251239795192,-1.1749446860455919,-1.3580529488059483
1679688409273910,-3.341725795376533,-1.9989318684672526,-1.7242694743266611
1679688409289889,-5.325398641947004,-2.9144731822690346,-1.9073777370870175
1679688409305868,-7.0954451819637825,-3.921568627450938,-1.8158236057068962
1679688409321847,-8.316166933699492,-4.86762798504617,-1.3275349050126124
1679688409337829,-7.980468451972229,-4.745555809872599,-0.5951018539711868
1679688409353808,-6.332494087129021,-3.8300144960708167,-0.16784924086368846
1679688409369787,-4.16571297779808,-2.6703288319218927,0.015259021896667946
1679688409385766,-3.0670634012359415,-1.6937514305333252,-0.22888532845047393
1679688409401744,-2.4567025253680868,-0.7782101167315432,-0.6561379415579722
1679688409417723,-1.6937514305333252,0.106813153276903,-1.1749446860455919
1679688409433702,-1.052872510872021,0.6256198977645226,-1.4190890363927338
1679688409449681,-0.7476920729380936,0.8087281605248791,-1.5106431677729688
1679688409465660,-0.5035477225909517,0.8087281605248791,-1.6327153429465397
1679688409481639,0.106813153276903,1.052872510872021,-1.6021972991530902
1679688409497617,0.44251163500416624,1.1749446860455919,-1.5411612115663047
1679688409513596,0.5645838101777372,1.2970168612191628,-1.3580529488059483
1679688409529575,0.5645838101777372,1.6327153429465397,-1.0833905546654705
1679688409545554,0.3204394598305953,2.4567025253680868,-0.93080033569845
1679688409561533,0.16784924086368846,3.585870145723675,-0.9918364232852355
1679688409577511,0.2594033722438098,4.654001678492364,-1.266498817425827
1679688409593490,0.6561379415579722,5.752651255054502,-1.4190890363927338
1679688409609469,0.7171740291447577,6.485084306095928,-1.6937514305333252
1679688409625448,-0.22888532845047393,6.363012130922357,-2.059967956054038
1679688409641427,-1.4801251239795192,6.0578316929884295,-2.30411230640118
1679688409657379,-2.059967956054038,6.485084306095928,-1.846341649500232
1679688409673357,-2.3956664377813013,7.766842145418423,-1.5411612115663047
1679688409689335,-3.0365453574426056,9.41481651026163,-1.8768596932936816
1679688409705314,-4.3183031967651,10.482948043030433,-2.6703288319218927
1679688409721292,-6.72922865644307,11.245899137865194,-2.883955138475585
1679688409737270,-8.712901503013654,11.703669794766142,-2.4872205691615363
1679688409753249,-9.44533455405508,11.886778057526499,-2.182040131227609
1679688409769227,-9.048599984740918,11.734187838559478,-2.090485999847374
1679688409785205,-8.316166933699492,10.910200656137931,-1.7242694743266611
1679688409801184,-7.156481269550568,9.41481651026163,-1.4801251239795192
1679688409817162,-6.485084306095928,7.736324101625087,-1.4190890363927338
1679688409833140,-6.546120393682713,6.332494087129021,-1.3580529488059483
1679688409849119,-6.332494087129021,5.264362554360218,-1.4801251239795192
1679688409865097,-5.630579079880931,3.7079423208972457,-1.9073777370870175
1679688409881075,-4.898146028839506,1.5716792553597543,-2.426184481574751
1679688409897054,-4.287785152971651,-0.5035477225909517,-2.3651483939879654
1679688409913032,-4.654001678492364,-1.9989318684672526,-1.6937514305333252
1679688409929010,-5.874723430228073,-3.341725795376533,-1.1749446860455919
1679688409944989,-7.858396276798658,-4.531929503318793,-1.0833905546654705
1679688409960967,-10.513466086823769,-5.905241474021523,-1.1139085984588064
1679688409976959,-13.90096894789042,-7.949950408178779,-1.144426642252256
1679688409992937,-16.922255283436357,-9.719996948195558,-1.3275349050126124
1679688410008916,-18.326085297932423,-10.08621347371627,-1.8158236057068962
1679688410024894,-17.471580071717426,-8.22461280231937,-2.3956664377813013
1679688410040872,-14.114595254444112,-5.081254291599862,-2.639810788128443
1679688410056851,-9.231708247501274,-2.0294499122605885,-2.6092927443351073
1679688410072829,-4.348821240558436,0.07629510948345342,-2.3651483939879654
1679688410088807,-1.0833905546654705,0.6256198977645226,-1.9989318684672526
1679688410104786,0.1373311970702389,-0.7171740291447577,-1.5716792553597543
1679688410120764,0.3204394598305953,-3.4332799267566543,-0.8697642481116645
1679688410136742,0.5340657663844013,-6.576638437476163,-0.045777065690117524
1679688410152721,0.38147554741738077,-9.506370641641865,0.5645838101777372
1679688410168699,-0.1373311970702389,-11.490043488212336,0.6866559853513081
1679688410184677,-1.022354467078685,-12.619211108567924,0.44251163500416624
1679688410200656,-1.5106431677729688,-12.314030670633997,-0.106813153276903
1679688410216634,-0.44251163500416624,-9.689478904402222,-1.1749446860455919
1679688410232612,1.6937514305333252,-5.9357595178148586,-1.9073777370870175
1679688410248591,3.891050583657602,-2.853437094682249,-2.1210040436408235
1679688410264569,5.386434729533789,-1.6327153429465397,-1.7853055619134466
1679688410280547,6.118867780575215,-1.6937514305333252,-1.3885709925993979
1679688410296539,6.576638437476163,-1.846341649500232,-1.144426642252256
1679688410312518,6.576638437476163,-1.9989318684672526,-1.3275349050126124
1679688410328497,6.21042191195545,-1.968413824673803,-1.7547875181201107
1679688410344475,5.661097123674381,-1.7853055619134466,-2.090485999847374
1679688410360454,5.264362554360218,-1.3885709925993979,-2.182040131227609
1679688410376433,4.776073853665935,-0.9918364232852355,-1.968413824673803
1679688410392412,4.226749065384865,-0.8697642481116645,-1.5106431677729688
1679688410408391,3.768978408484031,-0.8087281605248791,-0.8392462043183286
1679688410424369,3.341725795376533,-0.5035477225909517,-0.22888532845047393
1679688410440348,2.548256656748322,-0.045777065690117524,-0.045777065690117524
1679688410456327,1.6021972991530902,0.6256198977645226,-0.16784924086368846
1679688410472306,0.6866559853513081,0.9613183794918996,-0.4730296787976158
1679688410488285,0.045777065690117524,0.9613183794918996,-0.6866559853513081
1679688410504264,-0.5340657663844013,0.8697642481116645,-0.7782101167315432
1679688410520242,-0.8697642481116645,0.7782101167315432,-0.3509575036240449
1679688410536221,-0.6256198977645226,0.6256198977645226,0.3509575036240449
1679688410552200,0.1373311970702389,0.2594033722438098,0.9613183794918996
1679688410568179,0.9613183794918996,-0.19836728465702436,1.3885709925993979
1679688410584158,1.8158236057068962,-0.3509575036240449,1.4801251239795192
1679688410600136,3.1586175326161765,-0.19836728465702436,1.266498817425827
1679688410616088,4.898146028839506,-0.22888532845047393,0.7171740291447577
1679688410632067,7.156481269550568,-0.9002822919051141,0.07629510948345342
1679688410648045,9.781033035782343,-1.6327153429465397,-0.1373311970702389
1679688410664024,13.412680247196135,-0.41199359121083035,-0.1373311970702389
1679688410680002,18.02090485999838,3.341725795376533,-0.22888532845047393
1679688410695980,22.690165560387527,8.07202258335235,-0.6866559853513081
1679688410711959,28.54962996871882,12.283512626840547,-1.9073777370870175
1679688410727937,34.13443198290997,13.3211261158159,-3.219653620202962
1679688410743915,35.75188830395973,10.63553826199734,-4.562447547112242
1679688410759894,31.113145647363808,7.492179751277945,-4.989700160219741
1679688410775872,18.72281986724647,2.4872205691615363,-3.250171663996298
1679688410791850,5.142290379186647,-3.128099488822727,-0.6561379415579722
1679688410807829,-3.4332799267566543,-6.790264744029855,1.7242694743266611
1679688410823807,-6.820782787823305,-8.590829327840083,2.6703288319218927
1679688410839785,-3.8605325398641526,-7.797360189211872,1.968413824673803
1679688410855764,1.5716792553597543,-4.86762798504617,1.8768596932936816
1679688410871742,4.531929503318793,-2.731364919508678,3.0365453574426056
1679688410887720,3.0365453574426056,0.7782101167315432,3.250171663996298
1679688410903699,-1.8158236057068962,2.3651483939879654,3.2806897077897474
1679688410919677,2.1210040436408235,-2.30411230640118,5.813687342641288
1679688410935669,13.809414816510184,-3.799496452277367,7.949950408178779
1679688410951647,22.598611429007292,-1.1139085984588064,7.614251926451516
1679688410967625,23.483634699015738,2.2735942626077303,5.783169298847952
1679688410983604,18.509193560692665,4.989700160219741,3.6163881895170107
1679688410999582,9.628442816815436,5.752651255054502,1.846341649500232
1679688411015560,3.128099488822727,5.264362554360218,-0.22888532845047393
1679688411031539,3.250171663996298,5.661097123674381,-1.5106431677729688
1679688411047517,7.431143663691159,6.515602349889377,-1.9989318684672526
1679688411063495,11.917296101319835,6.698710612649734,-1.2359807736323773
1679688411079474,12.832837415121617,6.088349736781879,-0.5035477225909517
1679688411095452,9.99465934233615,5.325398641947004,-1.3580529488059483
1679688411111430,5.874723430228073,4.226749065384865,-4.226749065384865
1679688411127409,1.937895780880467,2.548256656748322,-7.461661707484495
1679688411143387,-1.2359807736323773,-1.6632333867398756,-8.407721065079727
1679688411159365,-3.555352101930225,-6.179903868162,-8.194094758525921
1679688411175344,-3.372243839169869,-8.041504539559014,-7.461661707484495
1679688411191322,-2.090485999847374,-7.949950408178779,-6.424048218509142
1679688411207300,-1.0833905546654705,-7.339589532310924,-5.661097123674381
1679688411223279,-1.2970168612191628,-7.156481269550568,-5.142290379186647
1679688411239257,-2.5177386129548722,-7.644769970244852,-4.898146028839506
1679688411255249,-3.4027618829633184,-7.797360189211872,-5.2338445105668825
1679688411271227,-2.5177386129548722,-7.431143663691159,-5.53902494850081
1679688411287205,-0.8392462043183286,-7.3090714885175885,-5.53902494850081
1679688411303184,1.1139085984588064,-7.644769970244852,-4.776073853665935
1679688411319162,2.761882963302014,-8.010986495765565,-3.341725795376533
1679688411335140,4.1046768902112944,-7.55321583886473,-1.6327153429465397
1679688411351119,5.569542992294146,-6.2714579995422355,-0.5035477225909517
1679688411367097,6.240939955748786,-4.989700160219741,0.41199359121083035
1679688411383075,5.0202182040130765,-4.654001678492364,0.9918364232852355
1679688411399054,3.5248340581368893,-4.257267109178315,0.6866559853513081
1679688411415032,2.6092927443351073,-3.463797970550104,-0.045777065690117524
1679688411431010,3.6163881895170107,-2.5177386129548722,-1.052872510872021
1679688411446989,6.576638437476163,-1.5106431677729688,-0.8392462043183286
1679688411462967,5.752651255054502,-0.5035477225909517,0.7171740291447577
1679688411478945,0.045777065690117524,-0.44251163500416624,0.3204394598305953
1679688411494924,-3.1586175326161765,-0.2594033722438098,-1.4496070801861833
1679688411510902,-3.372243839169869,0.015259021896667946,-1.6632333867398756
1679688411526880,-2.30411230640118,-0.5645838101777372,-1.3580529488059483
1679688411542859,-1.6021972991530902,-2.059967956054038,-1.2359807736323773
1679688411558837,-2.059967956054038,-2.7924010070954637,-1.4190890363927338
1679688411574798,-2.7924010070954637,-1.9073777370870175,-1.846341649500232
1679688411590777,-3.6163881895170107,-0.7171740291447577,-2.731364919508678
1679688411606755,-3.9520866712443876,-0.44251163500416624,-3.6163881895170107
1679688411622733,-4.470893415732007,-0.6561379415579722,-4.592965590905578
1679688411638712,-6.301976043335571,-1.266498817425827,-5.355916685740453
1679688411654690,-8.77393759060044,-2.2430762188143945,-5.783169298847952
1679688411670668,-10.482948043030433,-2.8229190508887996,-5.416952773327239
1679688411686647,-10.299839780270077,-3.219653620202962,-4.440375371938671
1679688411702625,-8.133058670939135,-2.5177386129548722,-3.372243839169869
1679688411718603,-5.081254291599862,-0.7782101167315432,-2.731364919508678
1679688411734582,-2.761882963302014,0.38147554741738077,-2.1515220874341594
1679688411750560,-2.6092927443351073,0.5035477225909517,-1.3275349050126124
1679688411766538,-3.768978408484031,0.22888532845047393,-0.8392462043183286
1679688411782517,-4.715037766079149,-0.1373311970702389,-0.7476920729380936
1679688411798495,-5.325398641947004,-0.3204394598305953,-0.5645838101777372
1679688411814473,-6.454566262302592,-0.41199359121083035,-0.07629510948345342
1679688411830452,-8.133058670939135,-1.052872510872021,0.6866559853513081
1679688411846430,-10.940718699931267,-2.548256656748322,1.6937514305333252
1679688411862408,-14.724956130311966,-3.9826047150377235,2.3651483939879654
1679688411878387,-17.95986877241171,-4.470893415732007,2.090485999847374
1679688411894348,-19.028000305180512,-3.768978408484031,0.8392462043183286
1679688411910326,-17.1663996337835,-2.731364919508678,-0.41199359121083035
1679688411926304,-14.602883955138395,-2.4567025253680868,-0.8697642481116645
1679688411942283,-12.893873502708402,-2.212558175020945,-0.6561379415579722
1679688411958261,-11.795223926146264,-1.2970168612191628,-0.3509575036240449
1679688411974239,-10.63553826199734,0.3509575036240449,-0.41199359121083035
1679688411990218,-8.62134737163342,2.059967956054038,-0.8087281605248791
1679688412006196,-6.118867780575215,3.006027313649156,-1.2054627298390415
1679688412022174,-3.585870145723675,3.006027313649156,-1.6937514305333252
1679688412038153,-1.6937514305333252,2.212558175020945,-2.0294499122605885
1679688412054131,-0.8392462043183286,1.6021972991530902,-2.0294499122605885
1679688412070109,-0.2899214160372594,1.846341649500232,-1.7547875181201107
1679688412086088,0.22888532845047393,2.548256656748322,-1.5411612115663047
1679688412102066,0.6561379415579722,3.2806897077897474,-1.3275349050126124
1679688412118044,1.1749446860455919,3.5248340581368893,-1.022354467078685
1679688412134023,1.4801251239795192,3.1586175326161765,-0.5951018539711868
1679688412150001,1.6327153429465397,2.4567025253680868,-0.3509575036240449
1679688412165979,1.5716792553597543,1.7242694743266611,-0.41199359121083035
1679688412181958,0.8697642481116645,1.2054627298390415,-0.7476920729380936
1679688412197936,-0.1373311970702389,0.9002822919051141,-1.266498817425827
1679688412213928,-0.7476920729380936,0.7476920729380936,-1.7547875181201107
1679688412229906,-0.5645838101777372,0.6561379415579722,-1.8158236057068962
1679688412245885,0.22888532845047393,0.5340657663844013,-1.5106431677729688
1679688412261863,0.9002822919051141,0.2899214160372594,-0.8697642481116645
1679688412277841,0.8392462043183286,-0.045777065690117524,-0.2594033722438098
1679688412293820,0.1373311970702389,-0.19836728465702436,-0.1373311970702389
1679688412309798,-0.7782101167315432,-0.015259021896667946,-0.2899214160372594
1679688412325776,-1.266498817425827,0.1373311970702389,-0.7782101167315432
1679688412341755,-1.022354467078685,0.4730296787976158,-1.266498817425827
1679688412357733,-0.6561379415579722,0.9002822919051141,-1.7242694743266611
1679688412373711,-0.5951018539711868,1.6021972991530902,-2.30411230640118
1679688412389690,-0.6561379415579722,2.4567025253680868,-2.97550926985582
1679688412405668,-0.22888532845047393,3.219653620202962,-3.463797970550104
1679688412421646,0.38147554741738077,3.463797970550104,-3.4332799267566543
1679688412437625,0.9918364232852355,3.219653620202962,-2.6703288319218927
1679688412453603,1.3885709925993979,2.639810788128443,-1.6632333867398756
1679688412469581,1.3275349050126124,2.5787747005416577,-1.0833905546654705
1679688412485560,1.1139085984588064,2.8229190508887996,-0.93080033569845
1679688412501538,0.8697642481116645,3.250171663996298,-1.2054627298390415
1679688412517516,0.44251163500416624,3.0670634012359415,-1.7853055619134466
1679688412533477,-1.0833905546654705,2.30411230640118,-2.548256656748322
1679688412549456,-4.013122758831173,1.1749446860455919,-3.6163881895170107
1679688412565434,-8.316166933699492,-1.0833905546654705,-5.264362554360218
1679688412581412,-19.638361181048367,-8.22461280231937,-9.99465934233615
1679688412597391,-42.710002288853275,-20.706492713817056,-17.746242465858018
1679688412613369,-73.0754558632791,-34.775310902571164,-26.016632333867392
1679688412629347,-96.6964217593652,-43.900205996795535,-28.91584649423976
1679688412645326,-104.78370336461433,-47.37926298924242,-25.711451895933465
1679688412661304,-104.38696879530016,-45.60921644922553,-20.248722056916222
1679688412677282,-96.02502479591055,-39.871824216067694,-16.311894407568502
1679688412693261,-74.84550240329588,-29.43465323872738,-14.511329823758274
1679688412709239,-46.00595101853969,-17.074845502403377,-12.64972915236126
1679688412725217,-18.966964217593727,-6.942854962996876,-9.140154116121153
1679688412741196,2.426184481574751,1.266498817425827,-3.128099488822727
1679688412757174,21.744106202792295,8.1025406271458,2.2430762188143945
1679688412773152,32.48645761806688,10.269321736476627,3.2806897077897474
1679688412789131,31.296253910124506,9.506370641641865,2.5177386129548722
1679688412805109,23.880369268329787,7.919432364385443,0.8087281605248791
1679688412821087,15.426871137560056,6.027313649195094,-0.7171740291447577
1679688412837066,10.360875867856862,5.416952773327239,-1.5106431677729688
1679688412853057,11.30693522545198,7.003891050583661,-1.2054627298390415
1679688412869036,15.640497444113748,8.865491721980561,-0.5340657663844013
1679688412885014,19.39421683070111,10.11673151750972,0.5340657663844013
1679688412900992,22.446021210040385,11.093308918898288,2.30411230640118
1679688412916971,25.98611429007383,12.588693064774475,4.592965590905578
1679688412932949,30.228122377355476,13.809414816510184,6.21042191195545
1679688412948928,30.106050202181905,11.42900740062555,5.142290379186647
1679688412964906,21.652552071412174,7.217517357137353,3.341725795376533
1679688412980884,8.010986495765565,3.0670634012359415,2.3956664377813013
1679688412996863,-3.1891355764095124,-0.5645838101777372,-0.16784924086368846
1679688413012841,-4.928664072632955,-0.8392462043183286,-2.548256656748322
1679688413028819,-1.052872510872021,0.5951018539711868,-2.182040131227609
1679688413044798,3.1891355764095124,1.5716792553597543,-0.6561379415579722
1679688413060776,5.081254291599862,1.846341649500232,0.4730296787976158
1679688413076754,4.989700160219741,2.059967956054038,0.7476920729380936
1679688413092733,4.348821240558436,2.5177386129548722,0.5340657663844013
1679688413108711,4.501411459525457,3.128099488822727,0.2594033722438098
1679688413124689,6.1493858243686645,4.1046768902112944,0.7476920729380936
1679688413140668,9.41481651026163,5.905241474021523,2.0294499122605885
1679688413156646,14.66392004272518,8.89600976577401,3.8605325398641526
1679688413172638,20.92011902037075,12.252994583047212,5.661097123674381
1679688413188616,25.375753414205974,14.602883955138395,6.668192568856284
1679688413204594,25.58937972075978,15.2437628747997,7.064927138170447
1679688413220573,22.26291294728003,13.87045090409697,6.332494087129021
1679688413236551,16.525520714122194,11.33745326924543,4.16571297779808
1679688413252529,10.66605630579079,8.865491721980561,1.968413824673803
1679688413268508,6.88181887541009,6.759746700236519,0.6866559853513081
1679688413284486,5.783169298847952,5.416952773327239,0.5645838101777372
1679688413300464,6.72922865644307,4.898146028839506,1.2359807736323773
1679688413316443,8.163576714732585,4.806591897459384,2.2430762188143945
1679688413332421,8.834973678187225,4.531929503318793,2.731364919508678
1679688413348399,7.827878233005208,3.677424277103796,2.334630350194516
1679688413364378,5.264362554360218,2.548256656748322,1.266498817425827
1679688413380356,2.6703288319218927,1.6632333867398756,0.3204394598305953
1679688413396334,1.6021972991530902,1.2359807736323773,-0.22888532845047393
1679688413412313,1.968413824673803,1.266498817425827,-0.2594033722438098
1679688413428291,2.9144731822690346,1.3275349050126124,0.015259021896667946
1679688413444269,3.128099488822727,0.93080033569845,-0.2899214160372594
1679688413460248,0.6256198977645226,-0.5645838101777372,-1.5106431677729688
1679688413476226,-5.264362554360218,-3.250171663996298,-3.799496452277367
1679688413492187,-13.87045090409697,-7.644769970244852,-7.888914320591994
1679688413508165,-23.91088731212335,-12.619211108567924,-11.703669794766142
1679688413524144,-32.39490348668653,-17.380025940337305,-14.511329823758274
1679688413540122,-38.52903028915841,-21.042191195544433,-16.49500267032886
1679688413556100,-41.67238879987792,-23.33104448004883,-16.464484626535523
1679688413572079,-41.79446097505149,-24.063477531090257,-14.175631342030897
1679688413588057,-38.132295719844365,-22.873273823147997,-11.276417181658644
1679688413604035,-30.838483253223444,-18.966964217593727,-9.56740672922865
1679688413620014,-21.713588158999073,-12.80231937132828,-8.07202258335235
1679688413635992,-13.046463721675423,-6.515602349889377,-5.661097123674381
1679688413651970,-3.463797970550104,-0.8392462043183286,-2.30411230640118
1679688413667949,8.987563897154132,4.440375371938671,0.8392462043183286
1679688413683927,20.126649881742537,8.041504539559014,2.853437094682249
1679688413699905,23.69726100556943,9.811551079575793,3.7079423208972457
1679688413715884,17.68520637827112,9.475852597848416,3.555352101930225
1679688413731862,8.62134737163342,7.278553444724139,1.937895780880467
1679688413747841,6.088349736781879,6.668192568856284,0.07629510948345342
1679688413763819,10.360875867856862,8.468757152666512,0.5340657663844013
1679688413779797,18.35660334172576,11.97833218890662,3.2806897077897474
1679688413795776,26.474402990768112,15.274280918593035,6.301976043335571
1679688413811767,30.25864042114881,16.403448538948624,8.377203021286277
1679688413827746,27.145799954222866,14.419775692378039,8.346684977492941
1679688413843724,18.844892042420042,10.482948043030433,5.813687342641288
1679688413859702,9.384298466468294,6.363012130922357,2.334630350194516
1679688413875681,2.3956664377813013,3.463797970550104,-0.4730296787976158
1679688413891659,-0.015259021896667946,1.937895780880467,-1.846341649500232
1679688413907637,0.6561379415579722,1.5411612115663047,-1.7242694743266611
1679688413923616,2.639810788128443,1.7242694743266611,-0.8087281605248791
1679688413939594,4.16571297779808,2.1515220874341594,-0.07629510948345342
1679688413955572,4.348821240558436,2.2735942626077303,0.1373311970702389
1679688413971551,3.4332799267566543,2.1210040436408235,-0.2594033722438098
1679688413987529,2.182040131227609,1.7853055619134466,-0.9002822919051141
1679688414003507,0.9918364232852355,1.0833905546654705,-1.4496070801861833
1679688414019486,0.38147554741738077,0.5340657663844013,-1.6021972991530902
1679688414035464,0.8087281605248791,0.3204394598305953,-1.3580529488059483
1679688414051442,1.7547875181201107,0.4730296787976158,-0.9918364232852355
1679688414067421,2.548256656748322,0.9613183794918996,-0.7171740291447577
1679688414083399,2.731364919508678,1.5106431677729688,-0.5340657663844013
1679688414099377,2.8229190508887996,2.1210040436408235,-0.5951018539711868
1679688414115356,3.2806897077897474,2.7008468757152286,-0.5340657663844013
1679688414131347,4.409857328145222,3.1586175326161765,-0.1373311970702389
1679688414147326,5.600061036087595,3.4027618829633184,0.2899214160372594
1679688414163304,5.752651255054502,3.250171663996298,0.4730296787976158
1679688414179282,4.959182116426291,2.9144731822690346,0.38147554741738077
1679688414195261,4.135194934004744,2.6092927443351073,0.015259021896667946
1679688414211239,3.921568627450938,2.4567025253680868,-0.3204394598305953
1679688414227217,4.013122758831173,2.4872205691615363,-0.2899214160372594
1679688414243196,3.9826047150377235,2.2430762188143945,-0.106813153276903
1679688414259174,3.799496452277367,1.846341649500232,0.07629510948345342
1679688414275152,3.372243839169869,1.5106431677729688,0.015259021896667946
1679688414291131,3.006027313649156,1.3580529488059483,-0.07629510948345342
1679688414307109,2.731364919508678,1.2970168612191628,-0.19836728465702436
1679688414323087,2.639810788128443,1.2359807736323773,-0.2899214160372594
1679688414339066,2.3956664377813013,1.052872510872021,-0.38147554741738077
1679688414355044,2.090485999847374,1.0833905546654705,-0.5645838101777372
1679688414371022,2.0294499122605885,1.2054627298390415,-0.7171740291447577
1679688414387001,2.1515220874341594,1.3580529488059483,-0.7476920729380936
1679688414402979,2.334630350194516,1.4801251239795192,-0.5035477225909517
1679688414418957,2.6092927443351073,1.4801251239795192,-0.22888532845047393
1679688414434936,3.0365453574426056,1.3885709925993979,0.015259021896667946
1679688414450897,3.3112077515830833,1.266498817425827,0.1373311970702389
1679688414466875,3.097581445029391,1.1139085984588064,0.106813153276903
1679688414482854,2.6092927443351073,1.052872510872021,-0.07629510948345342
1679688414498832,2.090485999847374,1.3885709925993979,-0.38147554741738077
1679688414514810,1.8158236057068962,1.6632333867398756,-0.7782101167315432
1679688414530789,1.4496070801861833,1.6937514305333252,-1.266498817425827
1679688414546767,1.022354467078685,1.5716792553597543,-1.6327153429465397
1679688414562745,0.5951018539711868,1.6327153429465397,-1.8158236057068962
1679688414578724,0.2899214160372594,1.5716792553597543,-1.9073777370870175
1679688414594702,0.3509575036240449,1.2054627298390415,-1.846341649500232
1679688414610680,0.38147554741738077,0.9002822919051141,-1.5716792553597543
1679688414626659,0.22888532845047393,0.8087281605248791,-1.1749446860455919
1679688414642637,-0.2594033722438098,0.6561379415579722,-1.0833905546654705
1679688414658615,-0.6866559853513081,0.6256198977645226,-1.1749446860455919
1679688414674594,-0.5645838101777372,0.5645838101777372,-1.266498817425827
1679688414690572,-0.3204394598305953,0.5951018539711868,-0.9613183794918996
1679688414706550,-0.16784924086368846,0.5645838101777372,-0.5951018539711868
1679688414722529,0.106813153276903,0.5035477225909517,-0.19836728465702436
1679688414738507,0.3509575036240449,0.19836728465702436,0.1373311970702389
1679688414754485,0.4730296787976158,-0.41199359121083035,0.16784924086368846
1679688414770477,0.19836728465702436,-0.9918364232852355,-0.106813153276903
1679688414786455,-0.22888532845047393,-1.4190890363927338,-0.5035477225909517
1679688414802434,-0.44251163500416624,-1.4190890363927338,-0.9002822919051141
1679688414818412,-0.38147554741738077,-1.052872510872021,-1.2359807736323773
1679688414834390,-0.2594033722438098,-0.5645838101777372,-1.5106431677729688
1679688414850369,-0.41199359121083035,-0.2899214160372594,-1.7547875181201107
1679688414866347,-0.5645838101777372,-0.3204394598305953,-1.9989318684672526
1679688414882325,-0.22888532845047393,-0.2899214160372594,-1.9989318684672526
1679688414898304,0.44251163500416624,0.106813153276903,-1.8158236057068962
1679688414914282,1.1749446860455919,0.8392462043183286,-1.4801251239795192
1679688414930260,1.6937514305333252,1.6937514305333252,-1.1139085984588064
1679688414946239,1.5411612115663047,2.3956664377813013,-1.022354467078685
1679688414962217,0.9002822919051141,2.853437094682249,-0.9918364232852355
1679688414978195,0.5951018539711868,2.5787747005416577,-0.8697642481116645
1679688414994174,0.7782101167315432,2.2735942626077303,-0.6866559853513081
1679688415010152,1.2054627298390415,1.8158236057068962,-0.3509575036240449
1679688415026130,1.5716792553597543,1.6021972991530902,0.19836728465702436
1679688415042109,2.7008468757152286,1.4496070801861833,0.8087281605248791
1679688415058087,5.1117723353933116,1.1139085984588064,1.9073777370870175
1679688415074065,8.682383459220205,1.4190890363927338,3.6469062333104603
1679688415090057,14.389257648584703,2.548256656748322,5.966277561608308
1679688415106035,22.35446707866015,5.905241474021523,8.865491721980561
1679688415122014,31.692988479438554,12.314030670633997,12.80231937132828
1679688415137992,39.04783703364615,19.363698786907662,16.647592889295765
1679688415153970,42.03860532539875,24.216067750057164,17.318989852750406
1679688415169949,38.74265659571233,24.582284275577877,14.450293736171488
1679688415185927,30.44174868390928,20.92011902037075,9.903105210955914
1679688415201905,20.126649881742537,14.297703517204468,5.1117723353933116
1679688415217884,12.588693064774475,7.766842145418423,1.6632333867398756
1679688415233862,8.926527809567347,2.30411230640118,0.16784924086368846
1679688415249840,7.40062561989771,-0.7476920729380936,0.6256198977645226
1679688415265819,5.813687342641288,-1.7547875181201107,1.2359807736323773
1679688415281797,3.219653620202962,-1.8768596932936816,0.6561379415579722
1679688415297775,0.41199359121083035,-2.2430762188143945,-0.106813153276903
1679688415313754,-1.6021972991530902,-3.0365453574426056,-0.44251163500416624
1679688415329732,-2.426184481574751,-3.9520866712443876,-0.41199359121083035
1679688415345710,-2.4567025253680868,-4.623483634699028,-0.2594033722438098
1679688415361689,-2.3651483939879654,-4.776073853665935,-0.16784924086368846
1679688415377667,-1.968413824673803,-4.684519722285813,-0.8087281605248791
1679688415393645,-1.052872510872021,-4.287785152971651,-2.1210040436408235
1679688415409607,-0.44251163500416624,-3.585870145723675,-3.891050583657602
1679688415425585,-0.38147554741738077,-3.0670634012359415,-5.966277561608308
1679688415441563,-0.7782101167315432,-2.761882963302014,-7.888914320591994
1679688415457542,-2.548256656748322,-2.9449912260623705,-9.353780422674845
1679688415473520,-6.118867780575215,-3.219653620202962,-10.482948043030433
1679688415489498,-11.33745326924543,-3.0365453574426056,-10.269321736476627
1679688415505477,-13.809414816510184,-2.0294499122605885,-8.62134737163342
1679688415521455,-12.069886320286855,-1.3580529488059483,-6.301976043335571
1679688415537433,-9.44533455405508,-1.7242694743266611,-3.219653620202962
1679688415553412,-6.698710612649734,-2.090485999847374,-0.2899214160372594
1679688415569390,-4.409857328145222,-2.0294499122605885,1.7853055619134466
1679688415585368,-2.5787747005416577,-1.6937514305333252,2.334630350194516
1679688415601347,-1.7242694743266611,-1.6937514305333252,2.30411230640118
1679688415617325,-1.9989318684672526,-2.212558175020945,1.7242694743266611
1679688415633303,-2.5177386129548722,-2.4567025253680868,0.4730296787976158
1679688415649282,-2.639810788128443,-1.6632333867398756,-0.9918364232852355
1679688415665260,-1.846341649500232,0.106813153276903,-1.846341649500232
1679688415681238,-0.7171740291447577,1.968413824673803,-2.3651483939879654
1679688415697217,-0.3509575036240449,3.4332799267566543,-2.5787747005416577
1679688415713195,-0.5645838101777372,4.287785152971651,-2.548256656748322
1679688415729187,-0.19836728465702436,4.074158846417959,-2.334630350194516
1679688415745165,0.4730296787976158,2.8229190508887996,-2.2735942626077303
1679688415761143,0.5340657663844013,1.3275349050126124,-2.5177386129548722
1679688415777122,-0.015259021896667946,0.4730296787976158,-3.128099488822727
1679688415793100,-0.41199359121083035,0.16784924086368846,-3.5248340581368893
1679688415809078,0.1373311970702389,0.3204394598305953,-3.6163881895170107
1679688415825057,0.93080033569845,0.3509575036240449,-3.8300144960708167
1679688415841035,0.9002822919051141,0.7171740291447577,-4.043640802624509
1679688415857013,0.2899214160372594,1.5716792553597543,-3.7079423208972457
1679688415872992,0.1373311970702389,3.0365453574426056,-2.8229190508887996
1679688415888970,0.7782101167315432,4.745555809872599,-1.4496070801861833
1679688415904948,2.6703288319218927,6.820782787823305,-0.7782101167315432
1679688415920927,5.2338445105668825,9.475852597848416,-0.9002822919051141
1679688415936905,7.370107576104374,13.260090028229115,-1.2359807736323773
1679688415952883,11.490043488212336,19.577325093461468,-2.7008468757152286
1679688415968862,20.37079423208968,28.519111924925483,-6.485084306095928
1679688415984840,29.190508888380236,34.19546807049687,-10.11673151750972
1679688416000818,28.91584649423953,31.113145647363808,-9.99465934233615
1679688416016797,22.598611429007292,21.316853589684797,-6.759746700236519
1679688416032775,14.236667429617683,9.781033035782343,-2.853437094682249
1679688416048736,6.485084306095928,0.6866559853513081,-0.6866559853513081
1679688416064715,1.9989318684672526,-5.722133211261166,-0.5340657663844013
1679688416080693,0.4730296787976158,-12.80231937132828,-1.0833905546654705
1679688416096671,-0.22888532845047393,-24.826428625925132,-0.38147554741738077
1679688416112650,-1.4190890363927338,-44.81574731059732,0.7782101167315432
1679688416128628,-4.745555809872599,-63.88952468146795,-3.9826047150377235
1679688416144606,-12.436102845807568,-83.17692835889227,-4.226749065384865
1679688416160585,-32.333867399099745,-98.58854047455554,6.21042191195545
1679688416176563,-53.147173266193704,-100.63324940871291,19.94354161898218
1679688416192541,-73.04493781948577,-90.10452429999236,23.45311665522229
1679688416208520,-83.54314488441298,-85.22163729304953,22.323949034866814
1679688416224498,-80.43030441748692,-79.81994354161907,17.532616159304098
1679688416240476,-67.03288319218734,-68.37567711909662,12.13092240787364
1679688416256455,-47.50133516441599,-54.24582284275584,7.644769970244852
1679688416272433,-27.93926909285119,-37.27779049362937,3.341725795376533
1679688416288411,-10.299839780270077,-18.78385595483337,-0.9613183794918996
1679688416304390,2.1210040436408235,-2.1515220874341594,-4.013122758831173
1679688416320368,9.323262378881509,7.064927138170447,-4.592965590905578
1679688416336346,10.543984130617218,9.018081940947582,-3.9826047150377235
1679688416352325,9.323262378881509,10.025177386129485,-3.585870145723675
1679688416368316,9.44533455405508,12.52765697718769,-4.379339284351886
1679688416384295,12.80231937132828,18.661783779659686,-5.783169298847952
1679688416400273,20.06561379415575,29.129472800793337,-7.0954451819637825
1679688416416251,27.725642786297385,37.67452506294353,-7.583733882658066
1679688416432230,30.44174868390928,37.03364614328234,-7.003891050583661
1679688416448208,24.216067750057164,30.624856946669524,-6.332494087129021
1679688416464186,13.412680247196135,24.49073014419764,-7.034409094376997
1679688416480165,3.4332799267566543,18.05142290379183,-8.133058670939135
1679688416496143,-2.5177386129548722,11.33745326924543,-8.285648889906156
