Timestamp (microseconds),Accel X (g),Accel Y (g),Accel Z (g)
1677618674797577,0.12689402609292788,0.006897077897306758,0.9990997177080949
1677618674813574,0.12664988174258074,0.006775005722133187,0.9981231403067063
1677618674829571,0.12506294346532432,0.007019150072480329,1.0006866559853513
1677618674845569,0.12445258258945557,0.007019150072480329,1.0012970168612192
1677618674861566,0.1255512321660186,0.005920500495918191,0.9967803463797971
1677618674877564,0.12469672693980272,0.005676356145571049,0.9972686350804914
1677618674893561,0.12359807736324058,0.0061646448462653325,0.9986114290074006
1677618674909558,0.12506294346532432,0.006897077897306758,1.0006866559853513
1677618674925556,0.12542915999084503,0.006286717021438903,1.0009308003356985
1677618674941553,0.12567330434119217,0.005188067444876765,0.9986114290074006
1677618674957551,0.12506294346532432,0.0060425726710917615,0.9999542229343099
1677618674973548,0.1255512321660186,0.00579842832074462,1.0011749446860456
1677618674989545,0.12445258258945557,0.005920500495918191,0.9999542229343099
1677618675005543,0.124330510414282,0.0060425726710917615,1.001052872510872
1677618675021540,0.1255512321660186,0.00579842832074462,1.00166323338674
1677618675037538,0.12408636606393486,0.006897077897306758,1.0006866559853513
1677618675053535,0.12628366521706003,0.006530861371786045,1.0014190890363928
1677618675069532,0.12420843823910843,0.0060425726710917615,1.0011749446860456
1677618675085530,0.12506294346532432,0.005432211795223907,0.9984893568322271
1677618675101527,0.12506294346532432,0.005676356145571049,1.0012970168612192
1677618675117523,0.1259174486915393,0.006530861371786045,1.0003204394598306
1677618675133520,0.12408636606393486,0.005065995269703194,1.000808728160525
1677618675149518,0.12359807736324058,0.005920500495918191,0.9990997177080949
1677618675165515,0.12469672693980272,0.0061646448462653325,1.0009308003356985
1677618675181512,0.124330510414282,0.005554283970397478,1.0015411612115663
1677618675197510,0.12469672693980272,0.00579842832074462,1.00166323338674
1677618675213507,0.12457465476462914,0.006897077897306758,1.0011749446860456
1677618675229505,0.12372014953841415,0.004699778744182481,1.0012970168612192
1677618675245502,0.124330510414282,0.004821850919356052,1.0017853055619135
1677618675261500,0.12469672693980272,0.0060425726710917615,0.9994659342336156
1677618675277497,0.12542915999084503,0.006286717021438903,1.0004425116350042
1677618675293494,0.12494087129014986,0.007263294422827471,1.0009308003356985
1677618675309492,0.12469672693980272,0.008117799649042468,1.0000762951094835
1677618675325489,0.12664988174258074,0.006286717021438903,1.0023956664377813
1677618675341487,0.12530708781567146,0.005310139620050336,1.0015411612115663
1677618675357484,0.12530708781567146,0.005065995269703194,1.000808728160525
1677618675373481,0.12384222171358772,0.00579842832074462,1.001907377737087
1677618675389479,0.12384222171358772,0.005065995269703194,0.9992217898832685
1677618675405476,0.1259174486915393,0.0061646448462653325,0.9980010681315328
1677618675421474,0.12542915999084503,0.006286717021438903,0.9994659342336156
1677618675437469,0.12445258258945557,0.005188067444876765,1.0020294499122606
1677618675453467,0.124330510414282,0.006897077897306758,1.0011749446860456
1677618675469464,0.12494087129014986,0.006408789196612474,0.9999542229343099
1677618675485461,0.12494087129014986,0.005676356145571049,1.0009308003356985
1677618675501459,0.12384222171358772,0.005676356145571049,1.0003204394598306
1677618675517456,0.12323186083771986,0.005676356145571049,1.000808728160525
1677618675533454,0.12469672693980272,0.006408789196612474,0.9978789959563592
1677618675549451,0.12542915999084503,0.00579842832074462,1.00166323338674
1677618675565448,0.12530708781567146,0.004699778744182481,1.001907377737087
1677618675581446,0.12457465476462914,0.005065995269703194,1.001907377737087
1677618675597443,0.12384222171358772,0.006530861371786045,0.9992217898832685
1677618675613441,0.12567330434119217,0.0040894178683146265,1.00166323338674
1677618675629438,0.12530708781567146,0.0060425726710917615,1.001907377737087
1677618675645435,0.12457465476462914,0.00579842832074462,1.0012970168612192
1677618675661433,0.1251850156404979,0.005188067444876765,1.0003204394598306
1677618675677430,0.12408636606393486,0.006286717021438903,1.0020294499122606
1677618675693428,0.12396429388876129,0.005554283970397478,1.0031280994888228
1677618675709425,0.12567330434119217,0.004699778744182481,1.0015411612115663
1677618675725422,0.12457465476462914,0.007263294422827471,1.0017853055619135
1677618675741420,0.12494087129014986,0.00579842832074462,0.9999542229343099
1677618675757232,0.12616159304188646,0.006408789196612474,1.002761882963302
1677618675773229,0.12506294346532432,0.0071412222476539,1.0000762951094835
1677618675789225,0.12494087129014986,0.005065995269703194,1.001907377737087
1677618675805222,0.12530708781567146,0.005676356145571049,1.0020294499122606
1677618675821218,0.12530708781567146,0.006408789196612474,1.0011749446860456
1677618675837215,0.123476005188067,0.005676356145571049,1.0022735942626078
1677618675853211,0.12457465476462914,0.006286717021438903,1.0003204394598306
1677618675869207,0.12396429388876129,0.004821850919356052,1.0003204394598306
1677618675885204,0.12542915999084503,0.005432211795223907,1.0005645838101778
1677618675901200,0.124330510414282,0.0061646448462653325,1.000198367284657
1677618675917197,0.12530708781567146,0.005554283970397478,1.0012970168612192
1677618675933193,0.12384222171358772,0.00579842832074462,0.9972686350804914
1677618675949190,0.12506294346532432,0.006652933546959616,1.0009308003356985
1677618675965186,0.12384222171358772,0.005920500495918191,0.9995880064087892
1677618675981183,0.12396429388876129,0.005432211795223907,0.9988555733577478
1677618675997179,0.12542915999084503,0.0061646448462653325,1.000198367284657
1677618676013176,0.12506294346532432,0.004821850919356052,1.0023956664377813
1677618676029172,0.12494087129014986,0.005676356145571049,1.0014190890363928
1677618676045169,0.12457465476462914,0.006530861371786045,1.0004425116350042
1677618676061165,0.12457465476462914,0.006652933546959616,1.0012970168612192
1677618676077026,0.12494087129014986,0.006408789196612474,1.000808728160525
1677618676093022,0.12445258258945557,0.005554283970397478,1.0017853055619135
1677618676109018,0.124330510414282,0.005676356145571049,0.9997100785839628
1677618676125014,0.1255512321660186,0.0042114900434881974,0.9977569237811856
1677618676141010,0.12396429388876129,0.004943923094529623,0.9999542229343099
1677618676157006,0.1255512321660186,0.005310139620050336,1.0004425116350042
1677618676173002,0.1255512321660186,0.0060425726710917615,0.9997100785839628
1677618676188998,0.123476005188067,0.005554283970397478,1.0022735942626078
1677618676204994,0.12567330434119217,0.006897077897306758,0.9988555733577478
1677618676220990,0.12542915999084503,0.005310139620050336,0.9993438620584421
1677618676236986,0.12408636606393486,0.005554283970397478,0.9994659342336156
1677618676252982,0.12384222171358772,0.006530861371786045,0.9995880064087892
1677618676268978,0.12603952086671288,0.00579842832074462,1.00166323338674
1677618676284974,0.12542915999084503,0.005432211795223907,1.0014190890363928
1677618676300970,0.12335393301289344,0.006286717021438903,0.9977569237811856
1677618676316966,0.12457465476462914,0.006530861371786045,1.0017853055619135
1677618676332962,0.12445258258945557,0.006897077897306758,1.001907377737087
1677618676348958,0.12420843823910843,0.0061646448462653325,1.0021515220874342
1677618676364954,0.12506294346532432,0.005310139620050336,1.0020294499122606
1677618676380950,0.12628366521706003,0.0061646448462653325,1.000198367284657
1677618676396789,0.12323186083771986,0.0071412222476539,1.0004425116350042
1677618676412785,0.12469672693980272,0.006897077897306758,1.0011749446860456
1677618676428780,0.12469672693980272,0.006775005722133187,1.0003204394598306
1677618676444776,0.12372014953841415,0.007751583123521755,1.000808728160525
1677618676460771,0.12530708781567146,0.005920500495918191,1.002761882963302
1677618676476767,0.12469672693980272,0.005065995269703194,1.000808728160525
1677618676492762,0.12286564431219915,0.005676356145571049,1.001907377737087
1677618676508758,0.12567330434119217,0.006652933546959616,1.00166323338674
1677618676524753,0.12628366521706003,0.007019150072480329,1.0032501716639963
1677618676540749,0.12738231479362216,0.004821850919356052,1.0011749446860456
1677618676556744,0.12481879911497629,0.005676356145571049,1.0020294499122606
1677618676572740,0.12494087129014986,0.005676356145571049,0.9998321507591363
1677618676588735,0.12445258258945557,0.0061646448462653325,1.0005645838101778
1677618676604731,0.12530708781567146,0.008239871824216038,1.0009308003356985
1677618676620726,0.12335393301289344,0.007019150072480329,1.0005645838101778
1677618676636722,0.12506294346532432,0.007019150072480329,1.0026398107881285
1677618676652717,0.12408636606393486,0.006408789196612474,0.9997100785839628
1677618676668713,0.12469672693980272,0.006775005722133187,0.9999542229343099
1677618676684708,0.12530708781567146,0.005554283970397478,0.9990997177080949
1677618676700704,0.12506294346532432,0.004943923094529623,0.9980010681315328
1677618676716522,0.12274357213702558,0.005188067444876765,1.0005645838101778
1677618676732516,0.12457465476462914,0.0040894178683146265,1.001052872510872
1677618676748511,0.12396429388876129,0.005432211795223907,0.9990997177080949
1677618676764505,0.12396429388876129,0.004333562218661768,0.9965362020294499
1677618676780500,0.124330510414282,0.005432211795223907,1.0003204394598306
1677618676796495,0.12579537651636574,0.006286717021438903,1.000198367284657
1677618676812489,0.12579537651636574,0.00579842832074462,0.9998321507591363
1677618676828484,0.1259174486915393,0.005065995269703194,1.0009308003356985
1677618676844478,0.12506294346532432,0.005920500495918191,1.0006866559853513
1677618676860473,0.12408636606393486,0.005188067444876765,1.002761882963302
1677618676876467,0.124330510414282,0.0061646448462653325,1.0017853055619135
1677618676892462,0.12408636606393486,0.00457770656900891,0.9998321507591363
1677618676908456,0.12469672693980272,0.005676356145571049,0.9990997177080949
1677618676924451,0.12506294346532432,0.0060425726710917615,0.9994659342336156
1677618676940446,0.12628366521706003,0.004943923094529623,1.00166323338674
1677618676956440,0.12616159304188646,0.005676356145571049,0.9995880064087892
1677618676972435,0.1251850156404979,0.005188067444876765,0.9999542229343099
1677618676988429,0.12506294346532432,0.005065995269703194,1.0021515220874342
1677618677004424,0.12567330434119217,0.00579842832074462,0.9993438620584421
1677618677020418,0.1255512321660186,0.004943923094529623,1.0012970168612192
1677618677036285,0.12408636606393486,0.005554283970397478,1.000808728160525
1677618677052279,0.12506294346532432,0.005432211795223907,0.9994659342336156
1677618677068273,0.124330510414282,0.0061646448462653325,1.0003204394598306
1677618677084267,0.12469672693980272,0.005310139620050336,0.9993438620584421
1677618677100261,0.12494087129014986,0.00457770656900891,0.9988555733577478
1677618677116255,0.12506294346532432,0.006408789196612474,1.000808728160525
1677618677132249,0.12530708781567146,0.004943923094529623,1.0012970168612192
1677618677148244,0.12567330434119217,0.006530861371786045,1.0004425116350042
1677618677164238,0.12530708781567146,0.0071412222476539,1.00166323338674
1677618677180232,0.1259174486915393,0.005432211795223907,1.000198367284657
1677618677196226,0.12652780956740717,0.004699778744182481,0.9998321507591363
1677618677212220,0.1264057373922336,0.005432211795223907,0.9989776455329213
1677618677228214,0.12567330434119217,0.0061646448462653325,0.9999542229343099
1677618677244208,0.12396429388876129,0.006652933546959616,1.000198367284657
1677618677260202,0.12457465476462914,0.006652933546959616,1.0004425116350042
1677618677276196,0.12457465476462914,0.005554283970397478,1.0004425116350042
1677618677292190,0.12396429388876129,0.005065995269703194,0.9994659342336156
1677618677308184,0.12494087129014986,0.0061646448462653325,1.0022735942626078
1677618677324178,0.12616159304188646,0.0060425726710917615,1.0004425116350042
1677618677340172,0.12469672693980272,0.006775005722133187,0.9999542229343099
1677618677356048,0.12494087129014986,0.005554283970397478,0.9999542229343099
1677618677372042,0.12530708781567146,0.005432211795223907,1.0037384603646906
1677618677388035,0.12481879911497629,0.0060425726710917615,0.9995880064087892
1677618677404029,0.12445258258945557,0.005188067444876765,0.9982452124818799
1677618677420023,0.12469672693980272,0.004455634393835339,0.9990997177080949
1677618677436016,0.12579537651636574,0.006897077897306758,0.9982452124818799
1677618677452010,0.12396429388876129,0.006652933546959616,0.9999542229343099
1677618677468003,0.12469672693980272,0.005676356145571049,0.9995880064087892
1677618677483997,0.12372014953841415,0.00579842832074462,1.0004425116350042
1677618677499991,0.1251850156404979,0.005188067444876765,1.0005645838101778
1677618677515984,0.12481879911497629,0.006286717021438903,1.0022735942626078
1677618677531978,0.12530708781567146,0.0060425726710917615,1.0005645838101778
1677618677547971,0.12481879911497629,0.0061646448462653325,1.0032501716639963
1677618677563965,0.12384222171358772,0.006652933546959616,1.0012970168612192
1677618677579959,0.12408636606393486,0.0060425726710917615,1.0011749446860456
1677618677595952,0.12506294346532432,0.005432211795223907,0.9999542229343099
1677618677611946,0.12494087129014986,0.005920500495918191,0.9999542229343099
1677618677627939,0.12372014953841415,0.006652933546959616,1.0003204394598306
1677618677643933,0.12469672693980272,0.005676356145571049,1.0030060273136492
1677618677659927,0.12457465476462914,0.0060425726710917615,1.000808728160525
1677618677675842,0.12396429388876129,0.006408789196612474,0.9986114290074006
1677618677691836,0.12457465476462914,0.0060425726710917615,0.9989776455329213
1677618677707829,0.1255512321660186,0.0060425726710917615,1.0032501716639963
1677618677723823,0.12603952086671288,0.005065995269703194,0.9999542229343099
1677618677739816,0.1251850156404979,0.005554283970397478,0.9992217898832685
1677618677755810,0.12457465476462914,0.006408789196612474,1.0017853055619135
1677618677771803,0.12494087129014986,0.00579842832074462,1.00166323338674
1677618677787797,0.12506294346532432,0.006408789196612474,0.9976348516060121
1677618677803791,0.124330510414282,0.007507438773174613,1.0015411612115663
1677618677819784,0.124330510414282,0.005310139620050336,1.0021515220874342
1677618677835778,0.12335393301289344,0.006286717021438903,1.0037384603646906
1677618677851771,0.12457465476462914,0.006652933546959616,0.9983672846570535
1677618677867765,0.12445258258945557,0.006775005722133187,1.0006866559853513
1677618677883759,0.12469672693980272,0.007995727473868897,1.000808728160525
1677618677899752,0.1251850156404979,0.0060425726710917615,1.0009308003356985
1677618677915746,0.12457465476462914,0.005310139620050336,1.0000762951094835
1677618677931739,0.12506294346532432,0.00457770656900891,1.0011749446860456
1677618677947733,0.12384222171358772,0.005676356145571049,1.0034943160143435
1677618677963727,0.12420843823910843,0.005065995269703194,1.0006866559853513
1677618677979720,0.12457465476462914,0.005188067444876765,0.9998321507591363
1677618677995575,0.12408636606393486,0.004821850919356052,1.0000762951094835
1677618678011567,0.12457465476462914,0.005432211795223907,1.0000762951094835
1677618678027560,0.12542915999084503,0.0061646448462653325,1.00166323338674
1677618678043553,0.12567330434119217,0.005554283970397478,0.9998321507591363
1677618678059545,0.124330510414282,0.005310139620050336,1.0006866559853513
1677618678075538,0.12445258258945557,0.00579842832074462,1.0015411612115663
1677618678091530,0.12567330434119217,0.005920500495918191,1.0006866559853513
1677618678107523,0.12506294346532432,0.004943923094529623,0.9978789959563592
1677618678123516,0.12372014953841415,0.005676356145571049,1.0021515220874342
1677618678139508,0.12481879911497629,0.005065995269703194,1.0003204394598306
1677618678155501,0.12396429388876129,0.005554283970397478,0.9988555733577478
1677618678171494,0.12481879911497629,0.005065995269703194,0.9998321507591363
1677618678187486,0.12420843823910843,0.005554283970397478,0.9990997177080949
1677618678203479,0.12384222171358772,0.005432211795223907,1.0005645838101778
1677618678219472,0.12408636606393486,0.006775005722133187,1.0023956664377813
1677618678235464,0.12457465476462914,0.004333562218661768,0.9981231403067063
1677618678251457,0.12420843823910843,0.005920500495918191,0.9999542229343099
1677618678267449,0.12457465476462914,0.005065995269703194,1.0022735942626078
1677618678283442,0.12445258258945557,0.005920500495918191,1.0037384603646906
1677618678299435,0.12408636606393486,0.007263294422827471,0.9998321507591363
1677618678315338,0.12481879911497629,0.006897077897306758,0.9981231403067063
1677618678331330,0.12396429388876129,0.005432211795223907,0.9998321507591363
1677618678347323,0.12628366521706003,0.006286717021438903,0.9994659342336156
1677618678363316,0.1259174486915393,0.00579842832074462,0.9987335011825742
1677618678379308,0.12506294346532432,0.006652933546959616,0.9993438620584421
1677618678395301,0.12335393301289344,0.00579842832074462,0.9998321507591363
1677618678411294,0.1255512321660186,0.0060425726710917615,1.000198367284657
1677618678427286,0.12506294346532432,0.005310139620050336,1.002517738612955
1677618678443279,0.12396429388876129,0.006286717021438903,1.0003204394598306
1677618678459272,0.12457465476462914,0.005065995269703194,1.0017853055619135
1677618678475264,0.12323186083771986,0.0060425726710917615,0.9998321507591363
1677618678491257,0.12469672693980272,0.005432211795223907,1.000198367284657
1677618678507249,0.12408636606393486,0.005432211795223907,0.9990997177080949
1677618678523242,0.12506294346532432,0.006652933546959616,1.002517738612955
1677618678539235,0.12542915999084503,0.004699778744182481,1.0012970168612192
1677618678555227,0.12372014953841415,0.0060425726710917615,0.9995880064087892
1677618678571220,0.124330510414282,0.004943923094529623,1.0003204394598306
1677618678587213,0.12481879911497629,0.0071412222476539,1.0021515220874342
1677618678603205,0.12372014953841415,0.005676356145571049,1.0011749446860456
1677618678619198,0.12567330434119217,0.006286717021438903,1.0015411612115663
1677618678635101,0.12579537651636574,0.005920500495918191,1.0009308003356985
1677618678651093,0.12359807736324058,0.0071412222476539,1.002517738612955
1677618678667085,0.12445258258945557,0.007263294422827471,0.9995880064087892
1677618678683077,0.12494087129014986,0.005554283970397478,0.9989776455329213
1677618678699070,0.12457465476462914,0.006530861371786045,0.9986114290074006
1677618678715062,0.124330510414282,0.005310139620050336,0.9999542229343099
1677618678731054,0.12408636606393486,0.005310139620050336,1.0015411612115663
1677618678747046,0.124330510414282,0.005676356145571049,1.0032501716639963
1677618678763038,0.12494087129014986,0.004943923094529623,0.9993438620584421
1677618678779030,0.12542915999084503,0.004455634393835339,1.002517738612955
1677618678795023,0.1259174486915393,0.00579842832074462,1.000808728160525
1677618678811015,0.12469672693980272,0.006286717021438903,1.004226749065385
1677618678827007,0.12542915999084503,0.0071412222476539,0.9989776455329213
1677618678842999,0.12506294346532432,0.005432211795223907,1.0005645838101778
1677618678858991,0.12457465476462914,0.005310139620050336,1.0022735942626078
1677618678874983,0.12445258258945557,0.005554283970397478,1.000808728160525
1677618678890976,0.12481879911497629,0.0061646448462653325,0.9980010681315328
1677618678906968,0.12457465476462914,0.0060425726710917615,1.0011749446860456
1677618678922960,0.12494087129014986,0.005065995269703194,1.0005645838101778
1677618678938952,0.1251850156404979,0.005554283970397478,1.000198367284657
1677618678954895,0.12481879911497629,0.006530861371786045,1.00166323338674
1677618678970887,0.12652780956740717,0.006408789196612474,0.9992217898832685
1677618678986879,0.12506294346532432,0.005188067444876765,1.0017853055619135
1677618679002871,0.12506294346532432,0.005554283970397478,1.0012970168612192
1677618679018863,0.1255512321660186,0.005065995269703194,0.9987335011825742
1677618679034855,0.12530708781567146,0.007019150072480329,1.0006866559853513
1677618679050848,0.1259174486915393,0.0061646448462653325,1.0011749446860456
1677618679066840,0.12506294346532432,0.006652933546959616,1.0003204394598306
1677618679082832,0.123476005188067,0.005065995269703194,0.9989776455329213
1677618679098824,0.12384222171358772,0.006652933546959616,1.0012970168612192
1677618679114816,0.12579537651636574,0.004943923094529623,1.000808728160525
1677618679130808,0.12445258258945557,0.005554283970397478,0.9998321507591363
1677618679146801,0.1255512321660186,0.005188067444876765,0.9994659342336156
1677618679162793,0.12408636606393486,0.004699778744182481,0.9992217898832685
1677618679178785,0.12506294346532432,0.00457770656900891,1.00166323338674
1677618679194777,0.12457465476462914,0.005676356145571049,1.0011749446860456
1677618679210769,0.12457465476462914,0.0060425726710917615,0.9988555733577478
1677618679226761,0.1251850156404979,0.005676356145571049,1.0014190890363928
1677618679242754,0.12506294346532432,0.005188067444876765,0.9993438620584421
1677618679258746,0.12579537651636574,0.006408789196612474,1.0017853055619135
1677618679274627,0.1255512321660186,0.005920500495918191,0.9990997177080949
1677618679290619,0.12481879911497629,0.00457770656900891,1.0020294499122606
1677618679306611,0.12530708781567146,0.005554283970397478,1.0003204394598306
1677618679322602,0.12481879911497629,0.00457770656900891,0.9982452124818799
1677618679338594,0.1251850156404979,0.007263294422827471,0.9987335011825742
1677618679354586,0.1251850156404979,0.006286717021438903,1.0006866559853513
1677618679370577,0.12384222171358772,0.005432211795223907,0.9999542229343099
1677618679386569,0.123476005188067,0.00579842832074462,1.0011749446860456
1677618679402561,0.12530708781567146,0.005432211795223907,1.002761882963302
1677618679418553,0.1259174486915393,0.004333562218661768,1.0012970168612192
1677618679434544,0.12457465476462914,0.006286717021438903,1.0015411612115663
1677618679450536,0.12506294346532432,0.005432211795223907,1.0012970168612192
1677618679466528,0.12445258258945557,0.0061646448462653325,1.0017853055619135
1677618679482519,0.12506294346532432,0.005554283970397478,1.0000762951094835
1677618679498511,0.12567330434119217,0.0061646448462653325,1.0006866559853513
1677618679514503,0.12530708781567146,0.005310139620050336,1.0000762951094835
1677618679530494,0.123476005188067,0.006286717021438903,1.0003204394598306
1677618679546486,0.1251850156404979,0.006408789196612474,0.9999542229343099
1677618679562478,0.12616159304188646,0.005188067444876765,0.9999542229343099
1677618679578469,0.1259174486915393,0.0060425726710917615,1.00166323338674
1677618679594390,0.12530708781567146,0.007263294422827471,0.9988555733577478
1677618679610382,0.12579537651636574,0.007751583123521755,0.9972686350804914
1677618679626373,0.12603952086671288,0.007385366598001042,1.0006866559853513
1677618679642364,0.12494087129014986,0.006530861371786045,1.0011749446860456
1677618679658355,0.12530708781567146,0.005554283970397478,1.0009308003356985
1677618679674347,0.12396429388876129,0.005676356145571049,0.9981231403067063
1677618679690338,0.12494087129014986,0.007263294422827471,1.0003204394598306
1677618679706329,0.12530708781567146,0.006408789196612474,1.0026398107881285
1677618679722320,0.12494087129014986,0.006652933546959616,0.9999542229343099
1677618679738311,0.12579537651636574,0.0060425726710917615,0.9997100785839628
1677618679754303,0.124330510414282,0.0060425726710917615,1.0030060273136492
1677618679770294,0.12506294346532432,0.0060425726710917615,1.0030060273136492
1677618679786285,0.12469672693980272,0.005920500495918191,1.0012970168612192
1677618679802276,0.12542915999084503,0.006775005722133187,1.0014190890363928
1677618679818267,0.12530708781567146,0.006775005722133187,1.0032501716639963
1677618679834259,0.12542915999084503,0.007629510948348184,1.001907377737087
1677618679850250,0.12506294346532432,0.006897077897306758,1.0014190890363928
1677618679866241,0.12481879911497629,0.005432211795223907,0.9983672846570535
1677618679882232,0.12579537651636574,0.005188067444876765,1.0020294499122606
1677618679898224,0.1259174486915393,0.005188067444876765,0.9978789959563592
1677618679914123,0.12603952086671288,0.006652933546959616,0.9989776455329213
1677618679930114,0.1255512321660186,0.0060425726710917615,0.9978789959563592
1677618679946106,0.1259174486915393,0.004699778744182481,1.001052872510872
1677618679962097,0.12542915999084503,0.006408789196612474,0.9989776455329213
1677618679978088,0.12420843823910843,0.006408789196612474,0.9973907072556649
1677618679994079,0.12420843823910843,0.006408789196612474,1.001052872510872
1677618680010070,0.12616159304188646,0.007019150072480329,1.001907377737087
1677618680026062,0.12567330434119217,0.005432211795223907,1.004226749065385
1677618680042053,0.1255512321660186,0.005065995269703194,1.0004425116350042
1677618680058044,0.1259174486915393,0.004455634393835339,0.9988555733577478
1677618680074035,0.12457465476462914,0.006652933546959616,0.9997100785839628
1677618680090026,0.12481879911497629,0.007995727473868897,1.0009308003356985
1677618680106018,0.124330510414282,0.0061646448462653325,1.002517738612955
1677618680122009,0.12457465476462914,0.005310139620050336,0.9986114290074006
1677618680138000,0.12408636606393486,0.007263294422827471,0.9997100785839628
1677618680153991,0.12420843823910843,0.004943923094529623,1.0003204394598306
1677618680169983,0.12542915999084503,0.0060425726710917615,0.9997100785839628
1677618680185974,0.12542915999084503,0.006897077897306758,0.9988555733577478
1677618680201965,0.12384222171358772,0.005554283970397478,0.9998321507591363
1677618680217956,0.12457465476462914,0.004943923094529623,1.0021515220874342
1677618680233886,0.1251850156404979,0.0071412222476539,1.001907377737087
1677618680249877,0.12567330434119217,0.00579842832074462,1.0015411612115663
1677618680265868,0.12481879911497629,0.0061646448462653325,1.0004425116350042
1677618680281859,0.124330510414282,0.00579842832074462,1.0009308003356985
1677618680297849,0.1251850156404979,0.004699778744182481,0.9986114290074006
1677618680313840,0.12469672693980272,0.004943923094529623,0.9997100785839628
1677618680329831,0.1251850156404979,0.00579842832074462,1.0006866559853513
1677618680345821,0.12567330434119217,0.005310139620050336,1.0015411612115663
1677618680361812,0.12652780956740717,0.005920500495918191,1.0028839551384756
1677618680377803,0.12494087129014986,0.00579842832074462,0.9998321507591363
1677618680393794,0.12530708781567146,0.005310139620050336,1.000198367284657
1677618680409784,0.12420843823910843,0.005554283970397478,1.0009308003356985
1677618680425775,0.1255512321660186,0.007263294422827471,1.0000762951094835
1677618680441766,0.1264057373922336,0.006897077897306758,1.001052872510872
1677618680457757,0.12457465476462914,0.005554283970397478,0.9999542229343099
1677618680473747,0.12384222171358772,0.006775005722133187,1.0005645838101778
1677618680489738,0.12372014953841415,0.0071412222476539,1.0003204394598306
1677618680505729,0.1255512321660186,0.006286717021438903,0.9978789959563592
1677618680521720,0.1255512321660186,0.005676356145571049,1.0005645838101778
1677618680537710,0.12530708781567146,0.004455634393835339,1.002761882963302
1677618680553650,0.12494087129014986,0.006775005722133187,1.0015411612115663
1677618680569640,0.1255512321660186,0.005310139620050336,0.9987335011825742
1677618680585630,0.12579537651636574,0.0061646448462653325,1.0003204394598306
1677618680601620,0.1251850156404979,0.005065995269703194,0.9997100785839628
1677618680617611,0.12457465476462914,0.005920500495918191,1.000808728160525
1677618680633601,0.12372014953841415,0.006286717021438903,1.0006866559853513
1677618680649591,0.12579537651636574,0.005676356145571049,1.0006866559853513
1677618680665581,0.12579537651636574,0.005676356145571049,1.0003204394598306
1677618680681572,0.12542915999084503,0.005188067444876765,1.0026398107881285
1677618680697562,0.12408636606393486,0.005554283970397478,1.000198367284657
1677618680713552,0.12469672693980272,0.005432211795223907,1.00166323338674
1677618680729542,0.12457465476462914,0.004821850919356052,1.0015411612115663
1677618680745533,0.12494087129014986,0.004821850919356052,1.0015411612115663
1677618680761523,0.12457465476462914,0.005920500495918191,0.9995880064087892
1677618680777513,0.124330510414282,0.005920500495918191,1.001052872510872
1677618680793503,0.12603952086671288,0.004699778744182481,1.002517738612955
1677618680809494,0.12530708781567146,0.005065995269703194,1.0000762951094835
1677618680825484,0.12603952086671288,0.006286717021438903,1.0005645838101778
1677618680841474,0.12469672693980272,0.006286717021438903,1.0003204394598306
1677618680857464,0.12652780956740717,0.005432211795223907,1.00166323338674
1677618680873413,0.1251850156404979,0.005554283970397478,1.0003204394598306
1677618680889403,0.12616159304188646,0.0060425726710917615,0.9981231403067063
1677618680905393,0.12408636606393486,0.005188067444876765,0.9994659342336156
1677618680921383,0.124330510414282,0.005065995269703194,0.9983672846570535
1677618680937374,0.12616159304188646,0.006775005722133187,0.9993438620584421
1677618680953364,0.124330510414282,0.005065995269703194,0.9998321507591363
1677618680969354,0.1255512321660186,0.005920500495918191,0.9998321507591363
1677618680985345,0.12616159304188646,0.006286717021438903,1.0014190890363928
1677618681001335,0.12457465476462914,0.0060425726710917615,1.00166323338674
1677618681017325,0.1264057373922336,0.004699778744182481,0.9980010681315328
1677618681033315,0.12530708781567146,0.006897077897306758,1.0009308003356985
1677618681049306,0.12603952086671288,0.0061646448462653325,1.000808728160525
1677618681065296,0.1255512321660186,0.007019150072480329,1.0009308003356985
1677618681081286,0.12481879911497629,0.005310139620050336,1.000808728160525
1677618681097276,0.12567330434119217,0.005554283970397478,1.0012970168612192
1677618681113267,0.12603952086671288,0.005676356145571049,1.001052872510872
1677618681129257,0.12567330434119217,0.0061646448462653325,1.0012970168612192
1677618681145247,0.12603952086671288,0.0060425726710917615,0.9995880064087892
1677618681161237,0.12445258258945557,0.00579842832074462,1.0004425116350042
1677618681177228,0.12420843823910843,0.0060425726710917615,1.0021515220874342
1677618681193176,0.12506294346532432,0.005432211795223907,1.002517738612955
1677618681209166,0.12616159304188646,0.006408789196612474,1.0005645838101778
1677618681225156,0.12530708781567146,0.007019150072480329,0.9995880064087892
1677618681241147,0.12530708781567146,0.006408789196612474,1.000808728160525
1677618681257137,0.12506294346532432,0.006652933546959616,1.0011749446860456
1677618681273127,0.1259174486915393,0.005310139620050336,1.0043488212405585
1677618681289117,0.12530708781567146,0.005676356145571049,1.0015411612115663
1677618681305108,0.12616159304188646,0.006408789196612474,1.000808728160525
1677618681321098,0.12542915999084503,0.00579842832074462,1.000808728160525
1677618681337088,0.12530708781567146,0.0061646448462653325,1.00166323338674
1677618681353078,0.1251850156404979,0.0060425726710917615,0.9998321507591363
1677618681369069,0.12530708781567146,0.006775005722133187,0.9999542229343099
1677618681385059,0.12506294346532432,0.006775005722133187,1.0043488212405585
1677618681401049,0.1251850156404979,0.006408789196612474,1.00166323338674
1677618681417039,0.12420843823910843,0.006652933546959616,0.9983672846570535
1677618681433030,0.12469672693980272,0.005920500495918191,1.0017853055619135
1677618681449020,0.12530708781567146,0.006530861371786045,1.0014190890363928
1677618681465010,0.12445258258945557,0.00579842832074462,1.0009308003356985
1677618681481001,0.12579537651636574,0.005676356145571049,1.0021515220874342
1677618681496991,0.12542915999084503,0.005310139620050336,1.0015411612115663
1677618681512939,0.12701609826810145,0.0060425726710917615,0.9993438620584421
1677618681528929,0.12494087129014986,0.005310139620050336,0.9998321507591363
1677618681544919,0.12506294346532432,0.005432211795223907,1.002517738612955
1677618681560908,0.12469672693980272,0.0061646448462653325,1.0000762951094835
1677618681576898,0.124330510414282,0.006530861371786045,1.0000762951094835
1677618681592888,0.12445258258945557,0.005676356145571049,0.9999542229343099
1677618681608878,0.12408636606393486,0.005310139620050336,1.0005645838101778
1677618681624868,0.12384222171358772,0.005432211795223907,1.0012970168612192
1677618681640857,0.12445258258945557,0.004943923094529623,1.0031280994888228
1677618681656847,0.1251850156404979,0.006286717021438903,1.0015411612115663
1677618681672837,0.12494087129014986,0.005188067444876765,0.9983672846570535
1677618681688827,0.12445258258945557,0.00579842832074462,1.0012970168612192
1677618681704816,0.12469672693980272,0.004821850919356052,1.001907377737087
1677618681720806,0.1251850156404979,0.005554283970397478,1.0017853055619135
1677618681736796,0.12457465476462914,0.0061646448462653325,1.0022735942626078
1677618681752786,0.12506294346532432,0.007019150072480329,1.0011749446860456
1677618681768776,0.12506294346532432,0.0061646448462653325,1.0021515220874342
1677618681784765,0.124330510414282,0.004821850919356052,1.004470893415732
1677618681800755,0.12457465476462914,0.00579842832074462,0.9998321507591363
1677618681816745,0.12579537651636574,0.007263294422827471,1.0021515220874342
1677618681832672,0.1251850156404979,0.007263294422827471,1.0021515220874342
1677618681848662,0.12445258258945557,0.006408789196612474,1.0003204394598306
1677618681864651,0.12408636606393486,0.005310139620050336,1.0004425116350042
1677618681880641,0.12481879911497629,0.005920500495918191,0.9997100785839628
1677618681896631,0.12384222171358772,0.005676356145571049,1.001052872510872
1677618681912621,0.12420843823910843,0.006897077897306758,1.002517738612955
1677618681928610,0.12530708781567146,0.00579842832074462,1.0006866559853513
1677618681944600,0.124330510414282,0.006286717021438903,1.0003204394598306
1677618681960590,0.12469672693980272,0.006286717021438903,0.9998321507591363
1677618681976580,0.1259174486915393,0.006408789196612474,0.9988555733577478
1677618681992570,0.12457465476462914,0.005676356145571049,0.9977569237811856
1677618682008559,0.12506294346532432,0.006775005722133187,1.0006866559853513
1677618682024549,0.12530708781567146,0.005432211795223907,1.0009308003356985
1677618682040539,0.12567330434119217,0.006286717021438903,0.9999542229343099
1677618682056529,0.12469672693980272,0.007019150072480329,1.00166323338674
1677618682072518,0.12530708781567146,0.005188067444876765,0.9998321507591363
1677618682088508,0.12567330434119217,0.005676356145571049,1.0023956664377813
1677618682104498,0.12494087129014986,0.006652933546959616,1.001907377737087
1677618682120488,0.12542915999084503,0.006530861371786045,1.0011749446860456
1677618682136478,0.1259174486915393,0.007263294422827471,1.0017853055619135
1677618682152435,0.12420843823910843,0.007385366598001042,1.0015411612115663
1677618682168424,0.1264057373922336,0.005432211795223907,1.0014190890363928
1677618682184414,0.1272602426184486,0.006775005722133187,1.002517738612955
1677618682200403,0.12506294346532432,0.005432211795223907,0.9992217898832685
1677618682216392,0.12408636606393486,0.00579842832074462,1.0017853055619135
1677618682232381,0.12652780956740717,0.006286717021438903,1.0043488212405585
1677618682248371,0.12628366521706003,0.005310139620050336,1.000198367284657
1677618682264360,0.124330510414282,0.0060425726710917615,1.0004425116350042
1677618682280349,0.1231097886625463,0.005065995269703194,1.002517738612955
1677618682296339,0.12359807736324058,0.0060425726710917615,1.0022735942626078
1677618682312328,0.12664988174258074,0.006775005722133187,1.0011749446860456
1677618682328317,0.12481879911497629,0.005676356145571049,1.0020294499122606
1677618682344307,0.12481879911497629,0.005188067444876765,1.0011749446860456
1677618682360296,0.12457465476462914,0.0042114900434881974,1.0017853055619135
1677618682376285,0.12664988174258074,0.006530861371786045,1.0012970168612192
1677618682392274,0.12420843823910843,0.007263294422827471,1.000198367284657
1677618682408264,0.12396429388876129,0.0060425726710917615,1.0032501716639963
1677618682424253,0.12408636606393486,0.00579842832074462,1.001052872510872
1677618682440242,0.12469672693980272,0.005554283970397478,1.0021515220874342
1677618682456232,0.12469672693980272,0.0061646448462653325,1.0014190890363928
1677618682472198,0.12603952086671288,0.00457770656900891,1.0000762951094835
1677618682488187,0.12408636606393486,0.007019150072480329,1.002517738612955
1677618682504177,0.12335393301289344,0.006652933546959616,1.0014190890363928
1677618682520166,0.12494087129014986,0.004699778744182481,1.000808728160525
1677618682536155,0.12506294346532432,0.006530861371786045,1.0017853055619135
1677618682552145,0.12603952086671288,0.004821850919356052,1.0004425116350042
1677618682568134,0.12420843823910843,0.005676356145571049,1.001052872510872
1677618682584123,0.12506294346532432,0.006286717021438903,1.001052872510872
1677618682600113,0.12506294346532432,0.005310139620050336,1.0012970168612192
1677618682616102,0.12567330434119217,0.007507438773174613,1.0020294499122606
1677618682632091,0.12481879911497629,0.00579842832074462,1.001052872510872
1677618682648080,0.12506294346532432,0.006408789196612474,1.0005645838101778
1677618682664070,0.12372014953841415,0.0061646448462653325,1.0022735942626078
1677618682680059,0.12481879911497629,0.006897077897306758,1.0023956664377813
1677618682696048,0.12469672693980272,0.005554283970397478,1.0015411612115663
1677618682712038,0.12469672693980272,0.006652933546959616,1.0011749446860456
1677618682728027,0.12616159304188646,0.005920500495918191,0.9995880064087892
1677618682744016,0.12469672693980272,0.0060425726710917615,0.9993438620584421
1677618682760006,0.12567330434119217,0.005065995269703194,0.9999542229343099
1677618682775995,0.12530708781567146,0.00579842832074462,1.0017853055619135
1677618682791931,0.12506294346532432,0.005920500495918191,1.0031280994888228
1677618682807920,0.124330510414282,0.00579842832074462,1.002517738612955
1677618682823909,0.12530708781567146,0.00579842832074462,0.9999542229343099
1677618682839899,0.12542915999084503,0.006530861371786045,1.000808728160525
1677618682855888,0.1259174486915393,0.0061646448462653325,1.0037384603646906
1677618682871877,0.12664988174258074,0.005676356145571049,1.002517738612955
1677618682887867,0.12567330434119217,0.0061646448462653325,1.0015411612115663
1677618682903856,0.12420843823910843,0.005310139620050336,0.9980010681315328
1677618682919845,0.12530708781567146,0.004943923094529623,1.0003204394598306
1677618682935835,0.12494087129014986,0.005065995269703194,1.0014190890363928
1677618682951824,0.12616159304188646,0.005554283970397478,1.0006866559853513
1677618682967813,0.12481879911497629,0.0060425726710917615,0.9994659342336156
1677618682983802,0.1255512321660186,0.006775005722133187,1.0014190890363928
1677618682999792,0.1255512321660186,0.006408789196612474,1.000808728160525
1677618683015781,0.12481879911497629,0.0061646448462653325,1.002517738612955
1677618683031770,0.12530708781567146,0.005920500495918191,1.001052872510872
1677618683047760,0.12396429388876129,0.00579842832074462,1.0012970168612192
1677618683063749,0.12420843823910843,0.0061646448462653325,1.00166323338674
1677618683079738,0.12542915999084503,0.00579842832074462,1.0005645838101778
1677618683095728,0.12579537651636574,0.005554283970397478,1.0006866559853513
1677618683111663,0.12506294346532432,0.006530861371786045,1.000198367284657
1677618683127652,0.12494087129014986,0.005310139620050336,1.0037384603646906
1677618683143641,0.12420843823910843,0.007019150072480329,1.0012970168612192
1677618683159630,0.1251850156404979,0.005920500495918191,1.001907377737087
1677618683175619,0.12481879911497629,0.005554283970397478,1.0003204394598306
1677618683191608,0.12445258258945557,0.007019150072480329,1.0003204394598306
1677618683207596,0.12567330434119217,0.006652933546959616,1.0004425116350042
1677618683223585,0.12481879911497629,0.0061646448462653325,0.9992217898832685
1677618683239574,0.12506294346532432,0.005920500495918191,1.0030060273136492
1677618683255563,0.12469672693980272,0.005310139620050336,1.0014190890363928
1677618683271552,0.12420843823910843,0.006652933546959616,1.001052872510872
1677618683287541,0.12506294346532432,0.004699778744182481,1.0003204394598306
1677618683303529,0.12420843823910843,0.005920500495918191,1.001052872510872
1677618683319518,0.12628366521706003,0.00579842832074462,1.0028839551384756
1677618683335507,0.124330510414282,0.005676356145571049,1.0022735942626078
1677618683351496,0.12579537651636574,0.0060425726710917615,1.0028839551384756
1677618683367485,0.12603952086671288,0.0061646448462653325,1.0009308003356985
1677618683383473,0.12457465476462914,0.005920500495918191,1.0017853055619135
1677618683399462,0.12445258258945557,0.0061646448462653325,1.001052872510872
1677618683415451,0.12579537651636574,0.00579842832074462,1.0017853055619135
1677618683431457,0.12494087129014986,0.006897077897306758,0.9987335011825742
1677618683447446,0.124330510414282,0.005554283970397478,1.0022735942626078
1677618683463435,0.12481879911497629,0.006775005722133187,1.0023956664377813
1677618683479424,0.124330510414282,0.00579842832074462,1.0012970168612192
1677618683495412,0.124330510414282,0.006286717021438903,0.9999542229343099
1677618683511401,0.1251850156404979,0.006530861371786045,1.000808728160525
1677618683527390,0.12616159304188646,0.006286717021438903,1.0003204394598306
1677618683543379,0.12567330434119217,0.006897077897306758,1.0017853055619135
1677618683559368,0.12457465476462914,0.0060425726710917615,1.0003204394598306
1677618683575357,0.12506294346532432,0.005554283970397478,1.0003204394598306
1677618683591345,0.12530708781567146,0.004943923094529623,1.0004425116350042
1677618683607334,0.12372014953841415,0.004699778744182481,1.000198367284657
1677618683623323,0.1255512321660186,0.005432211795223907,1.0005645838101778
1677618683639312,0.12579537651636574,0.004821850919356052,1.0005645838101778
1677618683655301,0.12445258258945557,0.005676356145571049,1.001052872510872
1677618683671290,0.12481879911497629,0.007873655298695326,1.00166323338674
1677618683687278,0.124330510414282,0.006408789196612474,1.002517738612955
1677618683703267,0.1259174486915393,0.005188067444876765,1.0014190890363928
1677618683719256,0.124330510414282,0.006286717021438903,0.9993438620584421
1677618683735245,0.12567330434119217,0.006286717021438903,0.9995880064087892
1677618683751220,0.12481879911497629,0.006652933546959616,0.9995880064087892
1677618683767209,0.12469672693980272,0.00579842832074462,1.0017853055619135
1677618683783198,0.124330510414282,0.006897077897306758,1.0009308003356985
1677618683799187,0.12469672693980272,0.00579842832074462,0.9978789959563592
1677618683815176,0.12494087129014986,0.0060425726710917615,1.0006866559853513
1677618683831164,0.1251850156404979,0.006286717021438903,1.0015411612115663
1677618683847153,0.12408636606393486,0.004821850919356052,1.0012970168612192
1677618683863142,0.12469672693980272,0.005065995269703194,0.9994659342336156
1677618683879131,0.12494087129014986,0.0060425726710917615,1.001052872510872
1677618683895120,0.1255512321660186,0.005065995269703194,1.0011749446860456
1677618683911109,0.12530708781567146,0.006286717021438903,1.0014190890363928
1677618683927097,0.12530708781567146,0.007019150072480329,1.0009308003356985
1677618683943086,0.12530708781567146,0.005188067444876765,0.9975127794308385
1677618683959075,0.12628366521706003,0.00579842832074462,0.9999542229343099
1677618683975064,0.12445258258945557,0.005920500495918191,1.002517738612955
1677618683991053,0.124330510414282,0.006408789196612474,0.9995880064087892
1677618684007042,0.12494087129014986,0.0060425726710917615,0.9992217898832685
1677618684023030,0.12469672693980272,0.0061646448462653325,1.0038605325398642
1677618684039019,0.12628366521706003,0.0061646448462653325,1.002517738612955
1677618684055008,0.12359807736324058,0.007385366598001042,0.9995880064087892
1677618684070984,0.1251850156404979,0.005188067444876765,0.9999542229343099
1677618684086972,0.12372014953841415,0.005554283970397478,1.0005645838101778
1677618684102961,0.123476005188067,0.006775005722133187,1.0022735942626078
1677618684118950,0.12445258258945557,0.005432211795223907,1.0017853055619135
1677618684134939,0.1251850156404979,0.006652933546959616,1.0003204394598306
1677618684150928,0.12494087129014986,0.005554283970397478,1.0009308003356985
1677618684166916,0.12579537651636574,0.00579842832074462,1.0014190890363928
1677618684182905,0.1251850156404979,0.005676356145571049,1.000198367284657
1677618684198894,0.12530708781567146,0.00457770656900891,1.0014190890363928
1677618684214883,0.12481879911497629,0.007507438773174613,1.0012970168612192
1677618684230872,0.12481879911497629,0.007507438773174613,1.0012970168612192
1677618684246861,0.124330510414282,0.005432211795223907,0.9981231403067063
1677618684262849,0.12506294346532432,0.0061646448462653325,0.9988555733577478
1677618684278838,0.12542915999084503,0.006408789196612474,0.9983672846570535
1677618684294827,0.12420843823910843,0.0038452735179674846,1.0020294499122606
1677618684310816,0.1251850156404979,0.005065995269703194,1.0000762951094835
1677618684326805,0.123476005188067,0.0060425726710917615,1.0015411612115663
1677618684342794,0.12567330434119217,0.006286717021438903,1.0017853055619135
1677618684358782,0.12616159304188646,0.006286717021438903,0.9993438620584421
1677618684374771,0.1251850156404979,0.00579842832074462,1.0006866559853513
1677618684390716,0.12481879911497629,0.005676356145571049,1.0000762951094835
1677618684406705,0.12567330434119217,0.005554283970397478,1.0023956664377813
1677618684422694,0.12457465476462914,0.006408789196612474,1.0022735942626078
1677618684438683,0.12372014953841415,0.006408789196612474,1.00166323338674
1677618684454671,0.12457465476462914,0.0060425726710917615,1.0000762951094835
1677618684470660,0.12542915999084503,0.006530861371786045,1.001907377737087
1677618684486649,0.12469672693980272,0.005676356145571049,0.9998321507591363
1677618684502638,0.12530708781567146,0.006408789196612474,1.0003204394598306
1677618684518627,0.12567330434119217,0.0071412222476539,0.9998321507591363
1677618684534616,0.12567330434119217,0.0060425726710917615,0.9984893568322271
1677618684550604,0.12469672693980272,0.006530861371786045,0.9999542229343099
1677618684566593,0.1251850156404979,0.006286717021438903,1.0005645838101778
1677618684582582,0.12359807736324058,0.0060425726710917615,1.001052872510872
1677618684598571,0.124330510414282,0.00579842832074462,1.0004425116350042
1677618684614560,0.12567330434119217,0.004821850919356052,1.0005645838101778
1677618684630549,0.12494087129014986,0.006286717021438903,1.001907377737087
1677618684646537,0.12420843823910843,0.00457770656900891,0.9987335011825742
1677618684662526,0.12579537651636574,0.005554283970397478,1.0009308003356985
1677618684678515,0.12579537651636574,0.006652933546959616,1.0004425116350042
1677618684694504,0.12530708781567146,0.007019150072480329,0.9988555733577478
1677618684710479,0.12494087129014986,0.006408789196612474,0.9994659342336156
1677618684726468,0.12372014953841415,0.005554283970397478,0.9978789959563592
1677618684742456,0.12457465476462914,0.005310139620050336,1.0005645838101778
1677618684758444,0.12506294346532432,0.004943923094529623,1.0011749446860456
1677618684774433,0.12542915999084503,0.005676356145571049,1.0005645838101778
1677618684790421,0.12457465476462914,0.005676356145571049,0.9995880064087892
1677618684806409,0.12494087129014986,0.004943923094529623,0.9993438620584421
1677618684822398,0.12542915999084503,0.005554283970397478,0.9995880064087892
1677618684838386,0.12372014953841415,0.006286717021438903,1.0004425116350042
1677618684854375,0.12420843823910843,0.006408789196612474,0.9995880064087892
1677618684870363,0.12481879911497629,0.006897077897306758,0.9999542229343099
1677618684886351,0.12542915999084503,0.005676356145571049,1.002517738612955
1677618684902340,0.12494087129014986,0.006897077897306758,1.0011749446860456
1677618684918328,0.12420843823910843,0.005676356145571049,1.0022735942626078
1677618684934316,0.12469672693980272,0.005310139620050336,1.0012970168612192
1677618684950305,0.12481879911497629,0.005065995269703194,1.0022735942626078
1677618684966293,0.12457465476462914,0.005920500495918191,1.0015411612115663
1677618684982281,0.12469672693980272,0.0061646448462653325,1.0009308003356985
1677618684998270,0.12481879911497629,0.005432211795223907,1.0017853055619135
1677618685014258,0.12567330434119217,0.004821850919356052,1.001052872510872
1677618685030243,0.1255512321660186,0.0061646448462653325,0.9998321507591363
1677618685046231,0.124330510414282,0.0060425726710917615,1.0005645838101778
1677618685062219,0.1259174486915393,0.004455634393835339,1.0004425116350042
1677618685078208,0.12335393301289344,0.005676356145571049,1.000198367284657
1677618685094196,0.12616159304188646,0.005310139620050336,1.0020294499122606
1677618685110184,0.12420843823910843,0.006286717021438903,1.0020294499122606
1677618685126173,0.12457465476462914,0.006408789196612474,1.0037384603646906
1677618685142161,0.1251850156404979,0.006652933546959616,1.000808728160525
1677618685158149,0.124330510414282,0.0061646448462653325,0.9971465629053178
1677618685174138,0.12457465476462914,0.006286717021438903,0.9997100785839628
1677618685190126,0.12530708781567146,0.006286717021438903,1.0020294499122606
1677618685206114,0.1255512321660186,0.005920500495918191,0.9982452124818799
1677618685222103,0.1251850156404979,0.0061646448462653325,1.0009308003356985
1677618685238091,0.12603952086671288,0.006530861371786045,0.9998321507591363
1677618685254079,0.12567330434119217,0.0071412222476539,1.0032501716639963
1677618685270068,0.12579537651636574,0.007385366598001042,1.0004425116350042
1677618685286056,0.12567330434119217,0.0071412222476539,1.0006866559853513
1677618685302044,0.1251850156404979,0.006652933546959616,1.0028839551384756
1677618685318033,0.12567330434119217,0.007873655298695326,1.0023956664377813
1677618685334021,0.12481879911497629,0.006652933546959616,1.001052872510872
1677618685349975,0.12603952086671288,0.007019150072480329,0.9994659342336156
1677618685365964,0.1251850156404979,0.007507438773174613,1.0006866559853513
1677618685381952,0.12542915999084503,0.004333562218661768,1.001907377737087
1677618685397940,0.12420843823910843,0.006408789196612474,0.9989776455329213
1677618685413929,0.12457465476462914,0.005676356145571049,0.9987335011825742
1677618685429917,0.12616159304188646,0.004699778744182481,1.000198367284657
1677618685445905,0.12616159304188646,0.006775005722133187,1.0015411612115663
1677618685461894,0.12652780956740717,0.006652933546959616,1.0032501716639963
1677618685477882,0.1259174486915393,0.0060425726710917615,1.0009308003356985
1677618685493870,0.1255512321660186,0.0071412222476539,1.0004425116350042
1677618685509859,0.12481879911497629,0.0060425726710917615,0.9990997177080949
1677618685525847,0.12420843823910843,0.006775005722133187,1.0015411612115663
1677618685541835,0.12530708781567146,0.006408789196612474,1.0004425116350042
1677618685557824,0.12494087129014986,0.006408789196612474,0.9986114290074006
1677618685573812,0.1259174486915393,0.005432211795223907,1.0012970168612192
1677618685589800,0.1255512321660186,0.0060425726710917615,0.9995880064087892
1677618685605789,0.12603952086671288,0.00579842832074462,0.9982452124818799
1677618685621777,0.12603952086671288,0.005310139620050336,1.0011749446860456
1677618685637766,0.12603952086671288,0.005188067444876765,0.9990997177080949
1677618685653754,0.12567330434119217,0.0060425726710917615,0.9994659342336156
1677618685669708,0.12567330434119217,0.0061646448462653325,0.9986114290074006
1677618685685696,0.12408636606393486,0.00579842832074462,0.9995880064087892
1677618685701685,0.12530708781567146,0.006286717021438903,1.0004425116350042
1677618685717673,0.12469672693980272,0.006408789196612474,1.0023956664377813
1677618685733661,0.12481879911497629,0.006530861371786045,1.0020294499122606
1677618685749650,0.1231097886625463,0.006775005722133187,1.000198367284657
1677618685765638,0.12567330434119217,0.005676356145571049,0.9998321507591363
1677618685781626,0.12530708781567146,0.007019150072480329,0.9993438620584421
1677618685797615,0.12408636606393486,0.006408789196612474,0.9990997177080949
1677618685813603,0.1251850156404979,0.007385366598001042,1.000198367284657
1677618685829591,0.12323186083771986,0.005920500495918191,1.000808728160525
1677618685845580,0.12445258258945557,0.006652933546959616,0.9998321507591363
1677618685861568,0.12408636606393486,0.005676356145571049,0.9995880064087892
1677618685877556,0.12359807736324058,0.005554283970397478,0.9989776455329213
1677618685893545,0.12445258258945557,0.005554283970397478,1.0012970168612192
1677618685909533,0.12494087129014986,0.005920500495918191,1.001052872510872
1677618685925521,0.12469672693980272,0.00579842832074462,1.0004425116350042
1677618685941510,0.12420843823910843,0.005676356145571049,1.00166323338674
1677618685957498,0.12689402609292788,0.004943923094529623,0.9990997177080949
1677618685973487,0.12469672693980272,0.005676356145571049,0.9998321507591363
1677618685989471,0.12481879911497629,0.005676356145571049,0.9997100785839628
1677618686005459,0.1251850156404979,0.0061646448462653325,1.001052872510872
1677618686021448,0.12506294346532432,0.0060425726710917615,1.0015411612115663
1677618686037436,0.124330510414282,0.005920500495918191,1.000808728160525
1677618686053424,0.12469672693980272,0.005920500495918191,0.9990997177080949
1677618686069413,0.12469672693980272,0.006652933546959616,0.9992217898832685
1677618686085401,0.12616159304188646,0.0061646448462653325,1.0020294499122606
1677618686101390,0.12506294346532432,0.007507438773174613,0.9998321507591363
1677618686117378,0.12652780956740717,0.00579842832074462,0.9992217898832685
1677618686133366,0.12567330434119217,0.007263294422827471,1.0006866559853513
1677618686149355,0.12616159304188646,0.007263294422827471,1.001052872510872
1677618686165343,0.12494087129014986,0.007019150072480329,1.0005645838101778
1677618686181331,0.12701609826810145,0.007629510948348184,1.0009308003356985
1677618686197320,0.12616159304188646,0.007019150072480329,1.00166323338674
1677618686213308,0.12494087129014986,0.006408789196612474,1.00166323338674
1677618686229296,0.12567330434119217,0.007019150072480329,0.9992217898832685
1677618686245285,0.12396429388876129,0.0071412222476539,1.0006866559853513
1677618686261273,0.12445258258945557,0.0071412222476539,0.9992217898832685
1677618686277261,0.12567330434119217,0.006408789196612474,1.00166323338674
1677618686293250,0.12457465476462914,0.007263294422827471,1.001052872510872
1677618686309234,0.12567330434119217,0.006775005722133187,0.9999542229343099
1677618686325223,0.12542915999084503,0.005432211795223907,0.9981231403067063
1677618686341211,0.12542915999084503,0.00579842832074462,0.9993438620584421
1677618686357199,0.1255512321660186,0.006775005722133187,1.000198367284657
1677618686373188,0.12457465476462914,0.007263294422827471,1.0014190890363928
1677618686389176,0.12506294346532432,0.006530861371786045,1.000198367284657
1677618686405164,0.12469672693980272,0.006775005722133187,1.001052872510872
1677618686421153,0.12469672693980272,0.007263294422827471,1.000808728160525
1677618686437141,0.12542915999084503,0.005676356145571049,1.0011749446860456
1677618686453129,0.12408636606393486,0.006652933546959616,1.0011749446860456
1677618686469118,0.12567330434119217,0.0061646448462653325,0.9992217898832685
1677618686485106,0.1251850156404979,0.005676356145571049,0.9999542229343099
1677618686501094,0.12567330434119217,0.006652933546959616,0.9989776455329213
1677618686517083,0.12408636606393486,0.007263294422827471,0.9986114290074006
1677618686533071,0.124330510414282,0.006897077897306758,1.000808728160525
1677618686549059,0.12579537651636574,0.005310139620050336,1.00166323338674
1677618686565048,0.124330510414282,0.006530861371786045,1.0011749446860456
1677618686581036,0.12542915999084503,0.00579842832074462,0.9981231403067063
1677618686597025,0.1251850156404979,0.005676356145571049,0.9970244907301442
1677618686613013,0.124330510414282,0.006775005722133187,1.0006866559853513
1677618686628997,0.12664988174258074,0.004699778744182481,0.9995880064087892
1677618686644986,0.12494087129014986,0.007873655298695326,0.9986114290074006
1677618686660974,0.12445258258945557,0.006652933546959616,0.9994659342336156
1677618686676962,0.12494087129014986,0.0060425726710917615,1.0028839551384756
1677618686692951,0.12506294346532432,0.006286717021438903,1.0006866559853513
1677618686708939,0.12628366521706003,0.00457770656900891,0.9999542229343099
1677618686724928,0.12542915999084503,0.00579842832074462,1.001052872510872
1677618686740916,0.12420843823910843,0.007019150072480329,1.0032501716639963
1677618686756904,0.12408636606393486,0.006897077897306758,1.001052872510872
1677618686772893,0.12506294346532432,0.006652933546959616,1.0015411612115663
1677618686788881,0.12457465476462914,0.005432211795223907,0.9980010681315328
1677618686804869,0.12408636606393486,0.006286717021438903,1.0000762951094835
1677618686820858,0.12542915999084503,0.005920500495918191,1.001052872510872
1677618686836846,0.12530708781567146,0.006408789196612474,1.001907377737087
1677618686852834,0.12603952086671288,0.004821850919356052,0.9999542229343099
1677618686868823,0.12469672693980272,0.0060425726710917615,1.0021515220874342
1677618686884811,0.1255512321660186,0.0060425726710917615,1.001907377737087
1677618686900799,0.12445258258945557,0.005554283970397478,1.0017853055619135
1677618686916788,0.12262149996185201,0.005676356145571049,1.0021515220874342
1677618686932776,0.1259174486915393,0.005065995269703194,1.0000762951094835
1677618686948730,0.12616159304188646,0.006530861371786045,1.0000762951094835
1677618686964718,0.12542915999084503,0.006286717021438903,0.9993438620584421
1677618686980706,0.1251850156404979,0.005676356145571049,0.9992217898832685
1677618686996694,0.12542915999084503,0.006530861371786045,1.000808728160525
1677618687012682,0.12469672693980272,0.006652933546959616,1.000808728160525
1677618687028669,0.12494087129014986,0.0060425726710917615,1.0011749446860456
1677618687044657,0.12506294346532432,0.004699778744182481,0.9992217898832685
1677618687060645,0.12494087129014986,0.005065995269703194,1.0000762951094835
1677618687076633,0.12542915999084503,0.006530861371786045,0.9990997177080949
1677618687092621,0.12420843823910843,0.005310139620050336,1.0005645838101778
1677618687108609,0.1251850156404979,0.005065995269703194,0.9989776455329213
1677618687124597,0.12530708781567146,0.0060425726710917615,1.0023956664377813
1677618687140585,0.12420843823910843,0.0061646448462653325,1.0021515220874342
1677618687156572,0.1251850156404979,0.0071412222476539,0.9988555733577478
1677618687172560,0.12298771648737272,0.005676356145571049,1.001052872510872
1677618687188548,0.12567330434119217,0.006652933546959616,1.0005645838101778
1677618687204536,0.1251850156404979,0.005065995269703194,1.0023956664377813
1677618687220524,0.12542915999084503,0.007385366598001042,0.9988555733577478
1677618687236512,0.12542915999084503,0.006652933546959616,1.0015411612115663
1677618687252500,0.12420843823910843,0.005920500495918191,0.9995880064087892
1677618687268493,0.12396429388876129,0.006652933546959616,1.0006866559853513
1677618687284481,0.1255512321660186,0.005432211795223907,1.0003204394598306
1677618687300469,0.12567330434119217,0.006408789196612474,1.00166323338674
1677618687316457,0.12579537651636574,0.004821850919356052,1.000808728160525
1677618687332445,0.12542915999084503,0.0061646448462653325,1.0022735942626078
1677618687348433,0.12579537651636574,0.006408789196612474,1.0021515220874342
1677618687364421,0.1255512321660186,0.006652933546959616,1.0032501716639963
1677618687380408,0.1255512321660186,0.0036011291676203427,1.0009308003356985
1677618687396396,0.12603952086671288,0.006408789196612474,1.0028839551384756
1677618687412384,0.12579537651636574,0.0061646448462653325,1.0017853055619135
1677618687428372,0.1259174486915393,0.006408789196612474,1.001907377737087
1677618687444360,0.12384222171358772,0.005432211795223907,1.000808728160525
1677618687460348,0.124330510414282,0.005920500495918191,1.0026398107881285
1677618687476336,0.1251850156404979,0.00579842832074462,0.9992217898832685
1677618687492324,0.1251850156404979,0.006408789196612474,1.0009308003356985
1677618687508311,0.12481879911497629,0.005676356145571049,1.0017853055619135
1677618687524299,0.12445258258945557,0.00579842832074462,0.9995880064087892
1677618687540287,0.1259174486915393,0.005065995269703194,1.0000762951094835
1677618687556275,0.1255512321660186,0.006286717021438903,1.0015411612115663
1677618687572263,0.1251850156404979,0.004943923094529623,1.002761882963302
1677618687588256,0.12579537651636574,0.005554283970397478,1.0014190890363928
1677618687604244,0.12750438696879574,0.005432211795223907,1.00166323338674
1677618687620232,0.12628366521706003,0.005310139620050336,0.9989776455329213
1677618687636220,0.12689402609292788,0.0040894178683146265,1.0014190890363928
1677618687652208,0.12616159304188646,0.006408789196612474,1.0012970168612192
1677618687668196,0.12616159304188646,0.006408789196612474,1.000198367284657
1677618687684184,0.12530708781567146,0.006897077897306758,1.0022735942626078
1677618687700172,0.12542915999084503,0.006530861371786045,1.0023956664377813
1677618687716159,0.12506294346532432,0.005676356145571049,1.00166323338674
1677618687732147,0.124330510414282,0.005065995269703194,1.0004425116350042
1677618687748135,0.12481879911497629,0.007019150072480329,1.0012970168612192
1677618687764123,0.12469672693980272,0.0060425726710917615,1.0000762951094835
1677618687780111,0.1251850156404979,0.00579842832074462,1.000808728160525
1677618687796099,0.1255512321660186,0.006286717021438903,0.9994659342336156
1677618687812087,0.12579537651636574,0.006652933546959616,1.000198367284657
1677618687828075,0.12628366521706003,0.00579842832074462,1.002761882963302
1677618687844062,0.12542915999084503,0.007019150072480329,1.0028839551384756
1677618687860050,0.12603952086671288,0.0071412222476539,1.0004425116350042
1677618687876038,0.12445258258945557,0.007385366598001042,1.000808728160525
1677618687892026,0.12530708781567146,0.0036011291676203427,0.9992217898832685
1677618687908020,0.12567330434119217,0.005920500495918191,1.0028839551384756
1677618687924008,0.12494087129014986,0.007019150072480329,1.0014190890363928
1677618687939995,0.12603952086671288,0.005554283970397478,0.9995880064087892
1677618687955983,0.12457465476462914,0.006286717021438903,0.9993438620584421
1677618687971971,0.12603952086671288,0.006408789196612474,1.002517738612955
1677618687987959,0.12530708781567146,0.006286717021438903,0.9997100785839628
1677618688003947,0.12481879911497629,0.007263294422827471,1.001052872510872
1677618688019935,0.124330510414282,0.005432211795223907,1.0004425116350042
1677618688035923,0.12445258258945557,0.005310139620050336,1.0017853055619135
1677618688051911,0.12481879911497629,0.005432211795223907,1.0021515220874342
1677618688067898,0.1255512321660186,0.005554283970397478,1.0011749446860456
1677618688083886,0.12530708781567146,0.0060425726710917615,0.9995880064087892
1677618688099874,0.12530708781567146,0.0061646448462653325,1.0005645838101778
1677618688115862,0.1259174486915393,0.007995727473868897,1.0011749446860456
1677618688131850,0.12530708781567146,0.006530861371786045,1.0003204394598306
1677618688147838,0.1255512321660186,0.0061646448462653325,1.000808728160525
1677618688163826,0.12445258258945557,0.005554283970397478,1.0006866559853513
1677618688179813,0.12408636606393486,0.0061646448462653325,1.0021515220874342
1677618688195801,0.12530708781567146,0.006286717021438903,1.0023956664377813
1677618688211789,0.12542915999084503,0.004333562218661768,0.9994659342336156
1677618688227722,0.12542915999084503,0.007385366598001042,1.001052872510872
1677618688243710,0.12445258258945557,0.0071412222476539,1.0017853055619135
1677618688259698,0.124330510414282,0.0071412222476539,1.0003204394598306
1677618688275685,0.124330510414282,0.008117799649042468,1.0022735942626078
1677618688291673,0.12420843823910843,0.007263294422827471,1.0005645838101778
1677618688307661,0.12457465476462914,0.006775005722133187,1.0005645838101778
1677618688323649,0.12408636606393486,0.005310139620050336,1.0006866559853513
1677618688339637,0.12494087129014986,0.007385366598001042,0.9992217898832685
1677618688355625,0.12469672693980272,0.0061646448462653325,1.0009308003356985
1677618688371613,0.1251850156404979,0.005554283970397478,1.0005645838101778
1677618688387601,0.12542915999084503,0.006286717021438903,1.0014190890363928
1677618688403588,0.12567330434119217,0.006775005722133187,1.0017853055619135
1677618688419576,0.12628366521706003,0.007507438773174613,1.002517738612955
1677618688435564,0.124330510414282,0.005554283970397478,0.9993438620584421
1677618688451552,0.1255512321660186,0.007019150072480329,1.000808728160525
1677618688467540,0.12567330434119217,0.007263294422827471,1.0023956664377813
1677618688483528,0.12481879911497629,0.006775005722133187,1.0022735942626078
1677618688499516,0.1264057373922336,0.006408789196612474,1.000808728160525
1677618688515504,0.12469672693980272,0.006286717021438903,0.9984893568322271
1677618688531491,0.1251850156404979,0.006530861371786045,1.0000762951094835
1677618688547485,0.12457465476462914,0.0060425726710917615,0.9982452124818799
1677618688563473,0.12469672693980272,0.005676356145571049,1.0011749446860456
1677618688579461,0.124330510414282,0.005920500495918191,0.9981231403067063
1677618688595449,0.12359807736324058,0.005432211795223907,0.9999542229343099
1677618688611436,0.1264057373922336,0.006408789196612474,1.0004425116350042
1677618688627424,0.1251850156404979,0.0061646448462653325,1.001052872510872
1677618688643412,0.124330510414282,0.0060425726710917615,1.0017853055619135
1677618688659400,0.12738231479362216,0.006286717021438903,1.0011749446860456
1677618688675388,0.1251850156404979,0.006652933546959616,0.9998321507591363
1677618688691376,0.1251850156404979,0.00579842832074462,1.002761882963302
1677618688707364,0.12469672693980272,0.007385366598001042,1.001052872510872
1677618688723352,0.12579537651636574,0.005920500495918191,0.9993438620584421
1677618688739339,0.12542915999084503,0.006408789196612474,1.00166323338674
1677618688755327,0.12603952086671288,0.0060425726710917615,1.0005645838101778
1677618688771315,0.124330510414282,0.00579842832074462,0.9984893568322271
1677618688787303,0.12469672693980272,0.005920500495918191,0.9998321507591363
1677618688803291,0.12481879911497629,0.005920500495918191,1.0005645838101778
1677618688819279,0.12420843823910843,0.0060425726710917615,1.0012970168612192
1677618688835267,0.1259174486915393,0.005432211795223907,0.9994659342336156
1677618688851255,0.124330510414282,0.006897077897306758,0.9999542229343099
1677618688867248,0.12457465476462914,0.005065995269703194,0.9993438620584421
1677618688883236,0.12689402609292788,0.004943923094529623,1.00337224383917
1677618688899224,0.12469672693980272,0.006530861371786045,1.0023956664377813
1677618688915212,0.12542915999084503,0.0061646448462653325,0.9978789959563592
1677618688931200,0.12372014953841415,0.007019150072480329,1.0020294499122606
1677618688947188,0.12359807736324058,0.007019150072480329,1.0014190890363928
1677618688963175,0.12567330434119217,0.005432211795223907,0.9998321507591363
1677618688979163,0.12530708781567146,0.005310139620050336,1.0004425116350042
1677618688995151,0.12445258258945557,0.005920500495918191,1.0000762951094835
1677618689011139,0.1251850156404979,0.005676356145571049,1.0017853055619135
1677618689027127,0.12384222171358772,0.006408789196612474,0.9986114290074006
1677618689043115,0.12506294346532432,0.005432211795223907,1.0006866559853513
1677618689059103,0.1264057373922336,0.007019150072480329,0.9999542229343099
1677618689075091,0.12457465476462914,0.005188067444876765,1.0026398107881285
1677618689091078,0.12530708781567146,0.006408789196612474,0.9995880064087892
1677618689107066,0.12396429388876129,0.006775005722133187,1.000198367284657
1677618689123054,0.12372014953841415,0.006897077897306758,1.0012970168612192
1677618689139042,0.12372014953841415,0.007385366598001042,1.0026398107881285
1677618689155030,0.12445258258945557,0.007263294422827471,1.0020294499122606
1677618689171018,0.12469672693980272,0.007019150072480329,1.0003204394598306
1677618689186981,0.12445258258945557,0.006286717021438903,0.9999542229343099
1677618689202969,0.1251850156404979,0.004333562218661768,0.9998321507591363
1677618689218957,0.12372014953841415,0.005920500495918191,1.001907377737087
1677618689234944,0.12408636606393486,0.007263294422827471,1.001052872510872
1677618689250932,0.12469672693980272,0.006286717021438903,1.0003204394598306
1677618689266920,0.12384222171358772,0.00579842832074462,0.9997100785839628
1677618689282908,0.12481879911497629,0.006652933546959616,0.9994659342336156
1677618689298896,0.12494087129014986,0.005188067444876765,1.0006866559853513
1677618689314884,0.12530708781567146,0.006408789196612474,1.0009308003356985
1677618689330872,0.12494087129014986,0.0061646448462653325,1.002761882963302
1677618689346860,0.12457465476462914,0.006408789196612474,1.000198367284657
1677618689362847,0.12481879911497629,0.00579842832074462,1.0005645838101778
1677618689378835,0.1251850156404979,0.005065995269703194,1.0012970168612192
1677618689394823,0.1259174486915393,0.007019150072480329,1.001907377737087
1677618689410811,0.12506294346532432,0.007629510948348184,0.9995880064087892
1677618689426799,0.12542915999084503,0.007019150072480329,0.9989776455329213
1677618689442787,0.1267719539177543,0.004699778744182481,0.9990997177080949
1677618689458775,0.12469672693980272,0.006775005722133187,0.9989776455329213
1677618689474763,0.12359807736324058,0.005920500495918191,1.0028839551384756
1677618689490750,0.12384222171358772,0.005432211795223907,0.9993438620584421
1677618689506744,0.124330510414282,0.005554283970397478,1.0006866559853513
1677618689522732,0.1255512321660186,0.005432211795223907,1.002761882963302
1677618689538720,0.1259174486915393,0.005554283970397478,1.001052872510872
1677618689554708,0.12616159304188646,0.004943923094529623,0.9997100785839628
1677618689570696,0.12494087129014986,0.006775005722133187,1.00166323338674
1677618689586683,0.12567330434119217,0.006408789196612474,1.000808728160525
1677618689602671,0.12603952086671288,0.005065995269703194,1.00166323338674
1677618689618659,0.1255512321660186,0.005676356145571049,0.9995880064087892
1677618689634647,0.12530708781567146,0.0061646448462653325,1.000198367284657
1677618689650635,0.12567330434119217,0.007629510948348184,1.0006866559853513
1677618689666623,0.1264057373922336,0.006408789196612474,1.00166323338674
1677618689682611,0.12506294346532432,0.005676356145571049,0.9999542229343099
1677618689698598,0.12530708781567146,0.006775005722133187,0.9987335011825742
1677618689714586,0.12603952086671288,0.006408789196612474,1.001052872510872
1677618689730574,0.1259174486915393,0.005920500495918191,1.000198367284657
1677618689746562,0.124330510414282,0.004821850919356052,0.9977569237811856
1677618689762550,0.12567330434119217,0.005676356145571049,1.00166323338674
1677618689778538,0.124330510414282,0.005676356145571049,1.0022735942626078
1677618689794526,0.12469672693980272,0.006775005722133187,1.001052872510872
1677618689810514,0.12567330434119217,0.006530861371786045,1.00166323338674
1677618689826507,0.12384222171358772,0.005310139620050336,1.000808728160525
1677618689842495,0.12494087129014986,0.007019150072480329,0.9997100785839628
1677618689858483,0.12628366521706003,0.007019150072480329,1.0014190890363928
1677618689874471,0.12481879911497629,0.006286717021438903,0.9997100785839628
1677618689890459,0.12506294346532432,0.005676356145571049,0.9976348516060121
1677618689906447,0.12396429388876129,0.005920500495918191,1.0009308003356985
1677618689922434,0.12457465476462914,0.006408789196612474,1.00166323338674
1677618689938422,0.12445258258945557,0.006652933546959616,1.0014190890363928
1677618689954410,0.12457465476462914,0.006286717021438903,1.0015411612115663
1677618689970398,0.12628366521706003,0.007019150072480329,0.9995880064087892
1677618689986386,0.1251850156404979,0.006530861371786045,1.0023956664377813
1677618690002374,0.12469672693980272,0.006530861371786045,0.9994659342336156
1677618690018362,0.1255512321660186,0.007019150072480329,1.000808728160525
1677618690034350,0.12469672693980272,0.0060425726710917615,1.0009308003356985
1677618690050337,0.12530708781567146,0.0061646448462653325,1.0020294499122606
1677618690066325,0.12567330434119217,0.006652933546959616,1.0023956664377813
1677618690082313,0.12616159304188646,0.006530861371786045,1.0009308003356985
1677618690098301,0.12408636606393486,0.005310139620050336,0.9976348516060121
1677618690114289,0.12506294346532432,0.005310139620050336,1.0043488212405585
1677618690130277,0.12542915999084503,0.006530861371786045,1.0030060273136492
1677618690146270,0.12579537651636574,0.0060425726710917615,1.0004425116350042
1677618690162258,0.12445258258945557,0.006897077897306758,1.0028839551384756
1677618690178246,0.12506294346532432,0.006408789196612474,1.0014190890363928
1677618690194234,0.1251850156404979,0.007629510948348184,1.0004425116350042
1677618690210222,0.12469672693980272,0.005554283970397478,0.9986114290074006
1677618690226210,0.12469672693980272,0.00457770656900891,1.000198367284657
1677618690242198,0.1267719539177543,0.005554283970397478,1.0003204394598306
1677618690258185,0.1259174486915393,0.004699778744182481,1.0004425116350042
1677618690274173,0.12542915999084503,0.006897077897306758,0.9965362020294499
1677618690290161,0.12542915999084503,0.0061646448462653325,0.9977569237811856
1677618690306149,0.12567330434119217,0.0061646448462653325,0.9994659342336156
1677618690322137,0.12494087129014986,0.0061646448462653325,1.001052872510872
1677618690338125,0.1251850156404979,0.005920500495918191,0.9998321507591363
1677618690354113,0.12628366521706003,0.005920500495918191,0.9986114290074006
1677618690370101,0.12420843823910843,0.005432211795223907,1.0015411612115663
1677618690386088,0.12457465476462914,0.005065995269703194,1.001907377737087
1677618690402076,0.12396429388876129,0.00579842832074462,1.0014190890363928
1677618690418064,0.12372014953841415,0.005920500495918191,1.0000762951094835
1677618690434052,0.12420843823910843,0.005554283970397478,1.0004425116350042
1677618690450040,0.12384222171358772,0.005554283970397478,0.9999542229343099
1677618690466003,0.1255512321660186,0.005432211795223907,1.000198367284657
1677618690481991,0.12469672693980272,0.006286717021438903,1.0028839551384756
1677618690497979,0.12567330434119217,0.0061646448462653325,1.0009308003356985
1677618690513967,0.12506294346532432,0.005432211795223907,1.00166323338674
1677618690529955,0.12616159304188646,0.004943923094529623,0.9987335011825742
1677618690545942,0.12359807736324058,0.005432211795223907,1.0005645838101778
1677618690561930,0.1251850156404979,0.006286717021438903,1.000198367284657
1677618690577918,0.12457465476462914,0.006652933546959616,1.0014190890363928
1677618690593906,0.12396429388876129,0.0060425726710917615,1.00166323338674
1677618690609894,0.12530708781567146,0.005920500495918191,1.0006866559853513
1677618690625882,0.1255512321660186,0.006530861371786045,1.00166323338674
1677618690641870,0.12579537651636574,0.007019150072480329,1.0005645838101778
1677618690657858,0.1255512321660186,0.006897077897306758,1.0011749446860456
1677618690673845,0.12567330434119217,0.005676356145571049,1.0009308003356985
1677618690689833,0.1264057373922336,0.006286717021438903,1.0020294499122606
1677618690705821,0.124330510414282,0.0061646448462653325,1.0003204394598306
1677618690721809,0.124330510414282,0.006286717021438903,1.0000762951094835
1677618690737797,0.12530708781567146,0.00457770656900891,0.9987335011825742
1677618690753785,0.12616159304188646,0.005676356145571049,0.9999542229343099
1677618690769773,0.12628366521706003,0.006775005722133187,1.0006866559853513
1677618690785736,0.12530708781567146,0.006775005722133187,1.001907377737087
1677618690801723,0.12469672693980272,0.006408789196612474,0.9999542229343099
1677618690817711,0.1255512321660186,0.005920500495918191,0.9998321507591363
1677618690833698,0.12457465476462914,0.005432211795223907,0.9992217898832685
1677618690849685,0.12530708781567146,0.006530861371786045,0.9982452124818799
1677618690865673,0.1272602426184486,0.007507438773174613,1.0015411612115663
1677618690881660,0.12603952086671288,0.005920500495918191,1.000808728160525
1677618690897647,0.12603952086671288,0.006652933546959616,1.0011749446860456
1677618690913635,0.12652780956740717,0.00579842832074462,0.9997100785839628
1677618690929622,0.1251850156404979,0.0061646448462653325,1.0015411612115663
1677618690945610,0.12579537651636574,0.005065995269703194,0.9998321507591363
1677618690961597,0.1251850156404979,0.0060425726710917615,0.9992217898832685
1677618690977584,0.12506294346532432,0.006408789196612474,0.9994659342336156
1677618690993572,0.1264057373922336,0.006775005722133187,1.0014190890363928
1677618691009559,0.12494087129014986,0.005554283970397478,1.0005645838101778
1677618691025547,0.12469672693980272,0.00836194399938961,1.0021515220874342
1677618691041534,0.12530708781567146,0.007019150072480329,0.9986114290074006
1677618691057521,0.12567330434119217,0.007385366598001042,1.001052872510872
1677618691073509,0.1264057373922336,0.006775005722133187,1.001052872510872
1677618691089496,0.1255512321660186,0.006408789196612474,1.00166323338674
1677618691105499,0.124330510414282,0.006652933546959616,1.0009308003356985
1677618691121487,0.1231097886625463,0.005188067444876765,0.9994659342336156
1677618691137475,0.12542915999084503,0.005188067444876765,1.0015411612115663
1677618691153463,0.12542915999084503,0.004943923094529623,1.0014190890363928
1677618691169450,0.12420843823910843,0.005065995269703194,1.0006866559853513
1677618691185438,0.12457465476462914,0.007385366598001042,1.0009308003356985
1677618691201426,0.124330510414282,0.007385366598001042,1.0011749446860456
1677618691217414,0.12530708781567146,0.005554283970397478,1.000808728160525
1677618691233402,0.12408636606393486,0.006408789196612474,0.9997100785839628
1677618691249390,0.1255512321660186,0.0060425726710917615,1.00166323338674
1677618691265378,0.12469672693980272,0.005310139620050336,1.0012970168612192
1677618691281365,0.12408636606393486,0.005188067444876765,0.9997100785839628
1677618691297353,0.1255512321660186,0.005188067444876765,0.9994659342336156
1677618691313341,0.12469672693980272,0.007873655298695326,0.9997100785839628
1677618691329329,0.12603952086671288,0.006897077897306758,1.0000762951094835
1677618691345317,0.12494087129014986,0.007019150072480329,1.00166323338674
1677618691361305,0.1255512321660186,0.0071412222476539,0.9975127794308385
1677618691377293,0.1259174486915393,0.005432211795223907,0.9999542229343099
1677618691393281,0.12335393301289344,0.0060425726710917615,1.0032501716639963
1677618691409268,0.124330510414282,0.007019150072480329,1.000198367284657
1677618691425262,0.12457465476462914,0.006530861371786045,1.0000762951094835
1677618691441250,0.12530708781567146,0.0061646448462653325,0.9984893568322271
1677618691457238,0.12408636606393486,0.005554283970397478,0.9987335011825742
1677618691473226,0.12396429388876129,0.006408789196612474,0.9999542229343099
1677618691489214,0.123476005188067,0.00579842832074462,0.9995880064087892
1677618691505201,0.1251850156404979,0.004455634393835339,1.000808728160525
1677618691521189,0.12469672693980272,0.006530861371786045,1.00166323338674
1677618691537177,0.12420843823910843,0.006408789196612474,1.0017853055619135
1677618691553165,0.12359807736324058,0.005188067444876765,0.9982452124818799
1677618691569153,0.12542915999084503,0.005920500495918191,0.9998321507591363
1677618691585141,0.12567330434119217,0.0071412222476539,1.0028839551384756
1677618691601129,0.12481879911497629,0.007507438773174613,1.0009308003356985
1677618691617117,0.12420843823910843,0.0071412222476539,0.9999542229343099
1677618691633104,0.12567330434119217,0.006286717021438903,0.9987335011825742
1677618691649092,0.12494087129014986,0.0071412222476539,1.0012970168612192
1677618691665080,0.12579537651636574,0.005554283970397478,1.0005645838101778
1677618691681068,0.124330510414282,0.005188067444876765,0.9995880064087892
1677618691697056,0.12542915999084503,0.005432211795223907,1.0021515220874342
1677618691713044,0.1251850156404979,0.005676356145571049,0.9997100785839628
1677618691729032,0.12506294346532432,0.007385366598001042,1.0023956664377813
1677618691744995,0.12396429388876129,0.00579842832074462,1.0026398107881285
1677618691760982,0.12420843823910843,0.007019150072480329,1.0020294499122606
1677618691776970,0.12408636606393486,0.006408789196612474,0.9994659342336156
1677618691792957,0.12396429388876129,0.005188067444876765,1.0014190890363928
1677618691808944,0.12457465476462914,0.004943923094529623,1.0004425116350042
1677618691824932,0.12384222171358772,0.005188067444876765,1.0000762951094835
1677618691840919,0.12506294346532432,0.00579842832074462,1.001907377737087
1677618691856907,0.1267719539177543,0.007019150072480329,1.0012970168612192
1677618691872894,0.12494087129014986,0.006897077897306758,1.000808728160525
1677618691888881,0.12542915999084503,0.006530861371786045,0.9997100785839628
1677618691904869,0.12567330434119217,0.006408789196612474,1.0012970168612192
1677618691920856,0.12420843823910843,0.007995727473868897,1.002517738612955
1677618691936843,0.124330510414282,0.007019150072480329,1.000808728160525
1677618691952831,0.12469672693980272,0.005676356145571049,0.9990997177080949
1677618691968818,0.12494087129014986,0.006897077897306758,1.000198367284657
1677618691984806,0.12445258258945557,0.005065995269703194,1.0006866559853513
1677618692000793,0.12579537651636574,0.007019150072480329,1.000198367284657
1677618692016780,0.1259174486915393,0.006408789196612474,1.0028839551384756
1677618692032768,0.12567330434119217,0.006286717021438903,1.0015411612115663
1677618692048755,0.1255512321660186,0.006775005722133187,1.0021515220874342
1677618692064758,0.12445258258945557,0.006286717021438903,1.0005645838101778
1677618692080745,0.12372014953841415,0.0060425726710917615,0.9977569237811856
1677618692096733,0.1255512321660186,0.007019150072480329,1.0003204394598306
1677618692112720,0.12530708781567146,0.007263294422827471,1.00166323338674
1677618692128708,0.12457465476462914,0.005310139620050336,1.0017853055619135
1677618692144695,0.12372014953841415,0.006530861371786045,1.0005645838101778
1677618692160682,0.1255512321660186,0.005310139620050336,1.000808728160525
1677618692176670,0.12616159304188646,0.005310139620050336,1.0000762951094835
1677618692192657,0.1259174486915393,0.005554283970397478,1.0003204394598306
1677618692208644,0.12506294346532432,0.005432211795223907,1.0012970168612192
1677618692224632,0.12542915999084503,0.005554283970397478,1.0005645838101778
1677618692240619,0.12457465476462914,0.00579842832074462,1.0022735942626078
1677618692256607,0.12408636606393486,0.0060425726710917615,1.0003204394598306
1677618692272594,0.12494087129014986,0.006530861371786045,0.9998321507591363
1677618692288581,0.12506294346532432,0.005432211795223907,1.0014190890363928
1677618692304569,0.12494087129014986,0.006286717021438903,1.0020294499122606
1677618692320556,0.12664988174258074,0.00579842832074462,0.9976348516060121
1677618692336544,0.12530708781567146,0.007385366598001042,1.002517738612955
1677618692352531,0.12408636606393486,0.006408789196612474,0.9995880064087892
1677618692368518,0.12530708781567146,0.005188067444876765,1.0026398107881285
1677618692384521,0.12445258258945557,0.004333562218661768,1.0012970168612192
1677618692400509,0.12628366521706003,0.005065995269703194,1.0012970168612192
1677618692416497,0.12567330434119217,0.00579842832074462,1.00166323338674
1677618692432485,0.12579537651636574,0.005676356145571049,0.9989776455329213
1677618692448473,0.1255512321660186,0.006408789196612474,1.0011749446860456
1677618692464460,0.1259174486915393,0.0071412222476539,1.002517738612955
1677618692480448,0.124330510414282,0.0071412222476539,1.000198367284657
1677618692496436,0.12384222171358772,0.006286717021438903,1.001052872510872
1677618692512424,0.12372014953841415,0.005920500495918191,1.0000762951094835
1677618692528412,0.12384222171358772,0.006408789196612474,0.9992217898832685
1677618692544400,0.12542915999084503,0.006286717021438903,0.9986114290074006
1677618692560388,0.12494087129014986,0.0060425726710917615,0.9993438620584421
1677618692576376,0.12420843823910843,0.006775005722133187,0.9987335011825742
1677618692592363,0.124330510414282,0.00579842832074462,0.9990997177080949
1677618692608351,0.12469672693980272,0.00579842832074462,1.0021515220874342
1677618692624339,0.1255512321660186,0.0060425726710917615,1.0005645838101778
1677618692640327,0.12396429388876129,0.0061646448462653325,1.00166323338674
1677618692656315,0.12420843823910843,0.006530861371786045,1.0004425116350042
1677618692672303,0.1255512321660186,0.00579842832074462,1.000808728160525
1677618692688291,0.12530708781567146,0.006652933546959616,1.0009308003356985
1677618692704284,0.1251850156404979,0.0060425726710917615,1.0000762951094835
1677618692720272,0.12494087129014986,0.007507438773174613,1.000808728160525
1677618692736260,0.12420843823910843,0.0061646448462653325,0.9995880064087892
1677618692752248,0.12567330434119217,0.006286717021438903,1.0014190890363928
1677618692768236,0.1251850156404979,0.006530861371786045,0.9986114290074006
1677618692784224,0.12603952086671288,0.0060425726710917615,0.9990997177080949
1677618692800212,0.12603952086671288,0.005432211795223907,1.0009308003356985
1677618692816199,0.12603952086671288,0.005554283970397478,0.9990997177080949
1677618692832187,0.124330510414282,0.006652933546959616,1.0009308003356985
1677618692848175,0.12408636606393486,0.004943923094529623,1.000808728160525
1677618692864163,0.12323186083771986,0.005676356145571049,1.00166323338674
1677618692880151,0.12530708781567146,0.00579842832074462,1.0006866559853513
1677618692896139,0.1255512321660186,0.005432211795223907,1.00166323338674
1677618692912127,0.12603952086671288,0.0036011291676203427,1.001907377737087
1677618692928115,0.12481879911497629,0.005432211795223907,1.0021515220874342
1677618692944102,0.12530708781567146,0.007507438773174613,1.0026398107881285
1677618692960090,0.1251850156404979,0.007263294422827471,1.0015411612115663
1677618692976078,0.12616159304188646,0.007751583123521755,1.000198367284657
1677618692992066,0.12542915999084503,0.005676356145571049,0.9995880064087892
1677618693008054,0.12506294346532432,0.006652933546959616,1.0003204394598306
1677618693023986,0.12481879911497629,0.005554283970397478,1.0005645838101778
1677618693039974,0.12530708781567146,0.007263294422827471,0.9997100785839628
1677618693055961,0.1255512321660186,0.006286717021438903,1.0003204394598306
1677618693071949,0.12457465476462914,0.006897077897306758,1.0006866559853513
1677618693087936,0.12542915999084503,0.007751583123521755,0.9993438620584421
1677618693103923,0.12420843823910843,0.00457770656900891,0.9993438620584421
1677618693119911,0.12481879911497629,0.0060425726710917615,1.0015411612115663
1677618693135898,0.12530708781567146,0.006408789196612474,1.002761882963302
1677618693151886,0.124330510414282,0.006408789196612474,1.003616388189517
1677618693167873,0.12506294346532432,0.006408789196612474,0.9997100785839628
1677618693183860,0.12481879911497629,0.006897077897306758,1.0003204394598306
1677618693199848,0.12469672693980272,0.008117799649042468,1.0026398107881285
1677618693215835,0.12494087129014986,0.0061646448462653325,1.0005645838101778
1677618693231823,0.12628366521706003,0.005920500495918191,1.001052872510872
1677618693247810,0.12530708781567146,0.005920500495918191,0.9984893568322271
1677618693263797,0.12445258258945557,0.005310139620050336,1.0009308003356985
1677618693279785,0.12359807736324058,0.0061646448462653325,1.002761882963302
1677618693295772,0.12457465476462914,0.00457770656900891,1.000198367284657
1677618693311760,0.12481879911497629,0.005065995269703194,1.000808728160525
1677618693327747,0.12420843823910843,0.005920500495918191,1.000808728160525
1677618693343750,0.12603952086671288,0.0060425726710917615,1.00166323338674
1677618693359737,0.12457465476462914,0.005554283970397478,0.9998321507591363
1677618693375724,0.12567330434119217,0.006408789196612474,0.9995880064087892
1677618693391712,0.12530708781567146,0.0060425726710917615,1.0015411612115663
1677618693407699,0.124330510414282,0.006775005722133187,1.0020294499122606
1677618693423687,0.12579537651636574,0.006775005722133187,0.9986114290074006
1677618693439674,0.1251850156404979,0.0061646448462653325,0.9994659342336156
1677618693455661,0.12335393301289344,0.007019150072480329,0.9987335011825742
1677618693471649,0.12445258258945557,0.005310139620050336,1.0003204394598306
1677618693487636,0.1255512321660186,0.0061646448462653325,1.0022735942626078
1677618693503624,0.1251850156404979,0.006530861371786045,1.0005645838101778
1677618693519611,0.124330510414282,0.005065995269703194,0.9992217898832685
1677618693535598,0.12457465476462914,0.004821850919356052,1.0009308003356985
1677618693551586,0.1259174486915393,0.006286717021438903,0.9989776455329213
1677618693567573,0.12469672693980272,0.004699778744182481,0.9995880064087892
1677618693583561,0.1255512321660186,0.007263294422827471,1.0005645838101778
1677618693599548,0.12420843823910843,0.007507438773174613,1.000808728160525
1677618693615535,0.12384222171358772,0.007019150072480329,0.9988555733577478
1677618693631523,0.12567330434119217,0.0060425726710917615,1.0011749446860456
1677618693647510,0.1255512321660186,0.006530861371786045,1.000198367284657
1677618693663513,0.1251850156404979,0.005920500495918191,1.001907377737087
1677618693679500,0.12506294346532432,0.006530861371786045,1.000808728160525
1677618693695488,0.12530708781567146,0.006897077897306758,0.9997100785839628
1677618693711475,0.12481879911497629,0.007385366598001042,1.0005645838101778
1677618693727462,0.12494087129014986,0.005065995269703194,0.9998321507591363
1677618693743450,0.12457465476462914,0.006286717021438903,1.0017853055619135
1677618693759437,0.124330510414282,0.0060425726710917615,1.0021515220874342
1677618693775425,0.12469672693980272,0.005920500495918191,0.9995880064087892
1677618693791412,0.12396429388876129,0.0060425726710917615,1.0012970168612192
1677618693807399,0.12494087129014986,0.006530861371786045,1.0006866559853513
1677618693823387,0.12494087129014986,0.006775005722133187,1.0000762951094835
1677618693839374,0.1251850156404979,0.0061646448462653325,0.9989776455329213
1677618693855362,0.12457465476462914,0.0060425726710917615,1.0005645838101778
1677618693871349,0.12469672693980272,0.006897077897306758,1.000808728160525
1677618693887336,0.12530708781567146,0.005676356145571049,0.9971465629053178
1677618693903324,0.12494087129014986,0.005554283970397478,1.000198367284657
1677618693919311,0.12530708781567146,0.0061646448462653325,1.000198367284657
1677618693935299,0.12530708781567146,0.007263294422827471,1.0020294499122606
1677618693951286,0.12481879911497629,0.006775005722133187,1.0017853055619135
1677618693967273,0.12494087129014986,0.006775005722133187,1.0028839551384756
1677618693983276,0.12372014953841415,0.006408789196612474,1.0021515220874342
1677618693999263,0.12396429388876129,0.006530861371786045,1.0003204394598306
1677618694015251,0.12469672693980272,0.007385366598001042,1.0012970168612192
1677618694031238,0.12494087129014986,0.0061646448462653325,0.9982452124818799
1677618694047226,0.12530708781567146,0.006408789196612474,0.9998321507591363
1677618694063213,0.12298771648737272,0.005554283970397478,0.9998321507591363
1677618694079200,0.123476005188067,0.006530861371786045,1.0014190890363928
1677618694095188,0.12530708781567146,0.006408789196612474,1.0011749446860456
1677618694111175,0.12506294346532432,0.005432211795223907,1.00337224383917
1677618694127163,0.12469672693980272,0.005554283970397478,1.0004425116350042
1677618694143150,0.12469672693980272,0.007751583123521755,0.9984893568322271
1677618694159137,0.12396429388876129,0.00579842832074462,1.000808728160525
1677618694175125,0.124330510414282,0.005676356145571049,1.0026398107881285
1677618694191112,0.124330510414282,0.007019150072480329,0.9992217898832685
1677618694207100,0.1259174486915393,0.005188067444876765,1.001052872510872
1677618694223087,0.12408636606393486,0.0061646448462653325,0.9998321507591363
1677618694239074,0.12420843823910843,0.006408789196612474,0.9995880064087892
1677618694255062,0.12420843823910843,0.006530861371786045,1.000198367284657
1677618694271049,0.12567330434119217,0.007629510948348184,0.9997100785839628
1677618694287037,0.12469672693980272,0.007507438773174613,1.000808728160525
1677618694303009,0.12445258258945557,0.006408789196612474,0.9983672846570535
1677618694318996,0.12506294346532432,0.005920500495918191,1.0005645838101778
1677618694334983,0.12359807736324058,0.004943923094529623,0.9984893568322271
1677618694350971,0.1255512321660186,0.0061646448462653325,0.9990997177080949
1677618694366958,0.1251850156404979,0.006897077897306758,1.0026398107881285
1677618694382946,0.12530708781567146,0.006897077897306758,0.9993438620584421
1677618694398933,0.1255512321660186,0.006897077897306758,0.9993438620584421
1677618694414920,0.12445258258945557,0.006286717021438903,1.000198367284657
1677618694430908,0.12567330434119217,0.006897077897306758,1.0043488212405585
1677618694446895,0.1251850156404979,0.00579842832074462,0.9990997177080949
1677618694462883,0.12408636606393486,0.00579842832074462,1.00166323338674
1677618694478870,0.12652780956740717,0.006408789196612474,1.0011749446860456
1677618694494857,0.12603952086671288,0.004821850919356052,1.0011749446860456
1677618694510845,0.12457465476462914,0.006775005722133187,1.0011749446860456
1677618694526832,0.12445258258945557,0.0060425726710917615,1.001052872510872
1677618694542820,0.12335393301289344,0.006286717021438903,1.000808728160525
1677618694558807,0.12481879911497629,0.005676356145571049,1.0012970168612192
1677618694574794,0.1255512321660186,0.006530861371786045,1.0009308003356985
1677618694590782,0.1259174486915393,0.006775005722133187,1.0014190890363928
1677618694606769,0.12506294346532432,0.0061646448462653325,0.9984893568322271
1677618694622772,0.12469672693980272,0.005188067444876765,1.0015411612115663
1677618694638759,0.12542915999084503,0.0071412222476539,1.0009308003356985
1677618694654747,0.12469672693980272,0.004821850919356052,1.0022735942626078
1677618694670734,0.1255512321660186,0.0060425726710917615,1.000808728160525
1677618694686721,0.12494087129014986,0.006652933546959616,1.000808728160525
1677618694702709,0.12494087129014986,0.007507438773174613,1.002761882963302
1677618694718696,0.12542915999084503,0.005920500495918191,0.9987335011825742
1677618694734684,0.12408636606393486,0.006530861371786045,0.9999542229343099
1677618694750671,0.12469672693980272,0.0071412222476539,1.00166323338674
1677618694766658,0.12396429388876129,0.005065995269703194,1.0004425116350042
1677618694782646,0.12506294346532432,0.005676356145571049,1.0009308003356985
1677618694798633,0.12506294346532432,0.006897077897306758,1.0005645838101778
1677618694814621,0.12469672693980272,0.006530861371786045,0.9969024185549706
1677618694830608,0.12481879911497629,0.007263294422827471,0.9992217898832685
1677618694846595,0.12469672693980272,0.0061646448462653325,0.9987335011825742
1677618694862583,0.12372014953841415,0.007019150072480329,0.9998321507591363
1677618694878570,0.12506294346532432,0.0060425726710917615,0.9994659342336156
1677618694894558,0.12384222171358772,0.005676356145571049,1.0015411612115663
1677618694910545,0.12396429388876129,0.0071412222476539,0.9999542229343099
1677618694926532,0.12457465476462914,0.005310139620050336,0.9983672846570535
1677618694942535,0.12567330434119217,0.005676356145571049,1.0015411612115663
1677618694958522,0.12481879911497629,0.006408789196612474,1.0023956664377813
1677618694974510,0.12567330434119217,0.0071412222476539,0.9997100785839628
1677618694990497,0.1259174486915393,0.005676356145571049,1.0000762951094835
1677618695006485,0.12469672693980272,0.005188067444876765,1.0021515220874342
1677618695022472,0.1251850156404979,0.006286717021438903,1.002517738612955
1677618695038459,0.12445258258945557,0.006775005722133187,0.9999542229343099
1677618695054447,0.12445258258945557,0.006897077897306758,0.9988555733577478
1677618695070434,0.12420843823910843,0.005920500495918191,1.001052872510872
1677618695086422,0.12494087129014986,0.006408789196612474,1.0014190890363928
1677618695102409,0.1255512321660186,0.006897077897306758,1.0023956664377813
1677618695118396,0.12481879911497629,0.0061646448462653325,1.0012970168612192
1677618695134384,0.124330510414282,0.006897077897306758,1.0006866559853513
1677618695150371,0.12445258258945557,0.006286717021438903,1.0031280994888228
1677618695166359,0.12481879911497629,0.006286717021438903,1.0011749446860456
1677618695182346,0.1251850156404979,0.005920500495918191,0.9982452124818799
1677618695198333,0.12506294346532432,0.004821850919356052,0.9992217898832685
1677618695214321,0.12530708781567146,0.0042114900434881974,1.0011749446860456
1677618695230308,0.12396429388876129,0.006530861371786045,1.002761882963302
1677618695246296,0.12494087129014986,0.005920500495918191,0.9993438620584421
1677618695262298,0.12335393301289344,0.006775005722133187,1.0015411612115663
1677618695278286,0.12420843823910843,0.004943923094529623,1.0021515220874342
1677618695294273,0.12481879911497629,0.005920500495918191,1.002517738612955
1677618695310260,0.1251850156404979,0.006897077897306758,0.9999542229343099
1677618695326248,0.12579537651636574,0.006775005722133187,1.0017853055619135
1677618695342235,0.1259174486915393,0.005310139620050336,1.0014190890363928
1677618695358223,0.123476005188067,0.004821850919356052,0.9993438620584421
1677618695374210,0.12457465476462914,0.006530861371786045,1.0005645838101778
1677618695390197,0.12469672693980272,0.004699778744182481,1.001907377737087
1677618695406185,0.12494087129014986,0.006775005722133187,1.0028839551384756
1677618695422172,0.12457465476462914,0.005432211795223907,1.000198367284657
1677618695438160,0.12408636606393486,0.005310139620050336,1.0030060273136492
1677618695454147,0.12323186083771986,0.005676356145571049,1.000808728160525
1677618695470134,0.12396429388876129,0.006408789196612474,1.0012970168612192
1677618695486122,0.12530708781567146,0.0060425726710917615,1.0006866559853513
1677618695502109,0.12530708781567146,0.00579842832074462,1.001052872510872
1677618695518097,0.12323186083771986,0.005676356145571049,0.9994659342336156
1677618695534084,0.12408636606393486,0.0061646448462653325,1.000198367284657
1677618695550071,0.12506294346532432,0.006530861371786045,1.0021515220874342
1677618695566059,0.124330510414282,0.006408789196612474,1.001907377737087
1677618695582031,0.12359807736324058,0.007385366598001042,1.0003204394598306
1677618695598018,0.12408636606393486,0.005676356145571049,1.0000762951094835
1677618695614006,0.12396429388876129,0.005920500495918191,1.0009308003356985
1677618695629993,0.12408636606393486,0.005920500495918191,1.0009308003356985
1677618695645980,0.12445258258945557,0.005554283970397478,1.0030060273136492
1677618695661968,0.12469672693980272,0.005554283970397478,1.0021515220874342
1677618695677955,0.12420843823910843,0.007263294422827471,1.0006866559853513
1677618695693943,0.12420843823910843,0.005920500495918191,1.0017853055619135
1677618695709930,0.12506294346532432,0.007263294422827471,1.0009308003356985
1677618695725917,0.1259174486915393,0.006530861371786045,1.0030060273136492
1677618695741905,0.12542915999084503,0.004943923094529623,1.000808728160525
1677618695757892,0.12494087129014986,0.0061646448462653325,1.0017853055619135
1677618695773880,0.12445258258945557,0.005554283970397478,1.0005645838101778
1677618695789867,0.12384222171358772,0.005920500495918191,1.0020294499122606
1677618695805854,0.12445258258945557,0.006530861371786045,1.0017853055619135
1677618695821842,0.12494087129014986,0.006652933546959616,1.0012970168612192
1677618695837829,0.12616159304188646,0.005676356145571049,1.0009308003356985
1677618695853817,0.1251850156404979,0.005676356145571049,1.001907377737087
1677618695869804,0.1259174486915393,0.004943923094529623,1.00337224383917
1677618695885791,0.12542915999084503,0.006652933546959616,1.0004425116350042
1677618695901794,0.12396429388876129,0.007751583123521755,0.9984893568322271
1677618695917781,0.12457465476462914,0.0061646448462653325,1.0004425116350042
1677618695933769,0.12481879911497629,0.007507438773174613,1.0017853055619135
1677618695949756,0.12530708781567146,0.0071412222476539,0.9999542229343099
1677618695965744,0.12506294346532432,0.006408789196612474,1.001052872510872
1677618695981731,0.1255512321660186,0.007385366598001042,1.002517738612955
1677618695997718,0.12469672693980272,0.005554283970397478,1.0015411612115663
1677618696013706,0.1255512321660186,0.0061646448462653325,1.000808728160525
1677618696029693,0.1251850156404979,0.006530861371786045,1.0012970168612192
1677618696045681,0.12542915999084503,0.005310139620050336,1.0021515220874342
1677618696061668,0.12567330434119217,0.006408789196612474,0.9997100785839628
1677618696077655,0.12579537651636574,0.006408789196612474,0.9997100785839628
1677618696093643,0.12567330434119217,0.004699778744182481,1.0004425116350042
1677618696109630,0.12567330434119217,0.006286717021438903,1.0015411612115663
1677618696125618,0.12542915999084503,0.007019150072480329,1.0011749446860456
1677618696141605,0.1251850156404979,0.0060425726710917615,0.9984893568322271
1677618696157592,0.12445258258945557,0.004821850919356052,0.9986114290074006
1677618696173580,0.1251850156404979,0.005554283970397478,1.0031280994888228
1677618696189567,0.12457465476462914,0.006408789196612474,0.9994659342336156
1677618696205555,0.12408636606393486,0.0060425726710917615,0.9998321507591363
1677618696221527,0.124330510414282,0.005676356145571049,0.9977569237811856
1677618696237514,0.1259174486915393,0.0060425726710917615,1.0009308003356985
1677618696253502,0.12616159304188646,0.006652933546959616,1.0009308003356985
1677618696269489,0.1251850156404979,0.005188067444876765,1.000198367284657
1677618696285476,0.12494087129014986,0.00579842832074462,0.9984893568322271
1677618696301464,0.12481879911497629,0.005554283970397478,1.0020294499122606
1677618696317451,0.12494087129014986,0.006286717021438903,1.0015411612115663
1677618696333438,0.12384222171358772,0.006286717021438903,0.9995880064087892
1677618696349426,0.12506294346532432,0.005065995269703194,1.00166323338674
1677618696365413,0.124330510414282,0.006286717021438903,1.0011749446860456
1677618696381401,0.12506294346532432,0.005065995269703194,1.000808728160525
1677618696397388,0.12506294346532432,0.005554283970397478,1.0014190890363928
1677618696413375,0.12469672693980272,0.00579842832074462,1.0014190890363928
1677618696429363,0.124330510414282,0.005920500495918191,1.001907377737087
1677618696445350,0.12445258258945557,0.006408789196612474,1.0020294499122606
1677618696461338,0.1251850156404979,0.005310139620050336,0.9992217898832685
1677618696477325,0.12628366521706003,0.0060425726710917615,0.9992217898832685
1677618696493312,0.124330510414282,0.006286717021438903,1.0014190890363928
1677618696509300,0.12506294346532432,0.004699778744182481,1.0012970168612192
1677618696525287,0.12359807736324058,0.0061646448462653325,1.0014190890363928
1677618696541290,0.12445258258945557,0.005920500495918191,1.001907377737087
1677618696557277,0.124330510414282,0.0061646448462653325,1.002517738612955
1677618696573265,0.124330510414282,0.007385366598001042,1.001052872510872
1677618696589252,0.1251850156404979,0.005920500495918191,1.0003204394598306
1677618696605239,0.12481879911497629,0.00836194399938961,0.9995880064087892
1677618696621227,0.12359807736324058,0.006652933546959616,1.0014190890363928
1677618696637214,0.12616159304188646,0.006286717021438903,1.0006866559853513
1677618696653202,0.12530708781567146,0.00579842832074462,0.9987335011825742
1677618696669189,0.12469672693980272,0.006897077897306758,0.9980010681315328
1677618696685176,0.12359807736324058,0.006897077897306758,1.0004425116350042
1677618696701164,0.12384222171358772,0.006286717021438903,1.001907377737087
1677618696717151,0.1259174486915393,0.006775005722133187,1.000198367284657
1677618696733139,0.12530708781567146,0.00579842832074462,1.002761882963302
1677618696749126,0.12298771648737272,0.006652933546959616,1.0012970168612192
1677618696765113,0.12530708781567146,0.008239871824216038,1.00166323338674
1677618696781101,0.1255512321660186,0.005920500495918191,1.0003204394598306
1677618696797088,0.12494087129014986,0.007385366598001042,1.0020294499122606
1677618696813076,0.12457465476462914,0.0060425726710917615,1.001052872510872
1677618696829063,0.12603952086671288,0.0061646448462653325,1.0004425116350042
1677618696845050,0.12445258258945557,0.006530861371786045,1.0017853055619135
1677618696861053,0.12603952086671288,0.005676356145571049,1.001052872510872
1677618696877040,0.12494087129014986,0.0060425726710917615,1.0003204394598306
1677618696893028,0.12384222171358772,0.006530861371786045,1.0031280994888228
1677618696909015,0.1255512321660186,0.0071412222476539,1.001907377737087
1677618696925003,0.1259174486915393,0.006408789196612474,1.0015411612115663
1677618696940990,0.12494087129014986,0.0061646448462653325,1.001907377737087
1677618696956977,0.12628366521706003,0.006286717021438903,1.0009308003356985
1677618696972965,0.12664988174258074,0.0071412222476539,1.001907377737087
1677618696988952,0.12603952086671288,0.006286717021438903,0.9997100785839628
1677618697004940,0.12603952086671288,0.006652933546959616,1.001052872510872
1677618697020927,0.12530708781567146,0.006775005722133187,1.0034943160143435
1677618697036914,0.1251850156404979,0.00579842832074462,1.0020294499122606
1677618697052902,0.1251850156404979,0.006652933546959616,1.0020294499122606
1677618697068889,0.12481879911497629,0.007019150072480329,1.0000762951094835
1677618697084877,0.12506294346532432,0.0060425726710917615,1.0006866559853513
1677618697100864,0.124330510414282,0.006897077897306758,1.000198367284657
1677618697116851,0.1259174486915393,0.006775005722133187,0.9998321507591363
1677618697132839,0.12445258258945557,0.005432211795223907,1.0011749446860456
1677618697148826,0.1255512321660186,0.005065995269703194,1.0014190890363928
1677618697164814,0.1251850156404979,0.007385366598001042,1.0026398107881285
1677618697180786,0.1251850156404979,0.006286717021438903,0.9987335011825742
1677618697196773,0.12652780956740717,0.005310139620050336,1.0006866559853513
1677618697212761,0.1251850156404979,0.005554283970397478,1.0015411612115663
1677618697228748,0.1251850156404979,0.00579842832074462,1.0005645838101778
1677618697244735,0.12494087129014986,0.005676356145571049,1.0015411612115663
1677618697260723,0.1251850156404979,0.0061646448462653325,1.0009308003356985
1677618697276710,0.12579537651636574,0.004821850919356052,1.0006866559853513
1677618697292698,0.12506294346532432,0.005065995269703194,1.0023956664377813
1677618697308685,0.12481879911497629,0.006775005722133187,0.9992217898832685
1677618697324672,0.12530708781567146,0.005920500495918191,1.0004425116350042
1677618697340660,0.12530708781567146,0.0061646448462653325,1.002517738612955
1677618697356647,0.12542915999084503,0.004699778744182481,1.002761882963302
1677618697372635,0.12506294346532432,0.007385366598001042,0.9998321507591363
1677618697388622,0.12469672693980272,0.005432211795223907,1.0004425116350042
1677618697404609,0.12408636606393486,0.005554283970397478,0.9997100785839628
1677618697420597,0.12372014953841415,0.004943923094529623,0.9999542229343099
1677618697436584,0.12469672693980272,0.007019150072480329,0.9990997177080949
1677618697452571,0.12420843823910843,0.0060425726710917615,1.00166323338674
1677618697468559,0.12530708781567146,0.005554283970397478,1.0011749446860456
1677618697484546,0.1259174486915393,0.005554283970397478,1.0004425116350042
1677618697500549,0.124330510414282,0.006530861371786045,0.9977569237811856
1677618697516536,0.124330510414282,0.005432211795223907,1.0015411612115663
1677618697532524,0.12481879911497629,0.005554283970397478,1.0004425116350042
1677618697548511,0.12420843823910843,0.006775005722133187,1.0003204394598306
1677618697564499,0.12603952086671288,0.006408789196612474,1.000808728160525
1677618697580486,0.12494087129014986,0.006652933546959616,0.9997100785839628
1677618697596473,0.124330510414282,0.004699778744182481,1.0014190890363928
1677618697612461,0.1255512321660186,0.006408789196612474,1.0022735942626078
1677618697628448,0.12579537651636574,0.005554283970397478,1.0012970168612192
1677618697644436,0.12542915999084503,0.006775005722133187,1.000808728160525
1677618697660423,0.12372014953841415,0.007019150072480329,1.0020294499122606
1677618697676410,0.12506294346532432,0.007507438773174613,1.0014190890363928
1677618697692398,0.12494087129014986,0.007751583123521755,1.001052872510872
1677618697708385,0.12567330434119217,0.007873655298695326,0.9999542229343099
1677618697724372,0.12469672693980272,0.0061646448462653325,0.9992217898832685
1677618697740360,0.1259174486915393,0.007995727473868897,1.0009308003356985
1677618697756347,0.12567330434119217,0.00457770656900891,1.0014190890363928
1677618697772335,0.12481879911497629,0.004333562218661768,1.000198367284657
1677618697788322,0.12530708781567146,0.005432211795223907,1.0023956664377813
1677618697804309,0.12567330434119217,0.004699778744182481,1.0004425116350042
1677618697820312,0.12420843823910843,0.005676356145571049,1.0014190890363928
1677618697836300,0.12420843823910843,0.007019150072480329,0.9998321507591363
1677618697852287,0.12396429388876129,0.005676356145571049,1.0004425116350042
1677618697868274,0.12494087129014986,0.007263294422827471,1.0039826047150378
1677618697884262,0.12542915999084503,0.005920500495918191,1.0011749446860456
1677618697900249,0.1264057373922336,0.005310139620050336,0.9993438620584421
1677618697916237,0.1255512321660186,0.0061646448462653325,1.0004425116350042
1677618697932224,0.12542915999084503,0.005554283970397478,1.0005645838101778
1677618697948211,0.12530708781567146,0.005310139620050336,1.0009308003356985
1677618697964199,0.1251850156404979,0.005188067444876765,1.0009308003356985
1677618697980186,0.12506294346532432,0.005432211795223907,1.0004425116350042
1677618697996173,0.12603952086671288,0.006286717021438903,1.0026398107881285
1677618698012161,0.12469672693980272,0.005554283970397478,0.9989776455329213
1677618698028148,0.124330510414282,0.005920500495918191,0.9992217898832685
1677618698044136,0.12445258258945557,0.0037232013427939137,1.001052872510872
1677618698060123,0.12469672693980272,0.005310139620050336,1.0005645838101778
1677618698076110,0.12567330434119217,0.005920500495918191,1.0012970168612192
1677618698092098,0.12445258258945557,0.005310139620050336,0.9995880064087892
1677618698108085,0.12542915999084503,0.006652933546959616,0.9997100785839628
1677618698124073,0.1251850156404979,0.006530861371786045,1.0015411612115663
1677618698140045,0.12457465476462914,0.004943923094529623,0.9986114290074006
1677618698156032,0.12628366521706003,0.005432211795223907,1.0009308003356985
1677618698172020,0.12530708781567146,0.00457770656900891,1.002761882963302
1677618698188007,0.1251850156404979,0.0071412222476539,0.9998321507591363
1677618698203994,0.12530708781567146,0.005310139620050336,0.9988555733577478
1677618698219982,0.12506294346532432,0.006286717021438903,0.9994659342336156
1677618698235969,0.12603952086671288,0.005065995269703194,0.9999542229343099
1677618698251957,0.12628366521706003,0.004943923094529623,1.0005645838101778
1677618698267944,0.12457465476462914,0.0060425726710917615,0.9989776455329213
1677618698283931,0.12652780956740717,0.0071412222476539,1.001907377737087
1677618698299919,0.12396429388876129,0.007263294422827471,0.9984893568322271
1677618698315906,0.12579537651636574,0.004699778744182481,0.9998321507591363
1677618698331894,0.12469672693980272,0.005065995269703194,1.000808728160525
1677618698347881,0.12567330434119217,0.006897077897306758,0.9986114290074006
1677618698363868,0.12628366521706003,0.00457770656900891,1.00166323338674
1677618698379856,0.12494087129014986,0.006286717021438903,1.0011749446860456
1677618698395843,0.12530708781567146,0.006286717021438903,1.0011749446860456
1677618698411831,0.12420843823910843,0.006408789196612474,1.001052872510872
1677618698427818,0.12530708781567146,0.005310139620050336,1.001907377737087
1677618698443805,0.12481879911497629,0.005920500495918191,1.0023956664377813
1677618698459808,0.12506294346532432,0.0060425726710917615,1.000198367284657
1677618698475795,0.12628366521706003,0.008117799649042468,1.0014190890363928
1677618698491783,0.12384222171358772,0.005554283970397478,1.0030060273136492
1677618698507770,0.12445258258945557,0.006530861371786045,1.0030060273136492
1677618698523758,0.12420843823910843,0.007263294422827471,1.001052872510872
1677618698539745,0.12664988174258074,0.0060425726710917615,1.0004425116350042
1677618698555732,0.12469672693980272,0.006408789196612474,1.0006866559853513
1677618698571720,0.12359807736324058,0.006408789196612474,1.0000762951094835
1677618698587707,0.12445258258945557,0.0061646448462653325,1.0026398107881285
1677618698603695,0.12530708781567146,0.005676356145571049,1.0011749446860456
1677618698619682,0.12420843823910843,0.006286717021438903,0.9992217898832685
1677618698635669,0.12323186083771986,0.00579842832074462,1.0006866559853513
1677618698651657,0.1255512321660186,0.006286717021438903,0.9994659342336156
1677618698667644,0.12396429388876129,0.0061646448462653325,1.0021515220874342
1677618698683632,0.12457465476462914,0.006530861371786045,0.9999542229343099
1677618698699619,0.12445258258945557,0.005676356145571049,1.0012970168612192
1677618698715606,0.12420843823910843,0.005676356145571049,1.0004425116350042
1677618698731594,0.12494087129014986,0.00579842832074462,0.9993438620584421
1677618698747581,0.12494087129014986,0.005920500495918191,0.9982452124818799
1677618698763569,0.12603952086671288,0.006652933546959616,0.9994659342336156
1677618698779541,0.12481879911497629,0.0060425726710917615,1.0012970168612192
1677618698795528,0.12616159304188646,0.004699778744182481,1.001052872510872
1677618698811515,0.12481879911497629,0.0039673456931410556,1.002517738612955
1677618698827503,0.12542915999084503,0.005188067444876765,1.0017853055619135
1677618698843490,0.12579537651636574,0.0071412222476539,1.00166323338674
1677618698859478,0.12372014953841415,0.005188067444876765,1.001052872510872
1677618698875465,0.12445258258945557,0.005554283970397478,1.002517738612955
1677618698891452,0.12457465476462914,0.005554283970397478,1.0030060273136492
1677618698907440,0.12616159304188646,0.005920500495918191,1.002761882963302
1677618698923427,0.12408636606393486,0.006775005722133187,1.0011749446860456
1677618698939415,0.12469672693980272,0.006897077897306758,1.0021515220874342
1677618698955402,0.12457465476462914,0.006775005722133187,1.0021515220874342
1677618698971389,0.12420843823910843,0.005920500495918191,1.0005645838101778
1677618698987377,0.12445258258945557,0.005432211795223907,0.9992217898832685
1677618699003364,0.12530708781567146,0.006286717021438903,1.000808728160525
1677618699019352,0.12494087129014986,0.00579842832074462,1.0005645838101778
1677618699035339,0.12481879911497629,0.005554283970397478,1.00166323338674
1677618699051326,0.12530708781567146,0.004821850919356052,1.0020294499122606
1677618699067314,0.12628366521706003,0.005554283970397478,1.00166323338674
1677618699083301,0.12603952086671288,0.0071412222476539,1.002517738612955
1677618699099304,0.1251850156404979,0.0060425726710917615,1.004226749065385
1677618699115291,0.12469672693980272,0.007263294422827471,1.001907377737087
1677618699131279,0.12542915999084503,0.006897077897306758,0.9997100785839628
1677618699147266,0.12603952086671288,0.0061646448462653325,1.001907377737087
1677618699163253,0.12457465476462914,0.005554283970397478,1.0020294499122606
1677618699179241,0.12567330434119217,0.0060425726710917615,0.9989776455329213
1677618699195228,0.12408636606393486,0.006408789196612474,0.9987335011825742
1677618699211216,0.12481879911497629,0.005065995269703194,1.0006866559853513
1677618699227203,0.12420843823910843,0.0042114900434881974,1.00166323338674
1677618699243190,0.12616159304188646,0.006897077897306758,0.9995880064087892
1677618699259178,0.12481879911497629,0.007019150072480329,1.0011749446860456
1677618699275165,0.12494087129014986,0.005676356145571049,1.0015411612115663
1677618699291153,0.12567330434119217,0.0060425726710917615,1.0011749446860456
1677618699307140,0.1251850156404979,0.006652933546959616,1.0022735942626078
1677618699323127,0.1259174486915393,0.006530861371786045,1.0011749446860456
1677618699339115,0.12469672693980272,0.006652933546959616,0.9998321507591363
1677618699355102,0.12494087129014986,0.007385366598001042,1.0004425116350042
1677618699371090,0.12579537651636574,0.007873655298695326,1.002761882963302
1677618699387077,0.12567330434119217,0.0061646448462653325,0.9995880064087892
1677618699403064,0.12445258258945557,0.006652933546959616,1.0022735942626078
1677618699419067,0.1255512321660186,0.007507438773174613,1.00166323338674
1677618699435054,0.12481879911497629,0.007507438773174613,1.0011749446860456
1677618699451042,0.1259174486915393,0.0071412222476539,1.0022735942626078
1677618699467029,0.12567330434119217,0.0060425726710917615,1.0015411612115663
1677618699483017,0.12567330434119217,0.004943923094529623,1.0012970168612192
1677618699499004,0.1259174486915393,0.006530861371786045,0.9992217898832685
1677618699514991,0.1255512321660186,0.006897077897306758,1.000808728160525
1677618699530979,0.12469672693980272,0.0061646448462653325,1.002761882963302
1677618699546966,0.12408636606393486,0.005920500495918191,1.0039826047150378
1677618699562954,0.1267719539177543,0.006408789196612474,1.0022735942626078
1677618699578941,0.1259174486915393,0.007629510948348184,1.0000762951094835
1677618699594928,0.1251850156404979,0.006652933546959616,1.0015411612115663
1677618699610916,0.1259174486915393,0.00457770656900891,1.0014190890363928
1677618699626903,0.12603952086671288,0.007629510948348184,1.0005645838101778
1677618699642891,0.1255512321660186,0.007873655298695326,1.0005645838101778
1677618699658878,0.12445258258945557,0.007019150072480329,1.0023956664377813
1677618699674865,0.12506294346532432,0.0060425726710917615,1.0020294499122606
1677618699690853,0.12652780956740717,0.005676356145571049,1.0003204394598306
1677618699706840,0.12628366521706003,0.005554283970397478,1.0000762951094835
1677618699722828,0.12530708781567146,0.006775005722133187,1.0012970168612192
1677618699738800,0.12408636606393486,0.007263294422827471,1.0006866559853513
1677618699754787,0.12530708781567146,0.006775005722133187,1.0000762951094835
1677618699770774,0.12506294346532432,0.007507438773174613,1.001052872510872
1677618699786762,0.12506294346532432,0.005432211795223907,1.003616388189517
1677618699802749,0.12481879911497629,0.0060425726710917615,1.0020294499122606
1677618699818737,0.1259174486915393,0.005554283970397478,0.9999542229343099
1677618699834724,0.12481879911497629,0.0061646448462653325,1.0012970168612192
