Timestamp (microseconds),Accel X (g),Accel Y (g),Accel Z (g)
1688152504692199,-0.1359273670557717,-0.016906996261539575,0.9901884489204242
1688152504708200,-0.13702601663233382,-0.018127718013275285,0.9936064698252842
1688152504724200,-0.1375143053330281,-0.015075913633936011,0.9904325932707714
1688152504740200,-0.13971160448615239,-0.013488975356679589,0.9903105210955978
1688152504756200,-0.1362935835812924,-0.018127718013275285,0.9926298924238957
1688152504772201,-0.13568322270542454,-0.018249790188448856,0.9945830472266728
1688152504788201,-0.13812466620889596,-0.014343480582894585,0.9915312428473335
1688152504804201,-0.13910124361028453,-0.01361104753185316,0.9887235828183414
1688152504820201,-0.13678187228198668,-0.017639429312581,0.9911650263218128
1688152504836202,-0.13690394445716025,-0.018127718013275285,0.9918974593728542
1688152504852202,-0.13910124361028453,-0.014709697108415298,0.9900663767452507
1688152504868202,-0.1388570992599374,-0.01361104753185316,0.9903105210955978
1688152504884203,-0.1375143053330281,-0.015808346684977437,0.9893339436942092
1688152504900203,-0.13653772793163954,-0.017273212787060288,0.9921416037232014
1688152504916203,-0.13727016098268097,-0.01495384145876244,0.9907988097962921
1688152504932203,-0.13824673838406953,-0.014099336232547444,0.9887235828183414
1688152504948204,-0.13653772793163954,-0.016540779736018862,0.9918974593728542
1688152504964204,-0.13470664530403598,-0.01861600671396957,0.9925078202487221
1688152504980204,-0.13861295490959025,-0.015686274509803866,0.9921416037232014
1688152504996204,-0.13763637750820168,-0.015686274509803866,0.9890897993438621
1688152505012207,-0.13739223315785454,-0.016784924086366004,0.9900663767452507
1688152505028207,-0.13617151140611883,-0.017883573662928143,0.9918974593728542
1688152505044207,-0.13617151140611883,-0.014587624933241727,0.9911650263218128
1688152505060207,-0.13910124361028453,-0.013366903181506018,0.9904325932707714
1688152505076208,-0.1354390783550774,-0.015075913633936011,0.9931181811245899
1688152505092208,-0.13617151140611883,-0.017029068436713146,0.9953154802777142
1688152505108208,-0.13775844968337525,-0.014343480582894585,0.9929961089494164
1688152505124209,-0.13812466620889596,-0.01373311970702673,0.9892118715190357
1688152505140209,-0.13482871747920955,-0.016540779736018862,0.9917753871976807
1688152505156209,-0.13556115053025097,-0.017639429312581,0.9925078202487221
1688152505172209,-0.13702601663233382,-0.015320057984283153,0.9921416037232014
1688152505188210,-0.13934538796063167,-0.01373311970702673,0.9899443045700771
1688152505204210,-0.1359273670557717,-0.015075913633936011,0.9907988097962921
1688152505220210,-0.13568322270542454,-0.01629663538567172,0.9943389028763256
1688152505236210,-0.13702601663233382,-0.013122758831158876,0.9922636758983749
1688152505252211,-0.13934538796063167,-0.013855191882200302,0.98970016021973
1688152505268211,-0.1366598001068131,-0.015686274509803866,0.9906767376211185
1688152505284211,-0.13617151140611883,-0.017639429312581,0.9938506141756314
1688152505300212,-0.1375143053330281,-0.014587624933241727,0.9934843976501107
1688152505316212,-0.13946746013580524,-0.01373311970702673,0.9892118715190357
1688152505332244,-0.1366598001068131,-0.015320057984283153,0.9916533150225071
1688152505348245,-0.1359273670557717,-0.018127718013275285,0.9939726863508049
1688152505364246,-0.1371480888075074,-0.014343480582894585,0.9904325932707714
1688152505380247,-0.13971160448615239,-0.011779964904249596,0.9894560158693828
1688152505396247,-0.1354390783550774,-0.015197985809109582,0.9927519645990692
1688152505412248,-0.1354390783550774,-0.017151140611886717,0.9950713359273671
1688152505428249,-0.1380025940337224,-0.014343480582894585,0.9929961089494164
1688152505444250,-0.13910124361028453,-0.012756542305638163,0.9910429541466392
1688152505460250,-0.13653772793163954,-0.016540779736018862,0.9909208819714657
1688152505476251,-0.13409628442816812,-0.017639429312581,0.9922636758983749
1688152505492252,-0.13727016098268097,-0.015686274509803866,0.9926298924238957
1688152505508253,-0.1392233157854581,-0.013122758831158876,0.9898222323949035
1688152505524253,-0.13727016098268097,-0.015075913633936011,0.9909208819714657
1688152505540254,-0.13531700617990383,-0.016906996261539575,0.9931181811245899
1688152505556255,-0.13702601663233382,-0.01495384145876244,0.9920195315480278
1688152505572256,-0.13897917143511096,-0.013366903181506018,0.98970016021973
1688152505588256,-0.13678187228198668,-0.01483176928358887,0.9912870984969864
1688152505604257,-0.1354390783550774,-0.017761501487754572,0.9932402532997635
1688152505620258,-0.13604943923094526,-0.015075913633936011,0.9917753871976807
1688152505636259,-0.1392233157854581,-0.013488975356679589,0.9893339436942092
1688152505652313,-0.13604943923094526,-0.014709697108415298,0.9909208819714657
1688152505668314,-0.13556115053025097,-0.016906996261539575,0.9943389028763256
1688152505684314,-0.13678187228198668,-0.01629663538567172,0.9907988097962921
1688152505700315,-0.14019989318684667,-0.013366903181506018,0.9911650263218128
1688152505716316,-0.13641565575646597,-0.015075913633936011,0.9916533150225071
1688152505732317,-0.13568322270542454,-0.015808346684977437,0.9938506141756314
1688152505748317,-0.13763637750820168,-0.015075913633936011,0.9939726863508049
1688152505764318,-0.1392233157854581,-0.01239032578011745,0.990554665445945
1688152505780319,-0.13678187228198668,-0.015320057984283153,0.990554665445945
1688152505796320,-0.13311970702677955,-0.016906996261539575,0.9918974593728542
1688152505812320,-0.13678187228198668,-0.01605249103532458,0.9915312428473335
1688152505828321,-0.13788052185854882,-0.013000686655985305,0.9886015106431678
1688152505844322,-0.13690394445716025,-0.013855191882200302,0.9923857480735485
1688152505860323,-0.13580529488059812,-0.01751735713740743,0.9940947585259785
1688152505876323,-0.13678187228198668,-0.015564202334630295,0.9932402532997635
1688152505892324,-0.13788052185854882,-0.014709697108415298,0.9893339436942092
1688152505908325,-0.13971160448615239,-0.013366903181506018,0.9907988097962921
1688152505924326,-0.13641565575646597,-0.018249790188448856,0.9932402532997635
1688152505940326,-0.13568322270542454,-0.015442130159456724,0.9921416037232014
1688152505956327,-0.13849088273441668,-0.013488975356679589,0.990554665445945
1688152505972351,-0.13775844968337525,-0.014343480582894585,0.9895780880445564
1688152505988351,-0.13519493400473026,-0.01751735713740743,0.9927519645990692
1688152506004352,-0.13727016098268097,-0.015686274509803866,0.9931181811245899
1688152506020353,-0.13763637750820168,-0.013366903181506018,0.9879911497673
1688152506036354,-0.13690394445716025,-0.01495384145876244,0.9883573662928207
1688152506052354,-0.13580529488059812,-0.017151140611886717,0.9925078202487221
1688152506068355,-0.1366598001068131,-0.016662851911192433,0.9933623254749371
1688152506084356,-0.1388570992599374,-0.014343480582894585,0.99140917067216
1688152506100357,-0.13739223315785454,-0.015442130159456724,0.9915312428473335
1688152506116357,-0.13580529488059812,-0.016906996261539575,0.9934843976501107
1688152506132358,-0.1371480888075074,-0.01739528496223386,0.9931181811245899
1688152506148359,-0.13824673838406953,-0.012878614480811734,0.9901884489204242
1688152506164360,-0.1375143053330281,-0.015808346684977437,0.9883573662928207
1688152506180360,-0.1366598001068131,-0.017029068436713146,0.9932402532997635
1688152506196361,-0.1359273670557717,-0.017883573662928143,0.9936064698252842
1688152506212362,-0.13788052185854882,-0.013122758831158876,0.9884794384679942
1688152506228363,-0.1375143053330281,-0.015197985809109582,0.9895780880445564
1688152506244363,-0.13495078965438312,-0.01751735713740743,0.9937285420004578
1688152506260364,-0.1345845731288624,-0.017273212787060288,0.9922636758983749
1688152506276365,-0.1375143053330281,-0.013000686655985305,0.9899443045700771
1688152506292419,-0.1392233157854581,-0.013244831006332447,0.9883573662928207
1688152506308420,-0.1359273670557717,-0.015930418860151008,0.9915312428473335
1688152506324422,-0.1354390783550774,-0.01605249103532458,0.9920195315480278
1688152506340423,-0.13788052185854882,-0.014343480582894585,0.9901884489204242
1688152506356424,-0.13641565575646597,-0.015197985809109582,0.9920195315480278
1688152506372425,-0.13702601663233382,-0.01495384145876244,0.9918974593728542
1688152506388426,-0.1345845731288624,-0.02020294499122599,0.9921416037232014
1688152506404428,-0.13861295490959025,-0.013000686655985305,0.9909208819714657
1688152506420429,-0.14032196536202024,-0.013244831006332447,0.9920195315480278
1688152506436430,-0.1354390783550774,-0.017029068436713146,0.9938506141756314
1688152506452431,-0.1366598001068131,-0.016662851911192433,0.9947051194018464
1688152506468433,-0.13556115053025097,-0.014465552758068156,0.9921416037232014
1688152506484434,-0.1383688105592431,-0.012512397955291021,0.9889677271686885
1688152506500435,-0.13470664530403598,-0.019348439765010994,0.9945830472266728
1688152506516436,-0.13678187228198668,-0.018127718013275285,0.9918974593728542
1688152506532437,-0.13873502708476382,-0.014099336232547444,0.9923857480735485
1688152506548439,-0.13824673838406953,-0.012756542305638163,0.98970016021973
1688152506564440,-0.13617151140611883,-0.018249790188448856,0.9907988097962921
1688152506580441,-0.1366598001068131,-0.01629663538567172,0.99140917067216
1688152506596442,-0.14056610971236738,-0.013366903181506018,0.99140917067216
1688152506612457,-0.13812466620889596,-0.011902037079423167,0.9911650263218128
1688152506628458,-0.1366598001068131,-0.016662851911192433,0.9936064698252842
1688152506644459,-0.1359273670557717,-0.016784924086366004,0.9961699855039292
1688152506660461,-0.1375143053330281,-0.01495384145876244,0.9900663767452507
1688152506676462,-0.13812466620889596,-0.014099336232547444,0.9893339436942092
1688152506692463,-0.1359273670557717,-0.015320057984283153,0.9929961089494164
1688152506708464,-0.1359273670557717,-0.015320057984283153,0.9933623254749371
1688152506724465,-0.13739223315785454,-0.01605249103532458,0.9917753871976807
1688152506740467,-0.13873502708476382,-0.015564202334630295,0.9876249332417792
1688152506756468,-0.13495078965438312,-0.019470511940184565,0.9931181811245899
1688152506772469,-0.13739223315785454,-0.017639429312581,0.9943389028763256
1688152506788470,-0.13641565575646597,-0.014099336232547444,0.9907988097962921
1688152506804472,-0.13897917143511096,-0.014221408407721015,0.9916533150225071
1688152506820473,-0.13604943923094526,-0.01361104753185316,0.9936064698252842
1688152506836474,-0.13641565575646597,-0.019714656290531707,0.9950713359273671
1688152506852475,-0.1362935835812924,-0.01495384145876244,0.98970016021973
1688152506868476,-0.1392233157854581,-0.014099336232547444,0.9910429541466392
1688152506884478,-0.13739223315785454,-0.017639429312581,0.9943389028763256
1688152506900479,-0.13568322270542454,-0.017151140611886717,0.9928740367742428
1688152506916480,-0.1380025940337224,-0.015564202334630295,0.99140917067216
1688152506932525,-0.13910124361028453,-0.01373311970702673,0.9904325932707714
1688152506948526,-0.1362935835812924,-0.01495384145876244,0.9915312428473335
1688152506964528,-0.13434042877851526,-0.015808346684977437,0.9953154802777142
1688152506980529,-0.13653772793163954,-0.014099336232547444,0.9921416037232014
1688152506996530,-0.1383688105592431,-0.014221408407721015,0.9910429541466392
1688152507012531,-0.13580529488059812,-0.017761501487754572,0.9915312428473335
1688152507028533,-0.13617151140611883,-0.016784924086366004,0.9942168307011521
1688152507044534,-0.13775844968337525,-0.015442130159456724,0.9922636758983749
1688152507060535,-0.13788052185854882,-0.012756542305638163,0.9918974593728542
1688152507076536,-0.1366598001068131,-0.016906996261539575,0.9922636758983749
1688152507092538,-0.13580529488059812,-0.01617456321049815,0.9933623254749371
1688152507108539,-0.13995574883649953,-0.014709697108415298,0.9920195315480278
1688152507124540,-0.1392233157854581,-0.013122758831158876,0.9904325932707714
1688152507140541,-0.13556115053025097,-0.016540779736018862,0.9929961089494164
1688152507156542,-0.1362935835812924,-0.018127718013275285,0.9954375524528878
1688152507172544,-0.13971160448615239,-0.014099336232547444,0.9912870984969864
1688152507188545,-0.1392233157854581,-0.014465552758068156,0.9903105210955978
1688152507204546,-0.13678187228198668,-0.016662851911192433,0.9918974593728542
1688152507220547,-0.13495078965438312,-0.017761501487754572,0.9933623254749371
1688152507236549,-0.13727016098268097,-0.01617456321049815,0.9925078202487221
1688152507252594,-0.1383688105592431,-0.013488975356679589,0.98970016021973
1688152507268595,-0.13812466620889596,-0.018127718013275285,0.99140917067216
1688152507284597,-0.13519493400473026,-0.01886015106431671,0.9931181811245899
1688152507300599,-0.13727016098268097,-0.015808346684977437,0.9934843976501107
1688152507316600,-0.13861295490959025,-0.013366903181506018,0.9894560158693828
1688152507332602,-0.13641565575646597,-0.015686274509803866,0.9907988097962921
1688152507348604,-0.13617151140611883,-0.018249790188448856,0.9954375524528878
1688152507364606,-0.13812466620889596,-0.015320057984283153,0.9944609750514992
1688152507380607,-0.13812466620889596,-0.013977264057373873,0.9911650263218128
1688152507396609,-0.1380025940337224,-0.01617456321049815,0.9906767376211185
1688152507412611,-0.13604943923094526,-0.018249790188448856,0.9950713359273671
1688152507428612,-0.13690394445716025,-0.01483176928358887,0.9915312428473335
1688152507444614,-0.14019989318684667,-0.013000686655985305,0.990554665445945
1688152507460616,-0.13653772793163954,-0.014343480582894585,0.9903105210955978
1688152507476617,-0.13482871747920955,-0.018127718013275285,0.9943389028763256
1688152507492619,-0.13678187228198668,-0.014587624933241727,0.9928740367742428
1688152507508621,-0.13971160448615239,-0.012024109254596738,0.9876249332417792
1688152507524623,-0.1359273670557717,-0.01495384145876244,0.9911650263218128
1688152507540624,-0.13409628442816812,-0.01751735713740743,0.9936064698252842
1688152507556626,-0.13727016098268097,-0.01495384145876244,0.9954375524528878
1688152507572662,-0.14081025406271452,-0.012756542305638163,0.9894560158693828
1688152507588664,-0.13739223315785454,-0.01483176928358887,0.9906767376211185
1688152507604665,-0.1371480888075074,-0.018249790188448856,0.9943389028763256
1688152507620667,-0.1375143053330281,-0.01605249103532458,0.9936064698252842
1688152507636669,-0.13971160448615239,-0.014465552758068156,0.98970016021973
1688152507652670,-0.1388570992599374,-0.01629663538567172,0.9904325932707714
1688152507668672,-0.13446250095368883,-0.017273212787060288,0.9943389028763256
1688152507684674,-0.13653772793163954,-0.013855191882200302,0.9928740367742428
1688152507700676,-0.13812466620889596,-0.012634470130464592,0.9886015106431678
1688152507716677,-0.13702601663233382,-0.015075913633936011,0.9921416037232014
1688152507732679,-0.13495078965438312,-0.017639429312581,0.9928740367742428
1688152507748681,-0.13617151140611883,-0.015442130159456724,0.9940947585259785
1688152507764682,-0.13934538796063167,-0.013244831006332447,0.9884794384679942
1688152507780684,-0.1375143053330281,-0.015320057984283153,0.9887235828183414
1688152507796686,-0.1359273670557717,-0.01751735713740743,0.9934843976501107
1688152507812687,-0.13580529488059812,-0.015564202334630295,0.9909208819714657
1688152507828689,-0.13849088273441668,-0.01373311970702673,0.9937285420004578
1688152507844691,-0.1359273670557717,-0.01495384145876244,0.9904325932707714
1688152507860693,-0.13531700617990383,-0.017029068436713146,0.9949492637521935
1688152507876694,-0.13678187228198668,-0.01605249103532458,0.9942168307011521
1688152507892730,-0.14019989318684667,-0.014709697108415298,0.99140917067216
1688152507908732,-0.13788052185854882,-0.015320057984283153,0.9907988097962921
1688152507924734,-0.13434042877851526,-0.018249790188448856,0.9933623254749371
1688152507940735,-0.13678187228198668,-0.015808346684977437,0.9922636758983749
1688152507956737,-0.1388570992599374,-0.01483176928358887,0.9898222323949035
1688152507972739,-0.13849088273441668,-0.014099336232547444,0.9912870984969864
1688152507988741,-0.1350728618295567,-0.018493934538795997,0.9917753871976807
1688152508004742,-0.13678187228198668,-0.01751735713740743,0.9937285420004578
1688152508020744,-0.14068818188754095,-0.014099336232547444,0.9890897993438621
1688152508036746,-0.13849088273441668,-0.013000686655985305,0.9910429541466392
1688152508052747,-0.13531700617990383,-0.017151140611886717,0.9954375524528878
1688152508068749,-0.13568322270542454,-0.01641870756084529,0.9940947585259785
1688152508084751,-0.13910124361028453,-0.012878614480811734,0.9912870984969864
1688152508100752,-0.1383688105592431,-0.014099336232547444,0.9922636758983749
1688152508116754,-0.13617151140611883,-0.016662851911192433,0.9925078202487221
1688152508132756,-0.13641565575646597,-0.015808346684977437,0.9943389028763256
1688152508148758,-0.1392233157854581,-0.013244831006332447,0.9894560158693828
1688152508164759,-0.13812466620889596,-0.013122758831158876,0.98970016021973
1688152508180761,-0.13568322270542454,-0.016784924086366004,0.9928740367742428
1688152508196763,-0.1359273670557717,-0.017151140611886717,0.9938506141756314
1688152508212799,-0.1388570992599374,-0.013977264057373873,0.9903105210955978
1688152508228801,-0.1371480888075074,-0.014343480582894585,0.9918974593728542
1688152508244803,-0.1359273670557717,-0.016784924086366004,0.9940947585259785
1688152508260805,-0.13604943923094526,-0.01629663538567172,0.9931181811245899
1688152508276807,-0.13763637750820168,-0.015808346684977437,0.9945830472266728
1688152508292810,-0.13763637750820168,-0.01373311970702673,0.9904325932707714
1688152508308812,-0.1354390783550774,-0.01751735713740743,0.9917753871976807
1688152508324814,-0.1366598001068131,-0.016662851911192433,0.9933623254749371
1688152508340816,-0.13910124361028453,-0.01361104753185316,0.9927519645990692
1688152508356818,-0.1380025940337224,-0.014465552758068156,0.9909208819714657
1688152508372820,-0.13580529488059812,-0.01739528496223386,0.9938506141756314
1688152508388823,-0.1350728618295567,-0.01605249103532458,0.9945830472266728
1688152508404825,-0.13653772793163954,-0.013000686655985305,0.9929961089494164
1688152508420827,-0.13788052185854882,-0.01373311970702673,0.9918974593728542
1688152508436829,-0.13482871747920955,-0.018493934538795997,0.9953154802777142
1688152508452831,-0.13556115053025097,-0.016906996261539575,0.9937285420004578
1688152508468834,-0.13861295490959025,-0.014099336232547444,0.9911650263218128
1688152508484836,-0.13739223315785454,-0.015930418860151008,0.9916533150225071
1688152508500838,-0.13568322270542454,-0.015686274509803866,0.9921416037232014
1688152508516840,-0.1350728618295567,-0.01751735713740743,0.9943389028763256
1688152508532867,-0.13788052185854882,-0.013488975356679589,0.9892118715190357
1688152508548869,-0.13739223315785454,-0.01373311970702673,0.9944609750514992
1688152508564871,-0.1366598001068131,-0.015930418860151008,0.9927519645990692
1688152508580874,-0.13580529488059812,-0.01641870756084529,0.9943389028763256
1688152508596876,-0.13934538796063167,-0.013977264057373873,0.9933623254749371
1688152508612878,-0.13812466620889596,-0.013977264057373873,0.9903105210955978
1688152508628880,-0.1366598001068131,-0.017273212787060288,0.9940947585259785
1688152508644882,-0.1362935835812924,-0.01641870756084529,0.9929961089494164
1688152508660884,-0.1375143053330281,-0.014099336232547444,0.9911650263218128
1688152508676887,-0.13910124361028453,-0.012878614480811734,0.9917753871976807
1688152508692889,-0.13495078965438312,-0.017151140611886717,0.9940947585259785
1688152508708891,-0.1366598001068131,-0.016784924086366004,0.9949492637521935
1688152508724893,-0.13910124361028453,-0.014099336232547444,0.9901884489204242
1688152508740895,-0.13763637750820168,-0.012634470130464592,0.9893339436942092
1688152508756898,-0.13678187228198668,-0.01629663538567172,0.9937285420004578
1688152508772900,-0.1354390783550774,-0.017883573662928143,0.9976348516060121
1688152508788902,-0.13788052185854882,-0.014587624933241727,0.9928740367742428
1688152508804904,-0.13788052185854882,-0.01239032578011745,0.9928740367742428
1688152508820906,-0.13617151140611883,-0.016906996261539575,0.9916533150225071
1688152508836908,-0.1328755626764324,-0.017151140611886717,0.9948271915770199
1688152508852935,-0.14019989318684667,-0.014099336232547444,0.9911650263218128
1688152508868938,-0.1366598001068131,-0.015442130159456724,0.9909208819714657
1688152508884940,-0.13519493400473026,-0.016784924086366004,0.9931181811245899
1688152508900942,-0.13739223315785454,-0.017761501487754572,0.9911650263218128
1688152508916944,-0.1366598001068131,-0.013977264057373873,0.9947051194018464
1688152508932946,-0.14056610971236738,-0.013122758831158876,0.9877470054169528
1688152508948948,-0.13348592355230027,-0.01617456321049815,0.9936064698252842
1688152508964951,-0.13849088273441668,-0.017151140611886717,0.9956816968032349
1688152508980953,-0.13788052185854882,-0.013855191882200302,0.9898222323949035
1688152508996955,-0.1392233157854581,-0.014221408407721015,0.9923857480735485
1688152509012957,-0.1362935835812924,-0.016784924086366004,0.9916533150225071
1688152509028959,-0.13495078965438312,-0.018005645838101714,0.9973907072556649
1688152509044962,-0.13763637750820168,-0.015808346684977437,0.9915312428473335
1688152509060964,-0.1375143053330281,-0.014099336232547444,0.9926298924238957
1688152509076966,-0.13604943923094526,-0.01739528496223386,0.9939726863508049
1688152509092968,-0.13226520180056456,-0.017761501487754572,0.9923857480735485
1688152509108970,-0.13824673838406953,-0.014099336232547444,0.9920195315480278
1688152509124972,-0.13702601663233382,-0.012146181429770309,0.9895780880445564
1688152509140975,-0.1366598001068131,-0.016662851911192433,0.9921416037232014
1688152509156977,-0.13568322270542454,-0.015686274509803866,0.9922636758983749
1688152509172973,-0.13641565575646597,-0.014587624933241727,0.9911650263218128
1688152509188975,-0.13910124361028453,-0.013488975356679589,0.990554665445945
1688152509204978,-0.13641565575646597,-0.014587624933241727,0.9904325932707714
1688152509220980,-0.13641565575646597,-0.01629663538567172,0.9920195315480278
1688152509236982,-0.1371480888075074,-0.014709697108415298,0.9928740367742428
1688152509252984,-0.13849088273441668,-0.013366903181506018,0.9925078202487221
1688152509268986,-0.13690394445716025,-0.01629663538567172,0.990554665445945
1688152509284989,-0.13690394445716025,-0.017151140611886717,0.9951934081025406
1688152509300991,-0.13788052185854882,-0.01641870756084529,0.9928740367742428
1688152509316993,-0.13897917143511096,-0.01373311970702673,0.9909208819714657
1688152509332995,-0.13678187228198668,-0.015930418860151008,0.9912870984969864
1688152509348997,-0.1342183566033417,-0.01641870756084529,0.9955596246280614
1688152509364999,-0.13702601663233382,-0.014465552758068156,0.9895780880445564
1688152509381002,-0.13849088273441668,-0.01239032578011745,0.9890897993438621
1688152509397004,-0.13788052185854882,-0.016906996261539575,0.9934843976501107
1688152509413006,-0.1362935835812924,-0.01751735713740743,0.9937285420004578
1688152509429008,-0.13678187228198668,-0.015808346684977437,0.9939726863508049
1688152509445010,-0.13946746013580524,-0.012878614480811734,0.9922636758983749
1688152509461012,-0.13763637750820168,-0.014709697108415298,0.9903105210955978
1688152509477015,-0.13641565575646597,-0.01739528496223386,0.9925078202487221
1688152509493042,-0.13690394445716025,-0.01617456321049815,0.9939726863508049
1688152509509044,-0.13849088273441668,-0.013122758831158876,0.9907988097962921
1688152509525046,-0.13727016098268097,-0.01483176928358887,0.9927519645990692
1688152509541048,-0.13617151140611883,-0.01739528496223386,0.9934843976501107
1688152509557050,-0.13678187228198668,-0.015442130159456724,0.9934843976501107
1688152509573053,-0.13727016098268097,-0.013977264057373873,0.9910429541466392
1688152509589055,-0.13653772793163954,-0.015808346684977437,0.9931181811245899
1688152509605057,-0.13495078965438312,-0.018127718013275285,0.9943389028763256
1688152509621059,-0.13788052185854882,-0.015808346684977437,0.9928740367742428
1688152509637061,-0.13788052185854882,-0.013366903181506018,0.9895780880445564
1688152509653063,-0.13763637750820168,-0.01641870756084529,0.9909208819714657
1688152509669066,-0.13531700617990383,-0.017151140611886717,0.9918974593728542
1688152509685068,-0.13580529488059812,-0.016540779736018862,0.9903105210955978
1688152509701070,-0.1383688105592431,-0.01373311970702673,0.98970016021973
1688152509717072,-0.13739223315785454,-0.015564202334630295,0.9916533150225071
1688152509733074,-0.1354390783550774,-0.019226367589837423,0.9942168307011521
1688152509749076,-0.1371480888075074,-0.015686274509803866,0.9927519645990692
1688152509765079,-0.13739223315785454,-0.013244831006332447,0.9901884489204242
1688152509781081,-0.13617151140611883,-0.013855191882200302,0.9923857480735485
1688152509797083,-0.13446250095368883,-0.01861600671396957,0.9931181811245899
1688152509813110,-0.1350728618295567,-0.01495384145876244,0.9947051194018464
1688152509829112,-0.1392233157854581,-0.013855191882200302,0.9898222323949035
1688152509845114,-0.13763637750820168,-0.01605249103532458,0.9906767376211185
1688152509861117,-0.13653772793163954,-0.01898222323949028,0.9925078202487221
1688152509877119,-0.13678187228198668,-0.01617456321049815,0.9938506141756314
1688152509893121,-0.1388570992599374,-0.015320057984283153,0.9909208819714657
1688152509909123,-0.1392233157854581,-0.014587624933241727,0.9916533150225071
1688152509925125,-0.13739223315785454,-0.017639429312581,0.9928740367742428
1688152509941127,-0.13775844968337525,-0.015808346684977437,0.9940947585259785
1688152509957130,-0.13910124361028453,-0.013366903181506018,0.9901884489204242
1688152509973132,-0.1375143053330281,-0.014343480582894585,0.9900663767452507
1688152509989134,-0.13482871747920955,-0.018249790188448856,0.9937285420004578
1688152510005136,-0.13775844968337525,-0.01617456321049815,0.9929961089494164
1688152510021138,-0.1400778210116731,-0.014099336232547444,0.9909208819714657
1688152510037140,-0.13739223315785454,-0.016906996261539575,0.9906767376211185
1688152510053143,-0.13531700617990383,-0.018493934538795997,0.9927519645990692
1688152510069145,-0.13556115053025097,-0.015442130159456724,0.9925078202487221
1688152510085147,-0.13910124361028453,-0.014465552758068156,0.9895780880445564
1688152510101149,-0.13775844968337525,-0.013855191882200302,0.9912870984969864
1688152510117151,-0.13446250095368883,-0.018127718013275285,0.9948271915770199
1688152510133178,-0.1366598001068131,-0.018127718013275285,0.9947051194018464
1688152510149181,-0.13873502708476382,-0.013122758831158876,0.9894560158693828
1688152510165184,-0.13702601663233382,-0.01483176928358887,0.988845654993515
1688152510181186,-0.1359273670557717,-0.01751735713740743,0.9932402532997635
1688152510197189,-0.1366598001068131,-0.016662851911192433,0.9953154802777142
1688152510213192,-0.13763637750820168,-0.014221408407721015,0.9881132219424735
1688152510229194,-0.13739223315785454,-0.015930418860151008,0.9884794384679942
1688152510245197,-0.13690394445716025,-0.017883573662928143,0.9960479133287556
1688152510261200,-0.13556115053025097,-0.015075913633936011,0.9921416037232014
1688152510277202,-0.13958953231097881,-0.013000686655985305,0.9932402532997635
1688152510293205,-0.13873502708476382,-0.014465552758068156,0.9909208819714657
1688152510309208,-0.13617151140611883,-0.01739528496223386,0.9933623254749371
1688152510325210,-0.13580529488059812,-0.016784924086366004,0.9921416037232014
1688152510341213,-0.13861295490959025,-0.013366903181506018,0.9910429541466392
1688152510357216,-0.13934538796063167,-0.012878614480811734,0.9890897993438621
1688152510373218,-0.13495078965438312,-0.018005645838101714,0.9916533150225071
1688152510389221,-0.1362935835812924,-0.017151140611886717,0.9945830472266728
1688152510405223,-0.13983367666132596,-0.014099336232547444,0.98970016021973
1688152510421226,-0.13873502708476382,-0.014343480582894585,0.9886015106431678
1688152510437229,-0.13690394445716025,-0.01861600671396957,0.9928740367742428
1688152510453247,-0.13617151140611883,-0.016540779736018862,0.9920195315480278
1688152510469249,-0.13824673838406953,-0.014709697108415298,0.9926298924238957
1688152510485252,-0.13897917143511096,-0.014709697108415298,0.9873807888914321
1688152510501255,-0.13495078965438312,-0.017151140611886717,0.9948271915770199
1688152510517257,-0.13617151140611883,-0.017029068436713146,0.9926298924238957
1688152510533260,-0.13727016098268097,-0.013855191882200302,0.990554665445945
1688152510549263,-0.13934538796063167,-0.013977264057373873,0.98970016021973
1688152510565265,-0.13556115053025097,-0.01641870756084529,0.9928740367742428
1688152510581268,-0.13617151140611883,-0.01739528496223386,0.9928740367742428
1688152510597271,-0.13861295490959025,-0.014709697108415298,0.9904325932707714
1688152510613273,-0.13824673838406953,-0.015442130159456724,0.9890897993438621
1688152510629276,-0.13763637750820168,-0.01739528496223386,0.9937285420004578
1688152510645279,-0.1362935835812924,-0.01641870756084529,0.9923857480735485
1688152510661281,-0.13849088273441668,-0.014709697108415298,0.9923857480735485
1688152510677284,-0.13727016098268097,-0.014587624933241727,0.9882352941176471
1688152510693287,-0.13446250095368883,-0.016784924086366004,0.9934843976501107
1688152510709289,-0.13446250095368883,-0.016906996261539575,0.9949492637521935
1688152510725292,-0.1380025940337224,-0.014343480582894585,0.9917753871976807
1688152510741294,-0.1375143053330281,-0.013366903181506018,0.9893339436942092
1688152510757297,-0.1371480888075074,-0.01898222323949028,0.9927519645990692
1688152510773315,-0.13617151140611883,-0.017029068436713146,0.9922636758983749
1688152510789318,-0.13812466620889596,-0.014343480582894585,0.9926298924238957
1688152510805320,-0.13775844968337525,-0.014099336232547444,0.988845654993515
1688152510821323,-0.13519493400473026,-0.016906996261539575,0.9933623254749371
1688152510837326,-0.13434042877851526,-0.019104295414663852,0.9955596246280614
1688152510853328,-0.13788052185854882,-0.014709697108415298,0.9925078202487221
1688152510869331,-0.13946746013580524,-0.01226825360494388,0.9901884489204242
1688152510885334,-0.13580529488059812,-0.017029068436713146,0.9926298924238957
1688152510901336,-0.13568322270542454,-0.018005645838101714,0.9959258411535821
1688152510917339,-0.14019989318684667,-0.014465552758068156,0.9921416037232014
1688152510933342,-0.1392233157854581,-0.013366903181506018,0.9884794384679942
1688152510949344,-0.13556115053025097,-0.015930418860151008,0.9923857480735485
1688152510965347,-0.13568322270542454,-0.018005645838101714,0.9931181811245899
1688152510981350,-0.1392233157854581,-0.01495384145876244,0.9907988097962921
1688152510997352,-0.1383688105592431,-0.013977264057373873,0.9916533150225071
1688152511013355,-0.13617151140611883,-0.018127718013275285,0.9926298924238957
1688152511029358,-0.13604943923094526,-0.017639429312581,0.9929961089494164
1688152511045360,-0.13739223315785454,-0.013488975356679589,0.9926298924238957
1688152511061363,-0.13983367666132596,-0.013977264057373873,0.9890897993438621
1688152511077366,-0.1380025940337224,-0.017639429312581,0.9898222323949035
1688152511093353,-0.1366598001068131,-0.017029068436713146,0.9954375524528878
1688152511109356,-0.13946746013580524,-0.014587624933241727,0.9923857480735485
1688152511125358,-0.1392233157854581,-0.01373311970702673,0.9912870984969864
1688152511141361,-0.13641565575646597,-0.017639429312581,0.9922636758983749
1688152511157364,-0.13495078965438312,-0.018249790188448856,0.9938506141756314
1688152511173366,-0.13861295490959025,-0.01495384145876244,0.9926298924238957
1688152511189369,-0.1388570992599374,-0.013855191882200302,0.9915312428473335
1688152511205371,-0.13641565575646597,-0.016784924086366004,0.9926298924238957
1688152511221374,-0.13568322270542454,-0.018005645838101714,0.9926298924238957
1688152511237377,-0.1359273670557717,-0.01605249103532458,0.99140917067216
1688152511253379,-0.1380025940337224,-0.01373311970702673,0.9903105210955978
1688152511269382,-0.1366598001068131,-0.01641870756084529,0.9958037689784085
1688152511285385,-0.13519493400473026,-0.01617456321049815,0.9942168307011521
1688152511301387,-0.13763637750820168,-0.015075913633936011,0.9921416037232014
1688152511317390,-0.13788052185854882,-0.01361104753185316,0.9922636758983749
1688152511333393,-0.13482871747920955,-0.01629663538567172,0.9929961089494164
1688152511349395,-0.1362935835812924,-0.018005645838101714,0.9942168307011521
1688152511365398,-0.13861295490959025,-0.01605249103532458,0.9916533150225071
1688152511381401,-0.1383688105592431,-0.014709697108415298,0.9909208819714657
1688152511397403,-0.13617151140611883,-0.015808346684977437,0.9921416037232014
1688152511413421,-0.13470664530403598,-0.017639429312581,0.9942168307011521
1688152511429424,-0.13763637750820168,-0.014221408407721015,0.9906767376211185
1688152511445427,-0.1392233157854581,-0.013122758831158876,0.9917753871976807
1688152511461429,-0.13653772793163954,-0.016906996261539575,0.9937285420004578
1688152511477432,-0.1350728618295567,-0.018127718013275285,0.9938506141756314
1688152511493435,-0.13653772793163954,-0.015808346684977437,0.99140917067216
1688152511509437,-0.1380025940337224,-0.012024109254596738,0.9892118715190357
1688152511525440,-0.13556115053025097,-0.017151140611886717,0.9920195315480278
1688152511541442,-0.13690394445716025,-0.016662851911192433,0.9954375524528878
1688152511557445,-0.13739223315785454,-0.015320057984283153,0.9939726863508049
1688152511573448,-0.13775844968337525,-0.014343480582894585,0.9910429541466392
1688152511589450,-0.1380025940337224,-0.016906996261539575,0.9922636758983749
1688152511605453,-0.13568322270542454,-0.017639429312581,0.9928740367742428
1688152511621456,-0.13788052185854882,-0.015686274509803866,0.9926298924238957
1688152511637458,-0.13910124361028453,-0.013122758831158876,0.9882352941176471
1688152511653461,-0.13641565575646597,-0.016662851911192433,0.9899443045700771
1688152511669464,-0.13470664530403598,-0.018493934538795997,0.9931181811245899
1688152511685466,-0.13775844968337525,-0.015808346684977437,0.99140917067216
1688152511701469,-0.1383688105592431,-0.013000686655985305,0.9917753871976807
1688152511717472,-0.13849088273441668,-0.015075913633936011,0.9923857480735485
1688152511733490,-0.13324177920195313,-0.018493934538795997,0.9961699855039292
1688152511749492,-0.1366598001068131,-0.016540779736018862,0.9931181811245899
1688152511765495,-0.13971160448615239,-0.013366903181506018,0.9901884489204242
1688152511781498,-0.13678187228198668,-0.016784924086366004,0.9907988097962921
1688152511797500,-0.13556115053025097,-0.019104295414663852,0.9950713359273671
1688152511813503,-0.13556115053025097,-0.015564202334630295,0.9917753871976807
1688152511829506,-0.13812466620889596,-0.014465552758068156,0.9918974593728542
1688152511845508,-0.13775844968337525,-0.013977264057373873,0.9918974593728542
1688152511861511,-0.13653772793163954,-0.017639429312581,0.9943389028763256
1688152511877514,-0.13873502708476382,-0.015564202334630295,0.9938506141756314
1688152511893516,-0.1392233157854581,-0.015075913633936011,0.9932402532997635
1688152511909519,-0.13812466620889596,-0.015564202334630295,0.9906767376211185
1688152511925521,-0.13482871747920955,-0.01873807888914314,0.9934843976501107
1688152511941524,-0.13531700617990383,-0.01739528496223386,0.9938506141756314
1688152511957527,-0.13897917143511096,-0.015808346684977437,0.98970016021973
1688152511973529,-0.13849088273441668,-0.01361104753185316,0.9899443045700771
1688152511989532,-0.13556115053025097,-0.01751735713740743,0.9948271915770199
1688152512005535,-0.13568322270542454,-0.015686274509803866,0.9929961089494164
1688152512021537,-0.13873502708476382,-0.013244831006332447,0.9899443045700771
1688152512037540,-0.1366598001068131,-0.015686274509803866,0.9900663767452507
1688152512053558,-0.1350728618295567,-0.017639429312581,0.9929961089494164
1688152512069561,-0.1359273670557717,-0.01617456321049815,0.9936064698252842
1688152512085563,-0.1392233157854581,-0.014221408407721015,0.9901884489204242
1688152512101566,-0.1366598001068131,-0.015686274509803866,0.9895780880445564
1688152512117569,-0.13556115053025097,-0.01739528496223386,0.9934843976501107
1688152512133571,-0.1354390783550774,-0.01739528496223386,0.9916533150225071
1688152512149574,-0.13824673838406953,-0.013366903181506018,0.99140917067216
1688152512165577,-0.1371480888075074,-0.013366903181506018,0.9909208819714657
1688152512181579,-0.13617151140611883,-0.017883573662928143,0.9926298924238957
1688152512197582,-0.13824673838406953,-0.01605249103532458,0.9929961089494164
1688152512213585,-0.13873502708476382,-0.01361104753185316,0.9925078202487221
1688152512229587,-0.13873502708476382,-0.015686274509803866,0.9904325932707714
1688152512245590,-0.13495078965438312,-0.017883573662928143,0.9932402532997635
1688152512261592,-0.1362935835812924,-0.016906996261539575,0.9928740367742428
1688152512277595,-0.1383688105592431,-0.014587624933241727,0.9887235828183414
1688152512293598,-0.13788052185854882,-0.01483176928358887,0.9904325932707714
1688152512309600,-0.13690394445716025,-0.018249790188448856,0.9933623254749371
1688152512325603,-0.1359273670557717,-0.01617456321049815,0.9932402532997635
1688152512341606,-0.1383688105592431,-0.015197985809109582,0.99140917067216
1688152512357608,-0.1375143053330281,-0.014587624933241727,0.9899443045700771
1688152512373626,-0.1359273670557717,-0.017761501487754572,0.9951934081025406
1688152512389629,-0.13446250095368883,-0.017029068436713146,0.9954375524528878
1688152512405632,-0.13946746013580524,-0.015320057984283153,0.9898222323949035
1688152512421634,-0.1366598001068131,-0.013855191882200302,0.9893339436942092
1688152512437637,-0.13531700617990383,-0.017273212787060288,0.9931181811245899
1688152512453640,-0.13495078965438312,-0.016906996261539575,0.9911650263218128
1688152512469642,-0.13812466620889596,-0.013488975356679589,0.9903105210955978
1688152512485645,-0.13824673838406953,-0.013122758831158876,0.9895780880445564
1688152512501648,-0.13409628442816812,-0.017883573662928143,0.9923857480735485
1688152512517650,-0.13617151140611883,-0.019104295414663852,0.9950713359273671
1688152512533653,-0.13763637750820168,-0.013855191882200302,0.9926298924238957
1688152512549656,-0.13739223315785454,-0.015930418860151008,0.9895780880445564
1688152512565658,-0.1359273670557717,-0.018249790188448856,0.9922636758983749
1688152512581661,-0.13690394445716025,-0.01861600671396957,0.9955596246280614
1688152512597664,-0.1400778210116731,-0.014709697108415298,0.9929961089494164
1688152512613666,-0.13849088273441668,-0.01361104753185316,0.9931181811245899
1688152512629669,-0.13580529488059812,-0.017273212787060288,0.9960479133287556
1688152512645671,-0.13556115053025097,-0.01739528496223386,0.9929961089494164
1688152512661674,-0.13702601663233382,-0.015075913633936011,0.9934843976501107
1688152512677677,-0.13775844968337525,-0.01495384145876244,0.9906767376211185
1688152512693695,-0.13360799572747384,-0.01751735713740743,0.9899443045700771
1688152512709698,-0.13482871747920955,-0.017273212787060288,0.990554665445945
1688152512725701,-0.1383688105592431,-0.013244831006332447,0.9925078202487221
1688152512741704,-0.1383688105592431,-0.013000686655985305,0.9906767376211185
1688152512757707,-0.13678187228198668,-0.015564202334630295,0.9904325932707714
1688152512773710,-0.1345845731288624,-0.017151140611886717,0.9962920576791028
1688152512789713,-0.13727016098268097,-0.014465552758068156,0.9931181811245899
1688152512805717,-0.13910124361028453,-0.01361104753185316,0.990554665445945
1688152512821720,-0.1366598001068131,-0.017273212787060288,0.9915312428473335
1688152512837723,-0.13556115053025097,-0.019348439765010994,0.9951934081025406
1688152512853726,-0.1380025940337224,-0.015320057984283153,0.9938506141756314
1688152512869729,-0.13971160448615239,-0.013122758831158876,0.9903105210955978
1688152512885732,-0.13568322270542454,-0.015808346684977437,0.9895780880445564
1688152512901735,-0.13641565575646597,-0.018127718013275285,0.9929961089494164
1688152512917739,-0.13861295490959025,-0.015930418860151008,0.9901884489204242
1688152512933742,-0.13861295490959025,-0.013977264057373873,0.9927519645990692
1688152512949745,-0.13702601663233382,-0.015686274509803866,0.9923857480735485
1688152512965748,-0.13568322270542454,-0.01739528496223386,0.9929961089494164
1688152512981751,-0.13849088273441668,-0.015564202334630295,0.9934843976501107
1688152512997754,-0.14032196536202024,-0.014343480582894585,0.9911650263218128
1688152513013763,-0.1366598001068131,-0.016784924086366004,0.9925078202487221
1688152513029766,-0.13678187228198668,-0.016784924086366004,0.9936064698252842
1688152513045769,-0.13690394445716025,-0.015320057984283153,0.9934843976501107
1688152513061772,-0.13739223315785454,-0.012756542305638163,0.9892118715190357
1688152513077776,-0.13556115053025097,-0.01617456321049815,0.9889677271686885
1688152513093779,-0.13653772793163954,-0.017639429312581,0.9978789959563592
1688152513109782,-0.1388570992599374,-0.013977264057373873,0.9912870984969864
1688152513125785,-0.1371480888075074,-0.013488975356679589,0.988845654993515
1688152513141788,-0.13568322270542454,-0.016906996261539575,0.9903105210955978
1688152513157791,-0.13519493400473026,-0.019714656290531707,0.9932402532997635
1688152513173794,-0.13983367666132596,-0.014587624933241727,0.990554665445945
1688152513189798,-0.13861295490959025,-0.012756542305638163,0.9904325932707714
1688152513205801,-0.13690394445716025,-0.016662851911192433,0.9948271915770199
1688152513221804,-0.13568322270542454,-0.016784924086366004,0.9933623254749371
1688152513237807,-0.13739223315785454,-0.015564202334630295,0.9925078202487221
1688152513253810,-0.13910124361028453,-0.012878614480811734,0.9894560158693828
1688152513269813,-0.1366598001068131,-0.01629663538567172,0.9922636758983749
1688152513285816,-0.13568322270542454,-0.01873807888914314,0.9936064698252842
1688152513301819,-0.13861295490959025,-0.015197985809109582,0.9899443045700771
1688152513317823,-0.1404440375371938,-0.015197985809109582,0.9899443045700771
1688152513333801,-0.13739223315785454,-0.017273212787060288,0.9910429541466392
1688152513349804,-0.13470664530403598,-0.016662851911192433,0.9925078202487221
1688152513365806,-0.1380025940337224,-0.01495384145876244,0.9934843976501107
1688152513381809,-0.13739223315785454,-0.013366903181506018,0.988845654993515
1688152513397812,-0.13788052185854882,-0.016662851911192433,0.9923857480735485
1688152513413814,-0.13580529488059812,-0.018127718013275285,0.9921416037232014
1688152513429817,-0.13702601663233382,-0.01629663538567172,0.9928740367742428
1688152513445819,-0.13946746013580524,-0.01483176928358887,0.9911650263218128
1688152513461822,-0.1380025940337224,-0.01617456321049815,0.9916533150225071
1688152513477825,-0.13580529488059812,-0.018371862363622427,0.9948271915770199
1688152513493827,-0.13727016098268097,-0.016540779736018862,0.9920195315480278
1688152513509830,-0.14068818188754095,-0.013366903181506018,0.9884794384679942
1688152513525833,-0.13690394445716025,-0.01495384145876244,0.9904325932707714
1688152513541835,-0.13519493400473026,-0.017273212787060288,0.9948271915770199
1688152513557838,-0.13739223315785454,-0.015442130159456724,0.9911650263218128
1688152513573841,-0.13702601663233382,-0.013000686655985305,0.9906767376211185
1688152513589843,-0.13739223315785454,-0.015075913633936011,0.9915312428473335
1688152513605846,-0.1345845731288624,-0.017273212787060288,0.9938506141756314
1688152513621849,-0.13482871747920955,-0.015808346684977437,0.9934843976501107
1688152513637851,-0.1388570992599374,-0.014587624933241727,0.9884794384679942
1688152513653869,-0.13702601663233382,-0.01495384145876244,0.9895780880445564
1688152513669872,-0.13580529488059812,-0.01739528496223386,0.9937285420004578
1688152513685876,-0.13739223315785454,-0.015686274509803866,0.9922636758983749
1688152513701879,-0.13995574883649953,-0.013488975356679589,0.9887235828183414
1688152513717882,-0.1383688105592431,-0.01483176928358887,0.9909208819714657
1688152513733885,-0.13470664530403598,-0.017761501487754572,0.9940947585259785
1688152513749888,-0.13727016098268097,-0.016906996261539575,0.9925078202487221
1688152513765891,-0.13727016098268097,-0.014221408407721015,0.9900663767452507
1688152513781894,-0.13690394445716025,-0.015564202334630295,0.9916533150225071
1688152513797897,-0.13556115053025097,-0.017883573662928143,0.9933623254749371
1688152513813901,-0.13702601663233382,-0.01629663538567172,0.9904325932707714
1688152513829904,-0.13934538796063167,-0.013488975356679589,0.98970016021973
1688152513845907,-0.13690394445716025,-0.014343480582894585,0.9925078202487221
1688152513861910,-0.13727016098268097,-0.017883573662928143,0.9947051194018464
1688152513877913,-0.13678187228198668,-0.016540779736018862,0.9918974593728542
1688152513893916,-0.14166475928892952,-0.014709697108415298,0.98970016021973
1688152513909919,-0.13910124361028453,-0.014709697108415298,0.9881132219424735
1688152513925922,-0.13519493400473026,-0.018249790188448856,0.9937285420004578
1688152513941926,-0.13690394445716025,-0.015564202334630295,0.9942168307011521
1688152513957929,-0.13934538796063167,-0.01373311970702673,0.9929961089494164
1688152513973938,-0.13775844968337525,-0.01641870756084529,0.990554665445945
1688152513989941,-0.13519493400473026,-0.01898222323949028,0.9934843976501107
1688152514005944,-0.13739223315785454,-0.016906996261539575,0.9945830472266728
1688152514021947,-0.1404440375371938,-0.01483176928358887,0.9916533150225071
1688152514037950,-0.13861295490959025,-0.015320057984283153,0.990554665445945
1688152514053953,-0.13531700617990383,-0.018371862363622427,0.9951934081025406
1688152514069956,-0.1342183566033417,-0.015075913633936011,0.9898222323949035
1688152514085960,-0.13763637750820168,-0.014343480582894585,0.98457312886244
1688152514101963,-0.14325169756618594,-0.013977264057373873,0.9892118715190357
1688152514117966,-0.13897917143511096,-0.016540779736018862,0.9961699855039292
1688152514133969,-0.13812466620889596,-0.015686274509803866,1.0009308003356985
1688152514149972,-0.14166475928892952,-0.010803387502861028,0.9942168307011521
1688152514165975,-0.1380025940337224,-0.014099336232547444,0.9975127794308385
1688152514181978,-0.13556115053025097,-0.018493934538795997,0.9951934081025406
1688152514197981,-0.13177691309987027,-0.019714656290531707,0.9956816968032349
1688152514213985,-0.13849088273441668,-0.015930418860151008,0.9925078202487221
1688152514229988,-0.13604943923094526,-0.013488975356679589,0.9864042114900435
1688152514245991,-0.13556115053025097,-0.019348439765010994,0.9926298924238957
1688152514261994,-0.13531700617990383,-0.015808346684977437,0.9909208819714657
1688152514277997,-0.13995574883649953,-0.013366903181506018,0.9911650263218128
1688152514294006,-0.13958953231097881,-0.01361104753185316,0.9882352941176471
1688152514310009,-0.1359273670557717,-0.015930418860151008,0.9929961089494164
1688152514326012,-0.1388570992599374,-0.016662851911192433,0.9959258411535821
1688152514342015,-0.1392233157854581,-0.01226825360494388,0.9923857480735485
1688152514358019,-0.13824673838406953,-0.015686274509803866,0.9925078202487221
1688152514374022,-0.13531700617990383,-0.01751735713740743,0.990554665445945
1688152514390025,-0.13604943923094526,-0.017151140611886717,0.9967803463797971
1688152514406028,-0.13727016098268097,-0.013855191882200302,0.9911650263218128
1688152514422031,-0.14019989318684667,-0.01373311970702673,0.9877470054169528
1688152514438034,-0.13702601663233382,-0.016906996261539575,0.9940947585259785
1688152514454037,-0.13690394445716025,-0.015808346684977437,0.9940947585259785
1688152514470040,-0.1388570992599374,-0.015442130159456724,0.9909208819714657
1688152514486044,-0.13861295490959025,-0.013366903181506018,0.9911650263218128
1688152514502047,-0.13604943923094526,-0.018127718013275285,0.9921416037232014
1688152514518050,-0.13470664530403598,-0.01861600671396957,0.9918974593728542
1688152514534053,-0.13580529488059812,-0.015320057984283153,0.9898222323949035
1688152514550056,-0.14251926451514452,-0.013855191882200302,0.9872587167162585
1688152514566059,-0.1366598001068131,-0.018005645838101714,0.98970016021973
1688152514582062,-0.13873502708476382,-0.015564202334630295,0.9969024185549706
1688152514598065,-0.13873502708476382,-0.011535820553902454,0.9926298924238957
1688152514614074,-0.13690394445716025,-0.012878614480811734,0.9943389028763256
1688152514630077,-0.13604943923094526,-0.017029068436713146,0.9943389028763256
1688152514646081,-0.13531700617990383,-0.01898222323949028,0.9958037689784085
1688152514662084,-0.13983367666132596,-0.01495384145876244,0.9937285420004578
1688152514678087,-0.13617151140611883,-0.015075913633936011,0.9900663767452507
1688152514694090,-0.1354390783550774,-0.019104295414663852,0.9900663767452507
1688152514710093,-0.13653772793163954,-0.018493934538795997,0.9894560158693828
1688152514726096,-0.1388570992599374,-0.015442130159456724,0.9916533150225071
1688152514742099,-0.1400778210116731,-0.013366903181506018,0.9898222323949035
1688152514758103,-0.13409628442816812,-0.018127718013275285,0.9918974593728542
1688152514774106,-0.1375143053330281,-0.01886015106431671,0.9955596246280614
1688152514790109,-0.1383688105592431,-0.013366903181506018,0.9915312428473335
1688152514806112,-0.13861295490959025,-0.014221408407721015,0.9921416037232014
1688152514822115,-0.13727016098268097,-0.01641870756084529,0.9884794384679942
1688152514838118,-0.13385214007782098,-0.016784924086366004,0.9944609750514992
1688152514854121,-0.1392233157854581,-0.014587624933241727,0.9922636758983749
1688152514870124,-0.1380025940337224,-0.014221408407721015,0.9895780880445564
1688152514886128,-0.13641565575646597,-0.018249790188448856,0.9917753871976807
1688152514902131,-0.13470664530403598,-0.01617456321049815,0.9920195315480278
1688152514918134,-0.1375143053330281,-0.015075913633936011,0.9929961089494164
1688152514934143,-0.13934538796063167,-0.012634470130464592,0.9892118715190357
1688152514950146,-0.13641565575646597,-0.01605249103532458,0.9893339436942092
1688152514966149,-0.13580529488059812,-0.01861600671396957,0.9954375524528878
1688152514982152,-0.13861295490959025,-0.014343480582894585,0.9911650263218128
1688152514998155,-0.1409323262378881,-0.014709697108415298,0.9889677271686885
1688152515014158,-0.13556115053025097,-0.016784924086366004,0.9916533150225071
1688152515030161,-0.1380025940337224,-0.019104295414663852,0.9954375524528878
1688152515046165,-0.14068818188754095,-0.01361104753185316,0.9901884489204242
1688152515062168,-0.14142061493858238,-0.011657892729076025,0.9967803463797971
1688152515078171,-0.13910124361028453,-0.015197985809109582,0.9971465629053178
1688152515094174,-0.13385214007782098,-0.02032501716639956,0.9994659342336156
1688152515110177,-0.13690394445716025,-0.018127718013275285,0.9928740367742428
1688152515126180,-0.1371480888075074,-0.01629663538567172,0.98970016021973
1688152515142183,-0.1366598001068131,-0.01873807888914314,0.9895780880445564
1688152515158187,-0.13360799572747384,-0.019836728465705278,0.9887235828183414
1688152515174190,-0.13873502708476382,-0.019348439765010994,0.9901884489204242
1688152515190193,-0.14019989318684667,-0.012512397955291021,0.9859159227893493
1688152515206196,-0.1375143053330281,-0.01641870756084529,0.9923857480735485
1688152515222199,-0.13604943923094526,-0.017029068436713146,0.9934843976501107
1688152515238202,-0.13482871747920955,-0.014465552758068156,0.9925078202487221
1688152515254211,-0.13910124361028453,-0.01495384145876244,0.9925078202487221
1688152515270214,-0.13568322270542454,-0.01629663538567172,0.9918974593728542
1688152515286217,-0.13556115053025097,-0.019714656290531707,0.9966582742046235
1688152515302220,-0.13861295490959025,-0.01629663538567172,0.9894560158693828
1688152515318224,-0.13849088273441668,-0.01483176928358887,0.9881132219424735
1688152515334227,-0.13873502708476382,-0.015808346684977437,0.990554665445945
1688152515350230,-0.1366598001068131,-0.018371862363622427,0.9931181811245899
1688152515366233,-0.13788052185854882,-0.01629663538567172,0.9917753871976807
1688152515382236,-0.13897917143511096,-0.014343480582894585,0.9887235828183414
1688152515398239,-0.1375143053330281,-0.015320057984283153,0.9937285420004578
1688152515414242,-0.13702601663233382,-0.018249790188448856,0.9939726863508049
1688152515430246,-0.13727016098268097,-0.01605249103532458,0.9960479133287556
1688152515446249,-0.13861295490959025,-0.01373311970702673,0.9915312428473335
1688152515462252,-0.13775844968337525,-0.01629663538567172,0.9927519645990692
1688152515478255,-0.1366598001068131,-0.018127718013275285,0.99140917067216
1688152515494258,-0.13678187228198668,-0.015686274509803866,0.9922636758983749
1688152515510261,-0.1380025940337224,-0.013366903181506018,0.9916533150225071
1688152515526264,-0.1366598001068131,-0.01495384145876244,0.9912870984969864
1688152515542267,-0.13556115053025097,-0.017151140611886717,0.9964141298542764
1688152515558271,-0.13690394445716025,-0.015808346684977437,0.9921416037232014
1688152515574279,-0.13934538796063167,-0.013244831006332447,0.9890897993438621
1688152515590283,-0.1366598001068131,-0.015686274509803866,0.9910429541466392
1688152515606286,-0.13470664530403598,-0.017273212787060288,0.9931181811245899
1688152515622289,-0.13812466620889596,-0.013977264057373873,0.9912870984969864
1688152515638292,-0.13934538796063167,-0.013122758831158876,0.9921416037232014
1688152515654295,-0.13690394445716025,-0.014709697108415298,0.9925078202487221
1688152515670298,-0.13311970702677955,-0.017761501487754572,0.9956816968032349
1688152515686301,-0.13434042877851526,-0.018493934538795997,0.9970244907301442
1688152515702304,-0.13678187228198668,-0.014099336232547444,0.9918974593728542
1688152515718308,-0.13763637750820168,-0.018005645838101714,0.9909208819714657
1688152515734311,-0.13385214007782098,-0.018371862363622427,0.9904325932707714
1688152515750314,-0.13727016098268097,-0.017029068436713146,0.9904325932707714
1688152515766317,-0.13958953231097881,-0.012878614480811734,0.9865262836652171
1688152515782320,-0.13873502708476382,-0.01495384145876244,0.9909208819714657
1688152515798323,-0.13641565575646597,-0.015442130159456724,0.9932402532997635
1688152515814326,-0.13678187228198668,-0.01641870756084529,0.9937285420004578
1688152515830330,-0.13861295490959025,-0.014221408407721015,0.9929961089494164
1688152515846333,-0.13861295490959025,-0.013366903181506018,0.9929961089494164
1688152515862336,-0.13568322270542454,-0.017029068436713146,0.9933623254749371
1688152515878339,-0.1383688105592431,-0.015564202334630295,0.9922636758983749
1688152515894348,-0.13910124361028453,-0.01373311970702673,0.9911650263218128
1688152515910351,-0.13849088273441668,-0.015564202334630295,0.9925078202487221
1688152515926354,-0.13519493400473026,-0.017029068436713146,0.9937285420004578
1688152515942357,-0.13678187228198668,-0.016662851911192433,0.9926298924238957
1688152515958360,-0.13910124361028453,-0.013244831006332447,0.9922636758983749
1688152515974363,-0.13812466620889596,-0.01495384145876244,0.990554665445945
1688152515990367,-0.13641565575646597,-0.016906996261539575,0.9942168307011521
1688152516006370,-0.13775844968337525,-0.015930418860151008,0.9928740367742428
1688152516022373,-0.13995574883649953,-0.016784924086366004,0.9912870984969864
1688152516038376,-0.1388570992599374,-0.015075913633936011,0.9900663767452507
1688152516054379,-0.1354390783550774,-0.01898222323949028,0.9927519645990692
1688152516070382,-0.1375143053330281,-0.018005645838101714,0.9950713359273671
1688152516086385,-0.1383688105592431,-0.013488975356679589,0.9904325932707714
1688152516102388,-0.13739223315785454,-0.01373311970702673,0.9884794384679942
1688152516118392,-0.13653772793163954,-0.018005645838101714,0.9923857480735485
1688152516134395,-0.1366598001068131,-0.016784924086366004,0.9928740367742428
1688152516150398,-0.13727016098268097,-0.013488975356679589,0.9907988097962921
1688152516166401,-0.1388570992599374,-0.015197985809109582,0.9909208819714657
1688152516182404,-0.13531700617990383,-0.018005645838101714,0.9944609750514992
1688152516198407,-0.13775844968337525,-0.01641870756084529,0.9944609750514992
1688152516214416,-0.13958953231097881,-0.013244831006332447,0.9898222323949035
1688152516230419,-0.13897917143511096,-0.014221408407721015,0.9901884489204242
1688152516246422,-0.13678187228198668,-0.016906996261539575,0.9910429541466392
1688152516262426,-0.1380025940337224,-0.018249790188448856,0.9917753871976807
1688152516278429,-0.1383688105592431,-0.014343480582894585,0.9910429541466392
1688152516294432,-0.1380025940337224,-0.013244831006332447,0.9911650263218128
1688152516310435,-0.1354390783550774,-0.017151140611886717,0.9931181811245899
1688152516326438,-0.1366598001068131,-0.015930418860151008,0.9951934081025406
1688152516342441,-0.1404440375371938,-0.014221408407721015,0.9911650263218128
1688152516358444,-0.1375143053330281,-0.01373311970702673,0.9912870984969864
1688152516374447,-0.13446250095368883,-0.016662851911192433,0.9921416037232014
1688152516390451,-0.13604943923094526,-0.016906996261539575,0.9929961089494164
1688152516406454,-0.13897917143511096,-0.013244831006332447,0.9898222323949035
1688152516422457,-0.1392233157854581,-0.014343480582894585,0.9915312428473335
1688152516438460,-0.13580529488059812,-0.01751735713740743,0.9942168307011521
1688152516454463,-0.1359273670557717,-0.017273212787060288,0.9960479133287556
1688152516470466,-0.13824673838406953,-0.014709697108415298,0.9932402532997635
1688152516486469,-0.1392233157854581,-0.013000686655985305,0.9900663767452507
1688152516502473,-0.1350728618295567,-0.016906996261539575,0.9906767376211185
1688152516518476,-0.13519493400473026,-0.018249790188448856,0.9953154802777142
1688152516534484,-0.13812466620889596,-0.014587624933241727,0.9911650263218128
1688152516550488,-0.13897917143511096,-0.01373311970702673,0.9890897993438621
1688152516566491,-0.13617151140611883,-0.016906996261539575,0.9938506141756314
1688152516582494,-0.1366598001068131,-0.018249790188448856,0.9938506141756314
1688152516598497,-0.13910124361028453,-0.013488975356679589,0.9922636758983749
1688152516614500,-0.13910124361028453,-0.013977264057373873,0.9892118715190357
1688152516630503,-0.13556115053025097,-0.01751735713740743,0.9923857480735485
1688152516646506,-0.13568322270542454,-0.01617456321049815,0.9931181811245899
1688152516662510,-0.1392233157854581,-0.013122758831158876,0.9921416037232014
1688152516678513,-0.13873502708476382,-0.012512397955291021,0.98970016021973
1688152516694516,-0.13482871747920955,-0.017883573662928143,0.9928740367742428
1688152516710519,-0.13568322270542454,-0.018493934538795997,0.9943389028763256
1688152516726522,-0.13690394445716025,-0.015075913633936011,0.99140917067216
1688152516742525,-0.1392233157854581,-0.013244831006332447,0.9887235828183414
1688152516758528,-0.13495078965438312,-0.01641870756084529,0.9907988097962921
1688152516774531,-0.13641565575646597,-0.017639429312581,0.9958037689784085
1688152516790535,-0.13788052185854882,-0.013977264057373873,0.9909208819714657
1688152516806538,-0.14032196536202024,-0.013855191882200302,0.9915312428473335
1688152516822541,-0.13763637750820168,-0.017029068436713146,0.9906767376211185
1688152516838544,-0.1350728618295567,-0.018371862363622427,0.9964141298542764
1688152516854553,-0.1388570992599374,-0.01361104753185316,0.9886015106431678
1688152516870556,-0.1380025940337224,-0.01226825360494388,0.9887235828183414
1688152516886559,-0.13763637750820168,-0.01751735713740743,0.9925078202487221
1688152516902562,-0.13446250095368883,-0.019836728465705278,0.9955596246280614
1688152516918565,-0.13849088273441668,-0.015442130159456724,0.9948271915770199
1688152516934569,-0.13958953231097881,-0.013366903181506018,0.9910429541466392
1688152516950572,-0.13519493400473026,-0.016784924086366004,0.9925078202487221
1688152516966575,-0.13580529488059812,-0.01861600671396957,0.9962920576791028
1688152516982578,-0.13861295490959025,-0.015808346684977437,0.9922636758983749
1688152516998581,-0.14056610971236738,-0.012634470130464592,0.9892118715190357
1688152517014584,-0.13812466620889596,-0.017151140611886717,0.9893339436942092
1688152517030587,-0.13482871747920955,-0.018005645838101714,0.9931181811245899
1688152517046590,-0.13849088273441668,-0.015197985809109582,0.9904325932707714
1688152517062594,-0.14081025406271452,-0.013000686655985305,0.9901884489204242
1688152517078597,-0.13690394445716025,-0.01617456321049815,0.9909208819714657
1688152517094600,-0.1350728618295567,-0.018005645838101714,0.9942168307011521
1688152517110603,-0.13788052185854882,-0.015930418860151008,0.9925078202487221
1688152517126606,-0.14068818188754095,-0.013855191882200302,0.9886015106431678
1688152517142609,-0.13775844968337525,-0.01641870756084529,0.9911650263218128
1688152517158612,-0.1342183566033417,-0.019592584115358136,0.9948271915770199
1688152517174621,-0.1359273670557717,-0.016662851911192433,0.9916533150225071
1688152517190624,-0.14166475928892952,-0.011657892729076025,0.9882352941176471
1688152517206627,-0.13775844968337525,-0.015686274509803866,0.9910429541466392
1688152517222631,-0.1366598001068131,-0.018127718013275285,0.9962920576791028
1688152517238634,-0.13861295490959025,-0.014709697108415298,0.9915312428473335
1688152517254637,-0.1404440375371938,-0.012878614480811734,0.9927519645990692
1688152517270640,-0.1375143053330281,-0.015564202334630295,0.988845654993515
1688152517286643,-0.13385214007782098,-0.019714656290531707,0.9972686350804914
1688152517302646,-0.13775844968337525,-0.017151140611886717,0.9936064698252842
1688152517318649,-0.13897917143511096,-0.013122758831158876,0.9901884489204242
1688152517334653,-0.1383688105592431,-0.017029068436713146,0.9925078202487221
1688152517350656,-0.13409628442816812,-0.017761501487754572,0.9917753871976807
1688152517366659,-0.13788052185854882,-0.018249790188448856,0.9938506141756314
1688152517382662,-0.14081025406271452,-0.013122758831158876,0.98970016021973
1688152517398665,-0.13910124361028453,-0.015075913633936011,0.9920195315480278
1688152517414668,-0.13763637750820168,-0.01873807888914314,0.9947051194018464
1688152517430671,-0.13678187228198668,-0.015197985809109582,0.9947051194018464
1688152517446674,-0.14081025406271452,-0.015197985809109582,0.9922636758983749
1688152517462678,-0.1375143053330281,-0.01629663538567172,0.9918974593728542
1688152517478681,-0.1359273670557717,-0.019226367589837423,0.9933623254749371
1688152517494690,-0.13727016098268097,-0.017639429312581,0.9920195315480278
1688152517510693,-0.13910124361028453,-0.014465552758068156,0.9895780880445564
1688152517526696,-0.13849088273441668,-0.015442130159456724,0.9915312428473335
1688152517542699,-0.1345845731288624,-0.018371862363622427,0.9939726863508049
1688152517558702,-0.1375143053330281,-0.017029068436713146,0.9936064698252842
1688152517574705,-0.13812466620889596,-0.01373311970702673,0.9911650263218128
1688152517590708,-0.13983367666132596,-0.013977264057373873,0.9898222323949035
1688152517606711,-0.13604943923094526,-0.016540779736018862,0.9916533150225071
1688152517622715,-0.13641565575646597,-0.016662851911192433,0.9958037689784085
1688152517638718,-0.13983367666132596,-0.013366903181506018,0.9929961089494164
1688152517654721,-0.1380025940337224,-0.014221408407721015,0.99140917067216
1688152517670724,-0.13556115053025097,-0.017761501487754572,0.9942168307011521
1688152517686727,-0.13604943923094526,-0.017761501487754572,0.9925078202487221
1688152517702730,-0.13971160448615239,-0.014099336232547444,0.9907988097962921
1688152517718733,-0.13824673838406953,-0.014709697108415298,0.9894560158693828
1688152517734737,-0.13446250095368883,-0.01898222323949028,0.9971465629053178
1688152517750740,-0.13739223315785454,-0.017639429312581,0.9928740367742428
1688152517766743,-0.13812466620889596,-0.01373311970702673,0.9857938506141757
1688152517782746,-0.13788052185854882,-0.017273212787060288,0.9864042114900435
1688152517798749,-0.1362935835812924,-0.018493934538795997,0.9893339436942092
1688152517814758,-0.1383688105592431,-0.01629663538567172,0.9918974593728542
1688152517830761,-0.1409323262378881,-0.010193026626993174,0.9890897993438621
1688152517846764,-0.13897917143511096,-0.013244831006332447,0.9920195315480278
1688152517862767,-0.1371480888075074,-0.01751735713740743,0.9956816968032349
1688152517878770,-0.13702601663233382,-0.016784924086366004,0.9964141298542764
1688152517894774,-0.13946746013580524,-0.013244831006332447,0.9937285420004578
1688152517910777,-0.1366598001068131,-0.01483176928358887,0.9899443045700771
1688152517926780,-0.13617151140611883,-0.019714656290531707,0.9920195315480278
1688152517942783,-0.13604943923094526,-0.017273212787060288,0.9906767376211185
1688152517958786,-0.1400778210116731,-0.01361104753185316,0.990554665445945
1688152517974789,-0.13763637750820168,-0.015320057984283153,0.9894560158693828
1688152517990792,-0.1350728618295567,-0.01861600671396957,0.9936064698252842
1688152518006796,-0.13873502708476382,-0.01751735713740743,0.9903105210955978
1688152518022799,-0.1388570992599374,-0.012756542305638163,0.9903105210955978
1688152518038802,-0.14105439841306167,-0.01373311970702673,0.9922636758983749
1688152518054805,-0.1362935835812924,-0.01641870756084529,0.9920195315480278
1688152518070808,-0.13824673838406953,-0.01739528496223386,0.9932402532997635
1688152518086811,-0.1388570992599374,-0.013366903181506018,0.9882352941176471
1688152518102814,-0.13849088273441668,-0.015197985809109582,0.9906767376211185
1688152518118817,-0.13653772793163954,-0.017273212787060288,0.9939726863508049
1688152518134826,-0.13604943923094526,-0.017883573662928143,0.9916533150225071
1688152518150829,-0.13983367666132596,-0.014221408407721015,0.9890897993438621
1688152518166833,-0.13958953231097881,-0.014465552758068156,0.9904325932707714
1688152518182836,-0.13617151140611883,-0.01751735713740743,0.9929961089494164
1688152518198839,-0.1362935835812924,-0.017029068436713146,0.9920195315480278
1688152518214842,-0.1383688105592431,-0.011902037079423167,0.9928740367742428
1688152518230845,-0.13812466620889596,-0.012512397955291021,0.9900663767452507
1688152518246848,-0.13519493400473026,-0.01751735713740743,0.9923857480735485
1688152518262851,-0.1359273670557717,-0.01641870756084529,0.9939726863508049
1688152518278854,-0.1388570992599374,-0.013366903181506018,0.9923857480735485
1688152518294858,-0.13763637750820168,-0.011902037079423167,0.9910429541466392
1688152518310861,-0.13385214007782098,-0.01641870756084529,0.9933623254749371
1688152518326864,-0.1366598001068131,-0.018127718013275285,0.9955596246280614
1688152518342867,-0.13727016098268097,-0.014343480582894585,0.9912870984969864
1688152518358870,-0.13897917143511096,-0.015686274509803866,0.9881132219424735
1688152518374873,-0.13482871747920955,-0.017029068436713146,0.9931181811245899
1688152518390876,-0.1371480888075074,-0.017639429312581,0.9950713359273671
1688152518406880,-0.1383688105592431,-0.013000686655985305,0.9906767376211185
1688152518422883,-0.13873502708476382,-0.014221408407721015,0.9910429541466392
1688152518438886,-0.13568322270542454,-0.01483176928358887,0.9918974593728542
1688152518454864,-0.13580529488059812,-0.017151140611886717,0.9934843976501107
1688152518470867,-0.13824673838406953,-0.01373311970702673,0.9893339436942092
1688152518486870,-0.13849088273441668,-0.01239032578011745,0.9895780880445564
1688152518502874,-0.13739223315785454,-0.016906996261539575,0.9899443045700771
1688152518518877,-0.13568322270542454,-0.018005645838101714,0.9936064698252842
1688152518534880,-0.13934538796063167,-0.01483176928358887,0.9920195315480278
1688152518550883,-0.13934538796063167,-0.013977264057373873,0.9912870984969864
1688152518566886,-0.13580529488059812,-0.016784924086366004,0.9933623254749371
1688152518582889,-0.13568322270542454,-0.016906996261539575,0.9953154802777142
1688152518598892,-0.13812466620889596,-0.012634470130464592,0.9916533150225071
1688152518614895,-0.13995574883649953,-0.014221408407721015,0.988845654993515
1688152518630899,-0.1362935835812924,-0.015930418860151008,0.9904325932707714
1688152518646902,-0.1359273670557717,-0.016784924086366004,0.9947051194018464
1688152518662905,-0.1383688105592431,-0.013244831006332447,0.9912870984969864
1688152518678908,-0.1404440375371938,-0.013244831006332447,0.9909208819714657
1688152518694911,-0.13690394445716025,-0.015442130159456724,0.9937285420004578
1688152518710914,-0.13653772793163954,-0.018127718013275285,0.9928740367742428
1688152518726917,-0.1380025940337224,-0.015075913633936011,0.9917753871976807
1688152518742921,-0.1388570992599374,-0.01483176928358887,0.9906767376211185
1688152518758924,-0.13678187228198668,-0.01605249103532458,0.9912870984969864
1688152518774932,-0.13653772793163954,-0.01739528496223386,0.9940947585259785
1688152518790936,-0.13861295490959025,-0.014221408407721015,0.9901884489204242
1688152518806939,-0.14117647058823524,-0.013488975356679589,0.9899443045700771
1688152518822942,-0.13653772793163954,-0.01629663538567172,0.9945830472266728
1688152518838945,-0.1371480888075074,-0.017761501487754572,0.9942168307011521
1688152518854948,-0.13983367666132596,-0.013366903181506018,0.9944609750514992
1688152518870951,-0.13812466620889596,-0.012512397955291021,0.9889677271686885
1688152518886954,-0.13495078965438312,-0.017761501487754572,0.9929961089494164
1688152518902958,-0.13727016098268097,-0.018005645838101714,0.9922636758983749
1688152518918961,-0.13580529488059812,-0.015686274509803866,0.9920195315480278
1688152518934964,-0.13958953231097881,-0.015930418860151008,0.9901884489204242
1688152518950967,-0.1366598001068131,-0.015075913633936011,0.9912870984969864
1688152518966970,-0.13604943923094526,-0.018005645838101714,0.9975127794308385
1688152518982973,-0.13775844968337525,-0.015564202334630295,0.9903105210955978
1688152518998976,-0.1388570992599374,-0.012756542305638163,0.9938506141756314
1688152519014979,-0.13739223315785454,-0.016662851911192433,0.9926298924238957
1688152519030983,-0.13275349050125884,-0.018127718013275285,0.9940947585259785
1688152519046986,-0.13812466620889596,-0.015320057984283153,0.9915312428473335
1688152519062989,-0.13824673838406953,-0.013855191882200302,0.9877470054169528
1688152519078992,-0.13861295490959025,-0.01739528496223386,0.9921416037232014
1688152519095001,-0.13556115053025097,-0.018249790188448856,0.9944609750514992
1688152519111004,-0.13861295490959025,-0.01617456321049815,0.9929961089494164
1688152519127007,-0.13995574883649953,-0.015197985809109582,0.9893339436942092
1688152519143010,-0.13617151140611883,-0.01605249103532458,0.9920195315480278
1688152519159013,-0.1359273670557717,-0.01751735713740743,0.9916533150225071
1688152519175017,-0.1375143053330281,-0.014709697108415298,0.9940947585259785
1688152519191020,-0.13897917143511096,-0.01239032578011745,0.9899443045700771
1688152519207023,-0.13775844968337525,-0.014465552758068156,0.9927519645990692
1688152519223026,-0.13641565575646597,-0.018493934538795997,0.9948271915770199
1688152519239029,-0.1366598001068131,-0.01605249103532458,0.9912870984969864
1688152519255032,-0.13910124361028453,-0.014465552758068156,0.990554665445945
1688152519271035,-0.13763637750820168,-0.013977264057373873,0.9910429541466392
1688152519287038,-0.13604943923094526,-0.01641870756084529,0.9944609750514992
1688152519303042,-0.1366598001068131,-0.01605249103532458,0.99140917067216
1688152519319045,-0.13995574883649953,-0.01373311970702673,0.9903105210955978
1688152519335048,-0.1380025940337224,-0.01483176928358887,0.9920195315480278
1688152519351051,-0.13446250095368883,-0.017883573662928143,0.9933623254749371
1688152519367054,-0.13727016098268097,-0.01361104753185316,0.9925078202487221
1688152519383057,-0.13897917143511096,-0.012634470130464592,0.9915312428473335
1688152519399060,-0.1375143053330281,-0.01751735713740743,0.9903105210955978
1688152519415069,-0.1359273670557717,-0.017151140611886717,0.9934843976501107
1688152519431072,-0.13739223315785454,-0.015197985809109582,0.9916533150225071
1688152519447075,-0.13897917143511096,-0.01361104753185316,0.9912870984969864
1688152519463079,-0.13702601663233382,-0.015320057984283153,0.98970016021973
1688152519479082,-0.13641565575646597,-0.016906996261539575,0.9939726863508049
1688152519495085,-0.13702601663233382,-0.01605249103532458,0.9927519645990692
1688152519511088,-0.14019989318684667,-0.013977264057373873,0.9907988097962921
1688152519527091,-0.13690394445716025,-0.013366903181506018,0.9898222323949035
1688152519543094,-0.1345845731288624,-0.01605249103532458,0.9945830472266728
1688152519559097,-0.13739223315785454,-0.016662851911192433,0.9932402532997635
1688152519575101,-0.1404440375371938,-0.012634470130464592,0.9889677271686885
1688152519591104,-0.1380025940337224,-0.015930418860151008,0.9922636758983749
1688152519607107,-0.13641565575646597,-0.016784924086366004,0.9940947585259785
1688152519623110,-0.1375143053330281,-0.01617456321049815,0.9928740367742428
1688152519639113,-0.13971160448615239,-0.013122758831158876,0.9906767376211185
1688152519655116,-0.13995574883649953,-0.01617456321049815,0.9917753871976807
1688152519671119,-0.13580529488059812,-0.017883573662928143,0.9928740367742428
1688152519687122,-0.1362935835812924,-0.015075913633936011,0.9927519645990692
1688152519703126,-0.1375143053330281,-0.01226825360494388,0.9893339436942092
1688152519719129,-0.13897917143511096,-0.014465552758068156,0.9911650263218128
1688152519735138,-0.13470664530403598,-0.017029068436713146,0.9927519645990692
1688152519751141,-0.13788052185854882,-0.01605249103532458,0.9929961089494164
1688152519767144,-0.1392233157854581,-0.012634470130464592,0.9929961089494164
1688152519783147,-0.13763637750820168,-0.015442130159456724,0.9904325932707714
1688152519799150,-0.13409628442816812,-0.01886015106431671,0.9948271915770199
1688152519815153,-0.13739223315785454,-0.015320057984283153,0.9926298924238957
1688152519831156,-0.14081025406271452,-0.014465552758068156,0.9923857480735485
1688152519847159,-0.13617151140611883,-0.014343480582894585,0.9921416037232014
1688152519863163,-0.13397421225299455,-0.017761501487754572,0.9936064698252842
1688152519879166,-0.13641565575646597,-0.01617456321049815,0.9934843976501107
1688152519895169,-0.1392233157854581,-0.014465552758068156,0.9906767376211185
1688152519911172,-0.1380025940337224,-0.015686274509803866,0.9884794384679942
1688152519927175,-0.1350728618295567,-0.019226367589837423,0.9956816968032349
1688152519943178,-0.13556115053025097,-0.015930418860151008,0.9981231403067063
1688152519959181,-0.13775844968337525,-0.013977264057373873,0.9944609750514992
1688152519975185,-0.13812466620889596,-0.01239032578011745,0.98970016021973
1688152519991188,-0.1371480888075074,-0.01886015106431671,0.9942168307011521
1688152520007191,-0.13763637750820168,-0.017273212787060288,0.9960479133287556
1688152520023194,-0.1404440375371938,-0.014343480582894585,0.9937285420004578
1688152520039197,-0.13849088273441668,-0.01495384145876244,0.9918974593728542
1688152520055206,-0.1333638513771267,-0.019836728465705278,0.9953154802777142
1688152520071209,-0.1366598001068131,-0.018005645838101714,0.9949492637521935
1688152520087212,-0.1371480888075074,-0.015564202334630295,0.9895780880445564
1688152520103215,-0.13934538796063167,-0.014709697108415298,0.9900663767452507
1688152520119218,-0.13470664530403598,-0.017639429312581,0.990554665445945
1688152520135222,-0.13678187228198668,-0.01751735713740743,0.9928740367742428
1688152520151225,-0.1400778210116731,-0.01373311970702673,0.9882352941176471
1688152520167228,-0.13995574883649953,-0.01239032578011745,0.9921416037232014
1688152520183231,-0.13824673838406953,-0.01641870756084529,0.9928740367742428
1688152520199234,-0.1345845731288624,-0.017029068436713146,0.9958037689784085
1688152520215237,-0.13812466620889596,-0.014221408407721015,0.9903105210955978
1688152520231240,-0.1388570992599374,-0.01373311970702673,0.9918974593728542
1688152520247244,-0.13653772793163954,-0.01861600671396957,0.9954375524528878
1688152520263247,-0.1354390783550774,-0.01605249103532458,0.9934843976501107
1688152520279250,-0.13934538796063167,-0.01373311970702673,0.9949492637521935
1688152520295253,-0.13946746013580524,-0.013488975356679589,0.9898222323949035
1688152520311256,-0.13653772793163954,-0.017273212787060288,0.9940947585259785
1688152520327259,-0.1362935835812924,-0.018127718013275285,0.9949492637521935
1688152520343262,-0.13983367666132596,-0.012512397955291021,0.9909208819714657
1688152520359265,-0.1383688105592431,-0.013122758831158876,0.99140917067216
1688152520375274,-0.13482871747920955,-0.015930418860151008,0.9951934081025406
1688152520391277,-0.13617151140611883,-0.017029068436713146,0.9955596246280614
1688152520407281,-0.1388570992599374,-0.01373311970702673,0.9933623254749371
1688152520423284,-0.13934538796063167,-0.012878614480811734,0.990554665445945
1688152520439287,-0.13690394445716025,-0.015930418860151008,0.9932402532997635
1688152520455290,-0.1362935835812924,-0.01739528496223386,0.9933623254749371
1688152520471293,-0.1383688105592431,-0.01495384145876244,0.9928740367742428
1688152520487296,-0.13946746013580524,-0.012756542305638163,0.9927519645990692
1688152520503299,-0.13702601663233382,-0.015686274509803866,0.9900663767452507
1688152520519302,-0.13446250095368883,-0.01751735713740743,0.9920195315480278
1688152520535306,-0.13983367666132596,-0.015075913633936011,0.99140917067216
1688152520551309,-0.13861295490959025,-0.011902037079423167,0.988845654993515
1688152520567312,-0.13739223315785454,-0.01617456321049815,0.9939726863508049
1688152520583315,-0.13580529488059812,-0.01605249103532458,0.9948271915770199
1688152520599318,-0.13983367666132596,-0.014099336232547444,0.9928740367742428
1688152520615321,-0.1404440375371938,-0.01226825360494388,0.9901884489204242
1688152520631324,-0.13678187228198668,-0.018005645838101714,0.9928740367742428
1688152520647328,-0.13739223315785454,-0.01751735713740743,0.9929961089494164
1688152520663331,-0.13702601663233382,-0.014587624933241727,0.9906767376211185
1688152520679334,-0.1388570992599374,-0.01617456321049815,0.9887235828183414
1688152520695343,-0.13531700617990383,-0.017151140611886717,0.9910429541466392
1688152520711346,-0.1371480888075074,-0.019592584115358136,0.9944609750514992
1688152520727349,-0.13763637750820168,-0.01641870756084529,0.9931181811245899
1688152520743352,-0.13995574883649953,-0.01495384145876244,0.9890897993438621
1688152520759355,-0.13849088273441668,-0.01641870756084529,0.9917753871976807
1688152520775358,-0.13531700617990383,-0.017761501487754572,0.9948271915770199
1688152520791361,-0.13873502708476382,-0.015686274509803866,0.9928740367742428
1688152520807365,-0.13910124361028453,-0.013855191882200302,0.9922636758983749
1688152520823368,-0.1366598001068131,-0.015808346684977437,0.9925078202487221
1688152520839371,-0.13568322270542454,-0.01751735713740743,0.9926298924238957
1688152520855374,-0.13824673838406953,-0.015197985809109582,0.9918974593728542
1688152520871377,-0.14081025406271452,-0.013122758831158876,0.9927519645990692
1688152520887380,-0.13727016098268097,-0.016784924086366004,0.9923857480735485
1688152520903383,-0.13482871747920955,-0.01751735713740743,0.9964141298542764
1688152520919386,-0.13873502708476382,-0.01483176928358887,0.9922636758983749
1688152520935390,-0.13983367666132596,-0.015075913633936011,0.9900663767452507
1688152520951393,-0.13604943923094526,-0.018005645838101714,0.9879911497673
1688152520967396,-0.13495078965438312,-0.01861600671396957,0.9961699855039292
1688152520983399,-0.1383688105592431,-0.015564202334630295,0.9925078202487221
1688152520999402,-0.13763637750820168,-0.013488975356679589,0.9898222323949035
1688152521015411,-0.13775844968337525,-0.01605249103532458,0.9918974593728542
1688152521031414,-0.1371480888075074,-0.017151140611886717,0.9900663767452507
1688152521047417,-0.13897917143511096,-0.01617456321049815,0.9917753871976807
1688152521063420,-0.13971160448615239,-0.011902037079423167,0.9883573662928207
1688152521079424,-0.13653772793163954,-0.015442130159456724,0.9932402532997635
1688152521095427,-0.1362935835812924,-0.018371862363622427,0.9936064698252842
1688152521111430,-0.13763637750820168,-0.01629663538567172,0.9938506141756314
1688152521127433,-0.1400778210116731,-0.01361104753185316,0.9892118715190357
1688152521143436,-0.13641565575646597,-0.015686274509803866,0.9904325932707714
1688152521159439,-0.13531700617990383,-0.018371862363622427,0.9945830472266728
1688152521175442,-0.13946746013580524,-0.015320057984283153,0.9933623254749371
1688152521191445,-0.13861295490959025,-0.014343480582894585,0.9921416037232014
1688152521207449,-0.1366598001068131,-0.015564202334630295,0.9920195315480278
1688152521223452,-0.13360799572747384,-0.018005645838101714,0.9960479133287556
1688152521239455,-0.13763637750820168,-0.015442130159456724,0.9923857480735485
1688152521255458,-0.13934538796063167,-0.01226825360494388,0.9910429541466392
1688152521271461,-0.13934538796063167,-0.016784924086366004,0.9910429541466392
1688152521287464,-0.13690394445716025,-0.01898222323949028,0.9942168307011521
1688152521303467,-0.13824673838406953,-0.017761501487754572,0.9939726863508049
1688152521319471,-0.13971160448615239,-0.012512397955291021,0.9925078202487221
1688152521335479,-0.13678187228198668,-0.014587624933241727,0.9916533150225071
1688152521351482,-0.13580529488059812,-0.019104295414663852,0.9947051194018464
1688152521367486,-0.13775844968337525,-0.015442130159456724,0.9929961089494164
1688152521383489,-0.1409323262378881,-0.012146181429770309,0.9899443045700771
1688152521399492,-0.13739223315785454,-0.016540779736018862,0.9895780880445564
1688152521415495,-0.13470664530403598,-0.01641870756084529,0.9953154802777142
1688152521431498,-0.1366598001068131,-0.015564202334630295,0.9947051194018464
1688152521447501,-0.13897917143511096,-0.012512397955291021,0.9911650263218128
1688152521463504,-0.13775844968337525,-0.01495384145876244,0.9910429541466392
1688152521479508,-0.1359273670557717,-0.01739528496223386,0.9936064698252842
1688152521495511,-0.13678187228198668,-0.015686274509803866,0.9910429541466392
1688152521511514,-0.13910124361028453,-0.015564202334630295,0.9906767376211185
1688152521527517,-0.13775844968337525,-0.01495384145876244,0.9906767376211185
1688152521543520,-0.13739223315785454,-0.01617456321049815,0.9929961089494164
1688152521559523,-0.13556115053025097,-0.01995880064087885,0.9939726863508049
1688152521575526,-0.13788052185854882,-0.013488975356679589,0.9928740367742428
1688152521591529,-0.13983367666132596,-0.013488975356679589,0.9937285420004578
1688152521607533,-0.13531700617990383,-0.01873807888914314,0.9950713359273671
1688152521623536,-0.13702601663233382,-0.020935378042267416,0.9926298924238957
1688152521639539,-0.13849088273441668,-0.013244831006332447,0.9904325932707714
1688152521655548,-0.13873502708476382,-0.014343480582894585,0.9904325932707714
1688152521671551,-0.1350728618295567,-0.01739528496223386,0.9943389028763256
1688152521687554,-0.13556115053025097,-0.01104753185320817,0.9953154802777142
1688152521703557,-0.1383688105592431,-0.018371862363622427,0.9901884489204242
1688152521719560,-0.1388570992599374,-0.014587624933241727,0.9879911497673
1688152521735563,-0.13727016098268097,-0.017883573662928143,0.9938506141756314
1688152521751567,-0.1362935835812924,-0.016784924086366004,0.9960479133287556
1688152521767570,-0.13788052185854882,-0.013000686655985305,0.9953154802777142
1688152521783573,-0.1366598001068131,-0.01483176928358887,0.9920195315480278
1688152521799576,-0.13690394445716025,-0.021057450217440987,0.9926298924238957
1688152521815579,-0.14032196536202024,-0.01739528496223386,0.9942168307011521
1688152521831582,-0.13861295490959025,-0.012024109254596738,0.9893339436942092
1688152521847585,-0.1362935835812924,-0.016784924086366004,0.9901884489204242
1688152521863588,-0.13470664530403598,-0.01861600671396957,0.9932402532997635
1688152521879592,-0.13983367666132596,-0.01495384145876244,0.9940947585259785
1688152521895595,-0.1400778210116731,-0.013122758831158876,0.9898222323949035
1688152521911598,-0.1371480888075074,-0.017151140611886717,0.9929961089494164
1688152521927601,-0.13434042877851526,-0.01886015106431671,0.9942168307011521
1688152521943604,-0.13739223315785454,-0.014465552758068156,0.9950713359273671
1688152521959607,-0.11371023117418178,-0.29120317387655437,0.9107194628824296
1688152521975616,-0.1757228961623558,-0.02532997634851597,1.0384069581139848
1688152521991619,-0.15533684290836947,0.03350881208514522,1.0302281223773555
1688152522007622,-0.1316548409246967,0.08905165178912,0.9842069123369193
1688152522023625,-0.14032196536202024,0.01239032578011745,0.9939726863508049
1688152522039629,-0.20440985732814543,0.016662851911192433,0.9798123140306707
1688152522055632,-0.15289539940489805,0.022156099794003126,0.9702906843671322
1688152522071635,-0.09771877622644398,-0.01995880064087885,1.0114290074006256
1688152522087638,-0.162294956893263,-0.05816739147020655,0.9826199740596628
1688152522103641,-0.10089265278095683,-0.17084000915541298,1.0325474937056534
1688152522119644,-0.017029068436713146,-0.2612954909590295,0.9767605096513314
1688152522135647,0.3200122072175171,-0.9973907072556649,1.1818417639429315
1688152522151651,-0.1602197299153123,-0.19745174334325188,1.1636530098420694
1688152522167654,-0.387029831387808,0.3296559090562292,0.803662165255207
1688152522183657,-0.39935912108033866,0.1281147478446636,0.7941405355916684
1688152522199660,-0.20379949645227757,-0.06427100022888554,1.1452201113908602
1688152522215663,-0.022278171969176697,-0.42755779354543355,0.9014419775692382
1688152522231666,-0.0657358663309684,-0.20440985732814543,1.0449988555733576
1688152522247669,-0.13153276874952313,-0.041565575646600905,1.0413366903181505
1688152522263672,-0.21368734264133682,-0.04876783398184159,1.030350194552529
1688152522279676,-0.20404364080262472,0.00457770656900891,0.9824979018844893
1688152522295684,-0.13434042877851526,-0.0327763790341038,1.1435111009384302
1688152522311688,-0.23089951934081032,0.0567025253681237,1.061112382696269
1688152522327691,-0.25128557259479667,0.0021362630655374915,1.1158007171740287
1688152522343694,-0.30975814450293715,0.1826810101472498,1.0111848630502784
1688152522359697,-0.28241397726405726,0.25433737697413594,0.9483176928358894
1688152522375700,-0.30780498970016,0.31232166018158214,0.9015640497444117
1688152522391703,-0.27655451285572585,0.31012436102845786,0.7779049362935835
1688152522407706,-0.18634317540245648,0.20721751735713756,0.7967040512703134
1688152522423709,-0.19891660944533474,0.11627374685282632,0.9584496833752958
1688152522439713,-0.2877851529716944,0.10821698329137064,1.1072556649118788
1688152522455716,-0.19891660944533474,-0.06292820630197626,1.1542534523537045
1688152522471719,-0.18744182497901862,0.03741512169069949,1.1623102159151601
1688152522487722,-0.21271076523994825,0.10760662241550278,1.222980086976425
1688152522503725,-0.313054093232624,0.14032196536202068,1.0617227435721368
1688152522519728,-0.18341344319829078,-0.041687647821774476,0.9696803234912643
1688152522535731,-0.11810482948043033,-0.2448157473105974,0.8947280079346918
1688152522551735,-0.11676203555352105,-0.1047989623865111,0.9384298466468302
1688152522567738,-0.12310978866254674,-0.14239719233997095,1.033524071107042
1688152522583741,-0.17022964827954512,0.1923247119859619,0.9972686350804914
1688152522599744,-0.16937514305333012,0.09405661097123641,1.161211566338598
1688152522615753,-0.22662699320973534,0.17364766918440555,1.3007400625619896
1688152522631756,-0.20965896086060898,0.24090943770504314,1.177447165636683
1688152522647759,-0.12066834515907532,0.17914091706721624,0.8786144808117804
1688152522663762,-0.0762340733958955,0.23956664377813386,0.5468223086900128
1688152522679765,-0.024841687647821686,0.21930266269932108,0.32159914549477353
1688152522695768,0.0802624551766229,0.04974441138323016,0.3423514152742806
1688152522711772,0.08917372396429357,0.02667277027542525,0.6102998397802697
1688152522727775,0.06390478370336439,-0.005310139620050336,0.9572289616235601
1688152522743778,0.06988632028686936,0.08404669260700359,0.9503929198138401
1688152522759781,0.16766613260090057,0.02410925459678026,0.7588616769665064
1688152522775784,0.09076066224155,-0.011535820553902454,0.8435797665369646
1688152522791787,0.10382238498512208,-0.36237125200274667,1.176592660410468
1688152522807790,0.06817730983443937,-0.32635996032654324,1.3029373617151139
1688152522823794,0.031067368581673804,-0.271671625848783,1.2976882581826503
1688152522839797,0.04718089570458517,-0.40155642023346294,1.2598458838788433
1688152522855800,0.07611200122072148,-0.4733348592355231,0.9829861905851836
1688152522871803,-0.0023804074158846333,-0.18780804150453978,0.7752193484397649
1688152522887806,-0.11541924162661177,0.09930571450369996,0.9517357137407494
1688152522903809,-0.23846799420157172,0.07208361943999364,1.1217822537575337
1688152522919812,-0.27740901808194085,0.05938811322194226,1.0498817425803004
1688152522935821,-0.3214770733196004,0.09723048752574925,0.8758068207827883
1688152522951824,-0.3104905775539786,-0.020569161516746703,0.6853742275120167
1688152522967827,-0.26446936751354233,7.934691386282111E-4,0.6703593499656675
1688152522983831,-0.2516517891203174,-0.06622415503166268,1.139848935683223
1688152522999834,-0.3631036850537881,-0.1380025940337224,1.476401922636759
1688152523015837,-0.419745174334325,-0.02130159456778813,1.1696345464255744
1688152523031840,-0.4133974212252993,0.08844129091325215,0.7129625391012437
1688152523047843,-0.4409857328145268,0.0806286717021436,0.6299534599832155
1688152523063846,-0.3949645227740901,-0.1001602197299154,0.9469748989089801
1688152523079849,-0.45429159990844603,-0.13861295490959025,1.252277409018082
1688152523095852,-0.4724803540093081,-0.17816433966582723,1.276447699702449
1688152523111856,-0.5003128099488823,0.04608224612802303,0.9212176699473567
1688152523127859,-0.44281681544213036,0.26947432669565874,0.7769283588921949
1688152523143862,-0.3245288776989397,0.2348058289463646,0.6043183031967647
1688152523159865,-0.049134050507362304,-0.1412985427634088,0.8756847486076147
1688152523175868,-0.1741359578850994,0.016906996261539575,0.47895017929350736
1688152523191871,0.23700312809948887,-0.48737315938048376,2.629983978027009
1688152523207874,-0.05780117494468584,-0.05523765926604085,0.6806134126802474
1688152523223878,0.06073090714885154,0.004821850919356052,1.0819867246509496
1688152523239881,0.033630884260318794,0.06012054627298369,1.0209506370641641
1688152523255890,-0.030090791180285237,0.0042114900434881974,1.0192416266117341
1688152523271893,-0.014587624933241727,-0.0020141908903639205,0.9973907072556649
1688152523287896,-0.020813305867093845,-0.0036011291676203427,1.0012970168612192
1688152523303899,-0.02252231631952384,-0.0014038300144960658,1.0014190890363928
1688152523319902,-0.02423132677195383,-0.0015259021896696368,1.0014190890363928
1688152523335905,-0.020691233691920274,-0.0023804074158846333,1.0014190890363928
1688152523351908,-0.01898222323949028,-0.0026245517662317752,1.0017853055619135
1688152523367911,-0.06390478370336483,-0.10907148851758608,1.0296177615014876
1688152523383915,-0.11175707637140464,0.18036163881895195,1.0084992751964599
1688152523399918,0.029724574654764524,0.38324559395742774,1.0050812542916
1688152523415921,0.09686427100022854,-0.031067368581673804,0.9867704280155642
1688152523431924,0.03302052338445094,-0.04840161745632088,1.0398718242160676
1688152523447927,0.2532387273975738,-0.3302662699320975,1.030106050202182
1688152523463930,0.10211337453269209,-0.06915388723582838,1.006179903868162
1688152523479933,0.06256198977645511,0.027283131151293105,0.9575951781490808
1688152523495936,0.020935378042267416,0.18463416495002694,1.0456092164492254
1688152523511940,0.09271381704432713,-0.043030441748683756,1.024124513618677
1688152523527943,0.05621423666742942,0.09417868314640998,0.975173571374075
1688152523543946,0.10699626153963493,0.26691081101701375,1.0976119630731667
1688152523559949,0.0012817578393224949,0.08746471351186358,1.00337224383917
1688152523575958,0.11053635461966849,-0.2456702525368124,1.0094758525978484
1688152523591961,0.07672236209658934,-0.21893644617380037,0.9560082398718244
1688152523607964,-0.047913328755626594,0.009094377050431035,0.980300602731365
1688152523623967,-0.02020294499122599,-0.14227512016479738,0.9584496833752958
1688152523639970,-0.25226214999618524,-0.14581521324483093,0.9658960860608836
1688152523655974,-0.3256275272755018,-0.12848096437018386,0.9774929427023729
1688152523671977,-0.30048065918974576,-0.19305714503700333,0.9698023956664379
1688152523687980,-0.4841992828259709,-0.06378271152819126,1.1147020675974666
1688152523703983,-0.14447241931792165,-0.14923323414969092,1.1681696803234916
1688152523719986,-0.09283588921950114,-0.08636606393530188,0.9469748989089801
1688152523735989,-0.04596017395284946,-0.07672236209658978,1.0540321965362018
1688152523751992,-0.016662851911192433,-0.011169604028381741,0.9844510566872664
1688152523767995,-0.02532997634851597,-0.005065995269703194,1.009597924773022
1688152523783999,-0.02130159456778813,-0.0038452735179674846,1.0011749446860456
1688152523800002,-0.017639429312581,-0.0039673456931410556,1.0038605325398642
1688152523816005,-0.018127718013275285,-0.0061646448462653325,1.0023956664377813
1688152523832008,-0.025085831998168828,-0.0014038300144960658,1.003616388189517
1688152523848011,-0.021179522392614558,-0.003479056992446772,1.0005645838101778
1688152523864014,-0.016906996261539575,-0.003479056992446772,1.0021515220874342
1688152523880017,-0.019470511940184565,-0.00323491264209963,1.006179903868162
1688152523896026,-0.023254749370565264,-0.00323491264209963,1.0005645838101778
1688152523912029,-0.021179522392614558,-0.0038452735179674846,0.9997100785839628
1688152523928033,-0.01739528496223386,-0.004333562218661768,1.0055695429922942
1688152523944036,-0.019714656290531707,-0.002868696116578917,1.0031280994888228
1688152523960039,-0.02288853284504455,-0.004943923094529623,1.001052872510872
1688152523976042,-0.0214236667429617,-0.003479056992446772,1.002517738612955
1688152523992045,-0.016662851911192433,-0.0014038300144960658,1.0034943160143435
1688152524008048,-0.01751735713740743,-0.0036011291676203427,1.004470893415732
1688152524024051,-0.021667811093308842,-0.003112840466926059,0.9994659342336156
1688152524040054,-0.023010605020218122,-0.0039673456931410556,0.9969024185549706
1688152524056058,-0.01861600671396957,-0.004943923094529623,1.00166323338674
1688152524072061,-0.018371862363622427,-0.004943923094529623,1.003616388189517
1688152524088064,-0.02264438849469741,-0.0020141908903639205,1.0039826047150378
1688152524104067,-0.021789883268482413,-0.0021362630655374915,1.0011749446860456
1688152524120070,-0.019226367589837423,-0.005554283970397478,1.002517738612955
1688152524136073,-0.019836728465705278,-0.004821850919356052,1.0026398107881285
1688152524152076,-0.023132677195391693,-0.005554283970397478,1.0021515220874342
1688152524168079,-0.02252231631952384,-6.713969634546402E-4,1.0030060273136492
1688152524184083,-0.016906996261539575,-0.0012817578393224949,1.004470893415732
1688152524200086,-0.01861600671396957,-0.0037232013427939137,1.0045929655909056
1688152524216095,-0.022400244144350268,-0.00579842832074462,1.0026398107881285
1688152524232098,-0.023010605020218122,-0.005065995269703194,1.000808728160525
1688152524248101,-0.01886015106431671,-0.002990768291752488,1.0032501716639963
1688152524264104,-0.01861600671396957,-0.001159685664148924,1.0031280994888228
1688152524280107,-0.020691233691920274,-0.0020141908903639205,1.001907377737087
1688152524296110,-0.02288853284504455,-0.004455634393835339,0.9984893568322271
1688152524312113,-0.01861600671396957,-0.006652933546959616,0.9997100785839628
1688152524328117,-0.018371862363622427,-0.0040894178683146265,1.002517738612955
1688152524344120,-0.021057450217440987,-0.0012817578393224949,1.002517738612955
1688152524360123,-0.02264438849469741,-0.0036011291676203427,1.0003204394598306
1688152524376126,-0.019226367589837423,-0.004333562218661768,1.0014190890363928
1688152524392129,-0.01873807888914314,-0.0060425726710917615,1.0039826047150378
1688152524408132,-0.020935378042267416,-0.005065995269703194,0.9999542229343099
1688152524424135,-0.021179522392614558,-0.003479056992446772,1.001907377737087
1688152524440138,-0.017883573662928143,-0.00457770656900891,1.0021515220874342
1688152524456142,-0.017761501487754572,-0.0040894178683146265,1.0059357595178149
1688152524472145,-0.021789883268482413,-0.00579842832074462,1.0000762951094835
1688152524488148,-0.024353398947127403,-0.0038452735179674846,1.000198367284657
1688152524504151,-0.017883573662928143,-0.002990768291752488,1.0028839551384756
1688152524520154,-0.018249790188448856,-0.0026245517662317752,1.0058136873426413
1688152524536163,-0.020569161516746703,-0.002746623941405346,1.0028839551384756
1688152524552166,-0.023254749370565264,-0.004821850919356052,0.9998321507591363
1688152524568169,-0.020935378042267416,-0.004699778744182481,1.0021515220874342
1688152524584172,-0.017761501487754572,-0.0026245517662317752,1.0028839551384756
1688152524600175,-0.02130159456778813,-0.0014038300144960658,1.002517738612955
1688152524616179,-0.023132677195391693,-0.0020141908903639205,1.00337224383917
1688152524632182,-0.019714656290531707,-0.005188067444876765,1.0017853055619135
1688152524648185,-0.019348439765010994,-0.0060425726710917615,1.0005645838101778
1688152524664188,-0.021057450217440987,-0.002868696116578917,1.00337224383917
1688152524680191,-0.022034027618829555,-0.0020141908903639205,1.002517738612955
1688152524696194,-0.019104295414663852,-0.0026245517662317752,1.0030060273136492
1688152524712197,-0.017883573662928143,-0.0038452735179674846,1.0030060273136492
1688152524728201,-0.02154573891813527,-0.0060425726710917615,1.0011749446860456
1688152524744204,-0.022278171969176697,-0.005676356145571049,1.0011749446860456
1688152524760207,-0.019104295414663852,-0.0021362630655374915,1.0026398107881285
1688152524776210,-0.019104295414663852,-0.0036011291676203427,1.0022735942626078
1688152524792213,-0.02130159456778813,-0.0040894178683146265,1.0034943160143435
1688152524808216,-0.023254749370565264,-0.0040894178683146265,0.9993438620584421
1688152524824219,-0.019714656290531707,-0.005065995269703194,1.00166323338674
1688152524840222,-0.018371862363622427,-0.004455634393835339,1.0043488212405585
1688152524856231,-0.022400244144350268,-0.002868696116578917,1.003616388189517
1688152524872234,-0.022400244144350268,-0.0037232013427939137,1.0012970168612192
1688152524888238,-0.01873807888914314,-0.004943923094529623,1.0017853055619135
1688152524904241,-0.017029068436713146,-0.0039673456931410556,1.0032501716639963
1688152524920244,-0.020813305867093845,-0.004821850919356052,1.0037384603646906
1688152524936247,-0.02130159456778813,-0.0025024795910582043,0.9995880064087892
1688152524952250,-0.01873807888914314,-0.0036011291676203427,1.0005645838101778
1688152524968253,-0.01873807888914314,-0.00323491264209963,1.0022735942626078
1688152524984256,-0.02264438849469741,-0.0038452735179674846,1.004226749065385
1688152525000260,-0.022156099794003126,-0.0036011291676203427,1.001052872510872
1688152525016263,-0.019226367589837423,-0.0036011291676203427,1.0031280994888228
1688152525032266,-0.01886015106431671,-0.004699778744182481,1.0026398107881285
1688152525048269,-0.0214236667429617,-0.002990768291752488,1.005325398641947
1688152525064272,-0.021911955443655984,-0.002868696116578917,0.9998321507591363
1688152525080275,-0.019714656290531707,-0.0042114900434881974,1.000808728160525
1688152525096278,-0.018493934538795997,-0.00579842832074462,1.0043488212405585
1688152525112281,-0.020569161516746703,-0.0037232013427939137,1.0032501716639963
1688152525128285,-0.02130159456778813,-0.0040894178683146265,1.0004425116350042
1688152525144288,-0.01873807888914314,-0.0026245517662317752,1.0014190890363928
1688152525160291,-0.018127718013275285,-0.003356984817273201,1.005325398641947
1688152525176269,-0.022278171969176697,-0.004455634393835339,1.002761882963302
1688152525192272,-0.021911955443655984,-0.002868696116578917,0.9990997177080949
1688152525208275,-0.019592584115358136,-0.002868696116578917,1.0011749446860456
1688152525224279,-0.015564202334630295,-0.0040894178683146265,1.0039826047150378
1688152525240282,-0.02130159456778813,-0.0036011291676203427,1.003616388189517
1688152525256285,-0.023132677195391693,-0.003112840466926059,1.0037384603646906
1688152525272288,-0.019348439765010994,-0.0038452735179674846,0.9990997177080949
1688152525288291,-0.01751735713740743,-0.003479056992446772,1.0017853055619135
1688152525304294,-0.019592584115358136,-0.0042114900434881974,1.0020294499122606
1688152525320297,-0.02264438849469741,-0.0020141908903639205,1.0004425116350042
1688152525336300,-0.0214236667429617,-0.0022583352407110624,1.001907377737087
1688152525352304,-0.017273212787060288,-0.004333562218661768,1.00337224383917
1688152525368307,-0.02008087281605242,-0.0042114900434881974,1.0026398107881285
1688152525384310,-0.02264438849469741,-0.0037232013427939137,1.0026398107881285
1688152525400313,-0.02020294499122599,-0.003479056992446772,1.0026398107881285
1688152525416316,-0.018493934538795997,-0.004333562218661768,1.0032501716639963
1688152525432319,-0.0214236667429617,-0.0038452735179674846,1.0017853055619135
1688152525448322,-0.021911955443655984,-0.003479056992446772,0.9999542229343099
1688152525464326,-0.019714656290531707,-0.00457770656900891,1.0004425116350042
1688152525480329,-0.017029068436713146,-0.0040894178683146265,1.0021515220874342
1688152525496338,-0.021057450217440987,-0.004455634393835339,1.001907377737087
1688152525512341,-0.02288853284504455,-0.0038452735179674846,1.002517738612955
1688152525528344,-0.020691233691920274,-0.0036011291676203427,1.0014190890363928
1688152525544347,-0.016540779736018862,-0.005432211795223907,1.0026398107881285
1688152525560350,-0.019836728465705278,-0.005065995269703194,1.0023956664377813
1688152525576353,-0.021911955443655984,-0.002990768291752488,1.0017853055619135
1688152525592356,-0.021789883268482413,-0.004333562218661768,1.0011749446860456
1688152525608359,-0.01739528496223386,-0.004455634393835339,1.0063019760433356
1688152525624363,-0.01898222323949028,-0.0039673456931410556,1.0034943160143435
1688152525640366,-0.021667811093308842,-0.003479056992446772,1.000198367284657
1688152525656369,-0.021911955443655984,-0.0040894178683146265,1.0030060273136492
1688152525672372,-0.01641870756084529,-0.005310139620050336,1.0060578316929885
1688152525688375,-0.019348439765010994,-0.003479056992446772,1.0049591821164263
1688152525704378,-0.023498893720912406,-0.003479056992446772,1.0028839551384756
1688152525720381,-0.021667811093308842,-0.002990768291752488,1.0012970168612192
1688152525736384,-0.018249790188448856,-0.004455634393835339,1.0055695429922942
1688152525752388,-0.019348439765010994,-0.0036011291676203427,1.0031280994888228
1688152525768391,-0.023376821545738835,-0.002868696116578917,0.9999542229343099
1688152525784394,-0.0214236667429617,-0.0038452735179674846,1.0021515220874342
1688152525800397,-0.017151140611886717,-0.004333562218661768,1.0031280994888228
1688152525816406,-0.01995880064087885,-0.0026245517662317752,1.0032501716639963
1688152525832409,-0.02288853284504455,-0.0020141908903639205,1.0030060273136492
1688152525848412,-0.021057450217440987,-0.002990768291752488,0.9986114290074006
1688152525864415,-0.017273212787060288,-0.00457770656900891,1.0004425116350042
1688152525880418,-0.018371862363622427,-0.004699778744182481,1.004470893415732
1688152525896422,-0.021667811093308842,-0.004943923094529623,0.9981231403067063
1688152525912425,-0.021667811093308842,-0.003479056992446772,1.0011749446860456
1688152525928428,-0.016784924086366004,-0.003356984817273201,1.0034943160143435
1688152525944431,-0.019714656290531707,-0.004821850919356052,1.0026398107881285
1688152525960434,-0.02264438849469741,-0.015197985809109582,0.9807888914320593
1688152525976437,-0.023743038071259548,-0.001159685664148924,1.0086213473716334
1688152525992440,-0.011779964904249596,-0.00457770656900891,1.0043488212405585
1688152526008443,-0.01886015106431671,0.001159685664148924,1.001052872510872
1688152526024447,-0.021789883268482413,-7.934691386282111E-4,1.003616388189517
1688152526040450,-0.023743038071259548,-0.0037232013427939137,1.0006866559853513
1688152526056453,-0.017761501487754572,-0.006652933546959616,1.0020294499122606
1688152526072456,-0.017273212787060288,-0.0015259021896696368,1.0028839551384756
1688152526088459,-0.021667811093308842,-0.001159685664148924,1.0017853055619135
1688152526104462,-0.021057450217440987,-6.713969634546402E-4,1.003616388189517
1688152526120465,-0.01861600671396957,-0.005065995269703194,1.004226749065385
1688152526136474,-0.017761501487754572,-0.0060425726710917615,1.0039826047150378
1688152526152477,-0.021179522392614558,-0.005188067444876765,1.0045929655909056
1688152526168480,-0.02130159456778813,-6.713969634546402E-4,1.0021515220874342
1688152526184484,-0.01751735713740743,1.831082627603564E-4,1.003616388189517
1688152526200487,-0.019104295414663852,-0.004821850919356052,1.0034943160143435
1688152526216490,-0.022034027618829555,-0.007263294422827471,1.0030060273136492
1688152526232493,-0.02252231631952384,-0.005676356145571049,1.002517738612955
1688152526248496,-0.017761501487754572,-0.003479056992446772,1.0041046768902113
1688152526264499,-0.017151140611886717,-0.002868696116578917,1.0056916151674677
1688152526280502,-0.02276646066987098,-0.003479056992446772,1.0005645838101778
1688152526296506,-0.020935378042267416,-0.0040894178683146265,0.9973907072556649
1688152526312509,-0.015320057984283153,-0.0039673456931410556,1.0082551308461127
1688152526328512,-0.02154573891813527,-0.0037232013427939137,1.0022735942626078
1688152526344515,-0.02386511024643312,-0.0026245517662317752,1.0041046768902113
1688152526360518,-0.02008087281605242,-0.0025024795910582043,1.00166323338674
1688152526376521,-0.016784924086366004,-0.003356984817273201,1.0023956664377813
1688152526392524,-0.019592584115358136,-0.003112840466926059,1.0020294499122606
1688152526408527,-0.023498893720912406,-0.0038452735179674846,1.00337224383917
1688152526424531,-0.020691233691920274,-0.0036011291676203427,1.0022735942626078
1688152526440534,-0.01861600671396957,-0.0042114900434881974,1.0011749446860456
1688152526456543,-0.017639429312581,-0.0042114900434881974,1.0028839551384756
1688152526472546,-0.02264438849469741,-0.00323491264209963,1.0032501716639963
1688152526488549,-0.023498893720912406,-0.0040894178683146265,1.0038605325398642
1688152526504552,-0.016540779736018862,-0.0037232013427939137,1.0041046768902113
1688152526520555,-0.016540779736018862,-0.00457770656900891,1.0048371099412527
1688152526536558,-0.021911955443655984,-0.0040894178683146265,1.001907377737087
1688152526552561,-0.02264438849469741,-0.004699778744182481,0.9999542229343099
1688152526568565,-0.017151140611886717,-0.004699778744182481,1.0052033264667735
1688152526584568,-0.014587624933241727,-0.004455634393835339,1.0055695429922942
1688152526600571,-0.021057450217440987,-0.0037232013427939137,1.0015411612115663
1688152526616574,-0.02386511024643312,-0.005065995269703194,1.000808728160525
1688152526632577,-0.016784924086366004,-0.005554283970397478,1.0037384603646906
1688152526648580,-0.015075913633936011,-0.0042114900434881974,1.0059357595178149
1688152526664583,-0.02252231631952384,-0.002990768291752488,1.0026398107881285
1688152526680586,-0.02532997634851597,-0.0018921187151903496,1.0000762951094835
1688152526696590,-0.01898222323949028,-0.005188067444876765,1.00166323338674
1688152526712593,-0.017029068436713146,-0.004699778744182481,1.0020294499122606
1688152526728596,-0.023743038071259548,-0.006652933546959616,1.001907377737087
1688152526744599,-0.024475471122300974,-0.0042114900434881974,1.0004425116350042
1688152526760602,-0.019714656290531707,-0.005554283970397478,1.002761882963302
1688152526776611,-0.01739528496223386,-0.0042114900434881974,1.0026398107881285
1688152526792614,-0.021057450217440987,-0.003356984817273201,1.0017853055619135
1688152526808617,-0.022400244144350268,-0.004455634393835339,0.9984893568322271
1688152526824620,-0.018493934538795997,-0.003112840466926059,1.002761882963302
1688152526840623,-0.018005645838101714,-0.004455634393835339,1.003616388189517
1688152526856627,-0.022400244144350268,-0.002990768291752488,1.0031280994888228
1688152526872630,-0.02264438849469741,-0.002868696116578917,1.0014190890363928
1688152526888633,-0.019104295414663852,-0.0038452735179674846,1.002761882963302
1688152526904636,-0.015197985809109582,-0.0037232013427939137,1.0032501716639963
1688152526920639,-0.021179522392614558,-0.005065995269703194,1.00166323338674
1688152526936642,-0.023620965896085977,-0.0042114900434881974,1.001052872510872
1688152526952645,-0.018493934538795997,-0.0037232013427939137,1.002517738612955
1688152526968649,-0.01483176928358887,-0.0036011291676203427,1.0056916151674677
1688152526984652,-0.01886015106431671,-0.0037232013427939137,1.0048371099412527
1688152527000655,-0.02264438849469741,-0.003356984817273201,1.0011749446860456
1688152527016658,-0.017273212787060288,-0.004943923094529623,1.001907377737087
1688152527032661,-0.01629663538567172,-0.005310139620050336,1.005325398641947
1688152527048664,-0.022034027618829555,-0.002868696116578917,1.0037384603646906
1688152527064667,-0.02276646066987098,-0.0042114900434881974,1.00166323338674
1688152527080670,-0.018127718013275285,-0.004333562218661768,1.00166323338674
1688152527096679,-0.01641870756084529,-0.003479056992446772,1.0023956664377813
1688152527112682,-0.02032501716639956,-0.0042114900434881974,1.0041046768902113
1688152527128686,-0.02386511024643312,-0.00457770656900891,1.001907377737087
1688152527144689,-0.019348439765010994,-0.00323491264209963,1.00337224383917
1688152527160692,-0.016906996261539575,-0.0037232013427939137,1.0028839551384756
1688152527176695,-0.019836728465705278,-0.004943923094529623,1.0030060273136492
1688152527192698,-0.023132677195391693,-0.0037232013427939137,0.9975127794308385
1688152527208701,-0.019714656290531707,-0.004699778744182481,0.9994659342336156
1688152527224704,-0.018249790188448856,-0.0042114900434881974,1.0028839551384756
1688152527240707,-0.019104295414663852,-0.004455634393835339,1.0031280994888228
1688152527256711,-0.023132677195391693,-0.004333562218661768,0.9997100785839628
1688152527272714,-0.02008087281605242,-0.004943923094529623,1.0004425116350042
1688152527288717,-0.017639429312581,-0.002868696116578917,1.002761882963302
1688152527304720,-0.02032501716639956,-0.0038452735179674846,1.001052872510872
1688152527320723,-0.02252231631952384,-0.0021362630655374915,1.00337224383917
1688152527336726,-0.019348439765010994,-0.002990768291752488,1.0014190890363928
1688152527352729,-0.016906996261539575,-0.004943923094529623,1.0043488212405585
1688152527368733,-0.019470511940184565,-0.0040894178683146265,1.0052033264667735
1688152527384736,-0.0214236667429617,-0.0022583352407110624,1.0000762951094835
1688152527400739,-0.01995880064087885,-0.00323491264209963,1.0023956664377813
1688152527416748,-0.01739528496223386,-0.002868696116578917,1.0048371099412527
1688152527432751,-0.019226367589837423,-0.004821850919356052,1.003616388189517
1688152527448754,-0.023132677195391693,-0.0026245517662317752,0.9998321507591363
1688152527464757,-0.019104295414663852,-0.002990768291752488,1.0030060273136492
1688152527480760,-0.016540779736018862,-0.004333562218661768,1.0052033264667735
1688152527496763,-0.01861600671396957,-0.0040894178683146265,1.002517738612955
1688152527512766,-0.022400244144350268,-0.003112840466926059,1.0003204394598306
1688152527528770,-0.02008087281605242,-0.0021362630655374915,1.0034943160143435
1688152527544773,-0.017883573662928143,-0.0038452735179674846,1.005325398641947
1688152527560776,-0.019836728465705278,-0.00457770656900891,1.0043488212405585
1688152527576779,-0.022400244144350268,-0.0039673456931410556,0.9995880064087892
1688152527592782,-0.020691233691920274,-0.00323491264209963,1.0017853055619135
1688152527608785,-0.014709697108415298,-0.003479056992446772,1.003616388189517
1688152527624788,-0.01898222323949028,-0.003356984817273201,1.0045929655909056
1688152527640792,-0.022156099794003126,-0.004699778744182481,0.9999542229343099
1688152527656795,-0.02032501716639956,-0.0037232013427939137,1.00337224383917
1688152527672798,-0.018127718013275285,-0.0036011291676203427,1.0045929655909056
1688152527688801,-0.019104295414663852,-0.003112840466926059,1.0034943160143435
1688152527704804,-0.023620965896085977,-0.003479056992446772,1.0020294499122606
1688152527720807,-0.021911955443655984,-0.003479056992446772,1.0034943160143435
1688152527736816,-0.01605249103532458,-0.004455634393835339,1.0047150377660792
1688152527752819,-0.018371862363622427,-0.0036011291676203427,1.0038605325398642
1688152527768822,-0.02276646066987098,-0.0023804074158846333,1.0017853055619135
1688152527784825,-0.021789883268482413,-0.003112840466926059,1.0021515220874342
1688152527800829,-0.016784924086366004,-0.00457770656900891,1.0012970168612192
1688152527816832,-0.018005645838101714,-0.0040894178683146265,1.0026398107881285
1688152527832835,-0.023376821545738835,-0.003356984817273201,1.0005645838101778
1688152527848838,-0.021789883268482413,-0.002868696116578917,1.0022735942626078
1688152527864841,-0.017151140611886717,-0.005310139620050336,1.0038605325398642
1688152527880844,-0.018005645838101714,-0.003479056992446772,1.0037384603646906
1688152527896847,-0.02252231631952384,-0.003479056992446772,1.0015411612115663
1688152527912850,-0.021179522392614558,-0.0040894178683146265,1.0011749446860456
1688152527928854,-0.018005645838101714,-0.0038452735179674846,1.0023956664377813
1688152527944857,-0.018493934538795997,-0.00457770656900891,1.00337224383917
1688152527960860,-0.02252231631952384,-0.0039673456931410556,1.0026398107881285
1688152527976863,-0.021179522392614558,-0.0037232013427939137,1.001052872510872
1688152527992866,-0.01641870756084529,-0.005554283970397478,1.002517738612955
1688152528008869,-0.017883573662928143,-0.00579842832074462,1.0034943160143435
1688152528024872,-0.022400244144350268,-0.0036011291676203427,1.001907377737087
1688152528040876,-0.021057450217440987,-0.002868696116578917,1.0014190890363928
1688152528056884,-0.01605249103532458,-0.0039673456931410556,1.0038605325398642
1688152528072888,-0.018371862363622427,-0.0037232013427939137,1.0039826047150378
1688152528088891,-0.02288853284504455,-0.0037232013427939137,1.0047150377660792
1688152528104894,-0.020813305867093845,-0.0037232013427939137,1.0028839551384756
1688152528120897,-0.01641870756084529,-0.005188067444876765,1.0037384603646906
1688152528136900,-0.01739528496223386,-0.0039673456931410556,1.0043488212405585
1688152528152903,-0.021789883268482413,-0.0021362630655374915,1.0026398107881285
1688152528168906,-0.01995880064087885,-0.00323491264209963,1.0020294499122606
1688152528184909,-0.017761501487754572,-0.0036011291676203427,1.0028839551384756
1688152528200913,-0.019226367589837423,-0.002990768291752488,1.0054474708171206
1688152528216916,-0.023254749370565264,-0.003356984817273201,1.0026398107881285
1688152528232919,-0.022156099794003126,-0.003112840466926059,1.0012970168612192
1688152528248922,-0.015686274509803866,-0.0025024795910582043,1.0058136873426413
1688152528264925,-0.016662851911192433,-0.0014038300144960658,1.0056916151674677
1688152528280928,-0.02276646066987098,-0.005310139620050336,1.0021515220874342
1688152528296931,-0.022034027618829555,-0.004333562218661768,1.002761882963302
1688152528312935,-0.017761501487754572,-0.004333562218661768,1.0047150377660792
1688152528328938,-0.017761501487754572,-0.0036011291676203427,1.0047150377660792
1688152528344941,-0.021179522392614558,-0.0026245517662317752,1.0030060273136492
1688152528360944,-0.0214236667429617,-0.0017700465400167786,1.0022735942626078
1688152528376953,-0.017151140611886717,-0.004821850919356052,1.0038605325398642
1688152528392956,-0.017151140611886717,-0.005310139620050336,1.005325398641947
1688152528408959,-0.02154573891813527,-0.003356984817273201,1.0032501716639963
1688152528424962,-0.022156099794003126,-0.0042114900434881974,1.0022735942626078
1688152528440965,-0.01739528496223386,-0.004455634393835339,1.003616388189517
1688152528456968,-0.017273212787060288,-0.0039673456931410556,1.0043488212405585
1688152528472972,-0.02288853284504455,-0.00323491264209963,1.0030060273136492
1688152528488975,-0.021667811093308842,-0.003356984817273201,1.0023956664377813
1688152528504978,-0.018249790188448856,-0.00323491264209963,1.0041046768902113
1688152528520981,-0.017761501487754572,-0.0036011291676203427,1.0038605325398642
1688152528536984,-0.021179522392614558,-0.003479056992446772,1.0037384603646906
1688152528552987,-0.021057450217440987,-0.0022583352407110624,1.0009308003356985
1688152528568990,-0.017761501487754572,-0.0042114900434881974,1.0023956664377813
1688152528584993,-0.01641870756084529,-0.005065995269703194,1.0050812542916
1688152528600997,-0.020447089341573133,-0.003479056992446772,1.0030060273136492
1688152528617000,-0.0214236667429617,-0.00323491264209963,1.0030060273136492
1688152528633003,-0.01751735713740743,-0.003112840466926059,1.00166323338674
1688152528649006,-0.01739528496223386,-0.0036011291676203427,1.0005645838101778
1688152528665009,-0.022034027618829555,-0.002990768291752488,1.0022735942626078
1688152528681012,-0.021911955443655984,-0.0023804074158846333,1.0038605325398642
1688152528696991,-0.019714656290531707,-0.0022583352407110624,1.0020294499122606
1688152528712994,-0.017029068436713146,-0.0038452735179674846,1.0030060273136492
1688152528728997,-0.01995880064087885,-0.0036011291676203427,1.00337224383917
1688152528745000,-0.021789883268482413,-0.00323491264209963,1.0026398107881285
1688152528761003,-0.01886015106431671,-0.0025024795910582043,1.0023956664377813
1688152528777006,-0.01641870756084529,-0.003112840466926059,1.0038605325398642
1688152528793009,-0.020569161516746703,-0.005188067444876765,1.0014190890363928
1688152528809013,-0.0214236667429617,-0.0039673456931410556,1.001907377737087
1688152528825016,-0.018493934538795997,-0.0038452735179674846,1.00337224383917
1688152528841019,-0.017151140611886717,-0.0040894178683146265,1.0067902647440299
1688152528857022,-0.0214236667429617,-0.003479056992446772,1.004226749065385
1688152528873025,-0.023498893720912406,-0.003356984817273201,1.00166323338674
1688152528889028,-0.019348439765010994,-0.003479056992446772,1.0071564812695506
1688152528905031,-0.01629663538567172,-0.004699778744182481,1.0054474708171206
1688152528921034,-0.020813305867093845,-0.004821850919356052,1.0049591821164263
1688152528937038,-0.02252231631952384,-0.003112840466926059,1.0022735942626078
1688152528953041,-0.02008087281605242,-0.0037232013427939137,1.0020294499122606
1688152528969044,-0.01898222323949028,-0.005065995269703194,1.0043488212405585
1688152528985047,-0.021179522392614558,-0.0025024795910582043,1.0006866559853513
1688152529001050,-0.021789883268482413,-0.0037232013427939137,1.0021515220874342
1688152529017059,-0.01873807888914314,-0.0036011291676203427,1.0003204394598306
1688152529033062,-0.01617456321049815,-0.004821850919356052,1.001907377737087
1688152529049065,-0.020935378042267416,-0.005065995269703194,1.002517738612955
1688152529065068,-0.023620965896085977,-0.0038452735179674846,1.0004425116350042
1688152529081071,-0.019592584115358136,-0.0038452735179674846,1.0015411612115663
1688152529097075,-0.01641870756084529,-0.0036011291676203427,1.0026398107881285
1688152529113078,-0.019714656290531707,-0.0036011291676203427,1.0021515220874342
