Timestamp (microseconds),Gyro X (°/s),Gyro Y (°/s),Gyro Z (°/s)
1688152504692199,1.9073777370870175,-0.38147554741738077,0.106813153276903
1688152504708200,1.968413824673803,-0.07629510948345342,0.16784924086368846
1688152504724200,2.090485999847374,0.015259021896667946,0.16784924086368846
1688152504740200,2.0294499122605885,0.015259021896667946,0.1373311970702389
1688152504756200,1.937895780880467,-0.19836728465702436,0.07629510948345342
1688152504772201,1.937895780880467,-0.16784924086368846,0.07629510948345342
1688152504788201,2.090485999847374,0.106813153276903,0.19836728465702436
1688152504804201,2.059967956054038,0.015259021896667946,0.1373311970702389
1688152504820201,1.9073777370870175,-0.22888532845047393,0.106813153276903
1688152504836202,2.0294499122605885,-0.106813153276903,0.106813153276903
1688152504852202,2.1210040436408235,0.07629510948345342,0.1373311970702389
1688152504868202,2.090485999847374,0.015259021896667946,0.1373311970702389
1688152504884203,1.968413824673803,-0.16784924086368846,0.1373311970702389
1688152504900203,2.059967956054038,-0.2594033722438098,0.16784924086368846
1688152504916203,2.1210040436408235,0.07629510948345342,0.16784924086368846
1688152504932203,2.059967956054038,0.07629510948345342,0.16784924086368846
1688152504948204,1.968413824673803,-0.2594033722438098,0.106813153276903
1688152504964204,2.0294499122605885,-0.1373311970702389,0.1373311970702389
1688152504980204,2.090485999847374,0.045777065690117524,0.1373311970702389
1688152504996204,2.1210040436408235,0.106813153276903,0.07629510948345342
1688152505012207,1.9989318684672526,-0.1373311970702389,0.106813153276903
1688152505028207,2.0294499122605885,-0.1373311970702389,0.16784924086368846
1688152505044207,2.059967956054038,0.015259021896667946,0.1373311970702389
1688152505060207,2.059967956054038,0.045777065690117524,0.106813153276903
1688152505076208,1.968413824673803,-0.22888532845047393,0.106813153276903
1688152505092208,2.0294499122605885,-0.16784924086368846,0.1373311970702389
1688152505108208,2.1210040436408235,-0.045777065690117524,0.16784924086368846
1688152505124209,2.090485999847374,0.106813153276903,0.106813153276903
1688152505140209,1.9989318684672526,-0.19836728465702436,0.106813153276903
1688152505156209,1.9989318684672526,-0.16784924086368846,0.16784924086368846
1688152505172209,2.1210040436408235,0.015259021896667946,0.1373311970702389
1688152505188210,2.090485999847374,0.015259021896667946,0.1373311970702389
1688152505204210,1.9989318684672526,-0.106813153276903,0.106813153276903
1688152505220210,1.968413824673803,-0.2594033722438098,0.106813153276903
1688152505236210,2.090485999847374,0.106813153276903,0.1373311970702389
1688152505252211,2.090485999847374,-0.045777065690117524,0.1373311970702389
1688152505268211,1.968413824673803,-0.015259021896667946,0.07629510948345342
1688152505284211,1.968413824673803,-0.16784924086368846,0.015259021896667946
1688152505300212,2.1210040436408235,0.015259021896667946,0.16784924086368846
1688152505316212,2.059967956054038,0.106813153276903,0.16784924086368846
1688152505332244,1.968413824673803,-0.2594033722438098,0.1373311970702389
1688152505348245,1.9989318684672526,-0.2594033722438098,0.1373311970702389
1688152505364246,2.059967956054038,-0.106813153276903,0.1373311970702389
1688152505380247,2.090485999847374,0.07629510948345342,0.16784924086368846
1688152505396247,1.968413824673803,-0.3509575036240449,0.07629510948345342
1688152505412248,1.9989318684672526,-0.2594033722438098,0.106813153276903
1688152505428249,2.1210040436408235,-0.015259021896667946,0.19836728465702436
1688152505444250,2.1210040436408235,0.045777065690117524,0.19836728465702436
1688152505460250,1.9989318684672526,-0.106813153276903,0.1373311970702389
1688152505476251,2.0294499122605885,-0.3204394598305953,0.106813153276903
1688152505492252,2.059967956054038,0.045777065690117524,0.16784924086368846
1688152505508253,2.059967956054038,0.015259021896667946,0.19836728465702436
1688152505524253,1.9073777370870175,-0.1373311970702389,0.106813153276903
1688152505540254,1.968413824673803,-0.22888532845047393,0.07629510948345342
1688152505556255,2.059967956054038,0.045777065690117524,0.07629510948345342
1688152505572256,2.1210040436408235,0.07629510948345342,0.106813153276903
1688152505588256,1.937895780880467,-0.106813153276903,0.16784924086368846
1688152505604257,1.937895780880467,-0.19836728465702436,0.1373311970702389
1688152505620258,2.090485999847374,-0.015259021896667946,0.1373311970702389
1688152505636259,2.059967956054038,0.1373311970702389,0.16784924086368846
1688152505652313,1.968413824673803,-0.22888532845047393,0.106813153276903
1688152505668314,1.968413824673803,-0.045777065690117524,0.16784924086368846
1688152505684314,2.059967956054038,-0.07629510948345342,0.22888532845047393
1688152505700315,2.090485999847374,0.07629510948345342,0.22888532845047393
1688152505716316,1.968413824673803,-0.106813153276903,0.1373311970702389
1688152505732317,1.968413824673803,-0.3204394598305953,0.07629510948345342
1688152505748317,2.090485999847374,-0.015259021896667946,0.1373311970702389
1688152505764318,2.1515220874341594,0.015259021896667946,0.16784924086368846
1688152505780319,2.0294499122605885,-0.106813153276903,0.106813153276903
1688152505796320,1.968413824673803,-0.3204394598305953,0.16784924086368846
1688152505812320,2.1210040436408235,-0.015259021896667946,0.106813153276903
1688152505828321,2.1515220874341594,0.106813153276903,0.16784924086368846
1688152505844322,2.0294499122605885,-0.16784924086368846,0.106813153276903
1688152505860323,1.9073777370870175,-0.16784924086368846,0.106813153276903
1688152505876323,2.0294499122605885,-0.015259021896667946,0.1373311970702389
1688152505892324,2.059967956054038,0.07629510948345342,0.16784924086368846
1688152505908325,1.968413824673803,-0.1373311970702389,0.16784924086368846
1688152505924326,1.937895780880467,-0.2594033722438098,0.106813153276903
1688152505940326,2.1515220874341594,-0.045777065690117524,0.16784924086368846
1688152505956327,2.1210040436408235,0.045777065690117524,0.1373311970702389
1688152505972351,1.9989318684672526,-0.1373311970702389,0.1373311970702389
1688152505988351,1.968413824673803,-0.22888532845047393,0.16784924086368846
1688152506004352,2.059967956054038,-0.015259021896667946,0.16784924086368846
1688152506020353,2.1210040436408235,0.045777065690117524,0.16784924086368846
1688152506036354,2.0294499122605885,-0.106813153276903,0.07629510948345342
1688152506052354,1.9989318684672526,-0.22888532845047393,0.106813153276903
1688152506068355,2.090485999847374,-0.045777065690117524,0.19836728465702436
1688152506084356,2.090485999847374,0.106813153276903,0.19836728465702436
1688152506100357,2.059967956054038,-0.07629510948345342,0.16784924086368846
1688152506116357,1.968413824673803,-0.19836728465702436,0.106813153276903
1688152506132358,2.059967956054038,-0.16784924086368846,0.16784924086368846
1688152506148359,2.182040131227609,0.16784924086368846,0.19836728465702436
1688152506164360,1.9989318684672526,-0.1373311970702389,0.1373311970702389
1688152506180360,1.9989318684672526,-0.16784924086368846,0.106813153276903
1688152506196361,1.9989318684672526,-0.106813153276903,0.16784924086368846
1688152506212362,2.1210040436408235,0.1373311970702389,0.19836728465702436
1688152506228363,2.0294499122605885,-0.015259021896667946,0.106813153276903
1688152506244363,1.937895780880467,-0.2594033722438098,0.045777065690117524
1688152506260364,2.059967956054038,-0.015259021896667946,0.16784924086368846
1688152506276365,2.182040131227609,0.106813153276903,0.16784924086368846
1688152506292419,2.0294499122605885,-0.045777065690117524,0.106813153276903
1688152506308420,1.968413824673803,-0.19836728465702436,0.1373311970702389
1688152506324422,2.1210040436408235,-0.106813153276903,0.106813153276903
1688152506340423,2.1515220874341594,0.106813153276903,0.19836728465702436
1688152506356424,1.937895780880467,-0.015259021896667946,0.1373311970702389
1688152506372425,2.212558175020945,-0.16784924086368846,0.19836728465702436
1688152506388426,1.846341649500232,-0.2899214160372594,0.07629510948345342
1688152506404428,2.2430762188143945,0.106813153276903,0.19836728465702436
1688152506420429,2.0294499122605885,0.16784924086368846,0.1373311970702389
1688152506436430,1.8768596932936816,-0.41199359121083035,0.106813153276903
1688152506452431,1.9989318684672526,-0.106813153276903,0.1373311970702389
1688152506468433,2.090485999847374,-0.1373311970702389,0.16784924086368846
1688152506484434,2.1210040436408235,0.2594033722438098,0.1373311970702389
1688152506500435,1.8768596932936816,-0.5340657663844013,0.106813153276903
1688152506516436,2.090485999847374,0.045777065690117524,0.16784924086368846
1688152506532437,2.1210040436408235,-0.106813153276903,0.22888532845047393
1688152506548439,2.090485999847374,0.1373311970702389,0.16784924086368846
1688152506564440,1.8768596932936816,-0.2899214160372594,0.07629510948345342
1688152506580441,2.1210040436408235,-0.106813153276903,0.16784924086368846
1688152506596442,2.059967956054038,0.2594033722438098,0.1373311970702389
1688152506612457,2.212558175020945,-0.2594033722438098,0.1373311970702389
1688152506628458,1.9073777370870175,-0.07629510948345342,0.07629510948345342
1688152506644459,2.059967956054038,-0.2594033722438098,0.1373311970702389
1688152506660461,2.090485999847374,0.2594033722438098,0.1373311970702389
1688152506676462,2.090485999847374,-0.106813153276903,0.1373311970702389
1688152506692463,1.9989318684672526,-0.16784924086368846,0.16784924086368846
1688152506708464,1.9989318684672526,-0.22888532845047393,0.16784924086368846
1688152506724465,2.1515220874341594,0.07629510948345342,0.19836728465702436
1688152506740467,2.0294499122605885,0.07629510948345342,0.16784924086368846
1688152506756468,1.9073777370870175,-0.3509575036240449,0.106813153276903
1688152506772469,2.0294499122605885,-0.045777065690117524,0.106813153276903
1688152506788470,2.182040131227609,-0.07629510948345342,0.1373311970702389
1688152506804472,1.9989318684672526,0.07629510948345342,0.106813153276903
1688152506820473,2.090485999847374,-0.16784924086368846,0.19836728465702436
1688152506836474,1.7853055619134466,-0.045777065690117524,0.07629510948345342
1688152506852475,2.212558175020945,-0.07629510948345342,0.16784924086368846
1688152506868476,2.059967956054038,0.07629510948345342,0.1373311970702389
1688152506884478,2.0294499122605885,-0.3204394598305953,0.1373311970702389
1688152506900479,2.090485999847374,-0.1373311970702389,0.1373311970702389
1688152506916480,2.090485999847374,-0.015259021896667946,0.1373311970702389
1688152506932525,2.059967956054038,0.045777065690117524,0.1373311970702389
1688152506948526,1.9073777370870175,-0.2594033722438098,0.106813153276903
1688152506964528,2.0294499122605885,-0.16784924086368846,0.07629510948345342
1688152506980529,2.1210040436408235,0.106813153276903,0.16784924086368846
1688152506996530,2.090485999847374,-0.07629510948345342,0.1373311970702389
1688152507012531,1.968413824673803,-0.16784924086368846,0.1373311970702389
1688152507028533,2.0294499122605885,-0.2594033722438098,0.16784924086368846
1688152507044534,2.090485999847374,0.07629510948345342,0.16784924086368846
1688152507060535,2.1210040436408235,-0.045777065690117524,0.16784924086368846
1688152507076536,1.937895780880467,-0.16784924086368846,0.106813153276903
1688152507092538,2.090485999847374,-0.19836728465702436,0.1373311970702389
1688152507108539,2.1515220874341594,0.015259021896667946,0.1373311970702389
1688152507124540,2.090485999847374,0.1373311970702389,0.1373311970702389
1688152507140541,2.059967956054038,-0.2594033722438098,0.106813153276903
1688152507156542,1.9989318684672526,-0.22888532845047393,0.1373311970702389
1688152507172544,2.090485999847374,0.106813153276903,0.16784924086368846
1688152507188545,2.090485999847374,0.045777065690117524,0.1373311970702389
1688152507204546,1.968413824673803,-0.2594033722438098,0.16784924086368846
1688152507220547,2.0294499122605885,-0.16784924086368846,0.1373311970702389
1688152507236549,2.1515220874341594,-0.015259021896667946,0.19836728465702436
1688152507252594,2.1210040436408235,-0.015259021896667946,0.1373311970702389
1688152507268595,1.968413824673803,-0.16784924086368846,0.045777065690117524
1688152507284597,1.9989318684672526,-0.2594033722438098,0.106813153276903
1688152507300599,2.1210040436408235,0.106813153276903,0.1373311970702389
1688152507316600,2.0294499122605885,0.015259021896667946,0.16784924086368846
1688152507332602,1.937895780880467,-0.16784924086368846,0.106813153276903
1688152507348604,1.937895780880467,-0.19836728465702436,0.1373311970702389
1688152507364606,2.1210040436408235,-0.015259021896667946,0.19836728465702436
1688152507380607,2.1515220874341594,0.045777065690117524,0.19836728465702436
1688152507396609,1.9989318684672526,-0.1373311970702389,0.19836728465702436
1688152507412611,1.9989318684672526,-0.2899214160372594,0.1373311970702389
1688152507428612,2.1515220874341594,0.045777065690117524,0.16784924086368846
1688152507444614,2.1210040436408235,0.015259021896667946,0.1373311970702389
1688152507460616,2.0294499122605885,-0.16784924086368846,0.1373311970702389
1688152507476617,1.968413824673803,-0.2594033722438098,0.106813153276903
1688152507492619,2.1210040436408235,-0.045777065690117524,0.1373311970702389
1688152507508621,2.1515220874341594,0.1373311970702389,0.1373311970702389
1688152507524623,1.937895780880467,-0.16784924086368846,0.106813153276903
1688152507540624,1.9989318684672526,-0.16784924086368846,0.106813153276903
1688152507556626,2.090485999847374,-0.07629510948345342,0.1373311970702389
1688152507572662,2.090485999847374,0.19836728465702436,0.1373311970702389
1688152507588664,1.968413824673803,-0.16784924086368846,0.07629510948345342
1688152507604665,1.9073777370870175,-0.2899214160372594,0.106813153276903
1688152507620667,2.090485999847374,0.07629510948345342,0.19836728465702436
1688152507636669,2.1515220874341594,-0.045777065690117524,0.106813153276903
1688152507652670,1.9989318684672526,-0.045777065690117524,0.106813153276903
1688152507668672,1.968413824673803,-0.3204394598305953,0.106813153276903
1688152507684674,2.059967956054038,-0.045777065690117524,0.1373311970702389
1688152507700676,2.1210040436408235,0.16784924086368846,0.1373311970702389
1688152507716677,2.0294499122605885,-0.16784924086368846,0.106813153276903
1688152507732679,1.9989318684672526,-0.19836728465702436,0.106813153276903
1688152507748681,2.090485999847374,-0.07629510948345342,0.16784924086368846
1688152507764682,2.1515220874341594,0.1373311970702389,0.16784924086368846
1688152507780684,1.9989318684672526,-0.106813153276903,0.16784924086368846
1688152507796686,1.9073777370870175,-0.19836728465702436,0.1373311970702389
1688152507812687,2.090485999847374,-0.045777065690117524,0.19836728465702436
1688152507828689,2.182040131227609,0.16784924086368846,0.22888532845047393
1688152507844691,2.0294499122605885,-0.1373311970702389,0.1373311970702389
1688152507860693,1.937895780880467,-0.22888532845047393,0.1373311970702389
1688152507876694,2.0294499122605885,-0.015259021896667946,0.16784924086368846
1688152507892730,2.059967956054038,0.045777065690117524,0.1373311970702389
1688152507908732,2.0294499122605885,-0.015259021896667946,0.106813153276903
1688152507924734,1.968413824673803,-0.2899214160372594,0.07629510948345342
1688152507940735,2.090485999847374,-0.045777065690117524,0.16784924086368846
1688152507956737,2.090485999847374,0.07629510948345342,0.16784924086368846
1688152507972739,1.9989318684672526,-0.07629510948345342,0.16784924086368846
1688152507988741,1.968413824673803,-0.3204394598305953,0.16784924086368846
1688152508004742,2.059967956054038,-0.106813153276903,0.16784924086368846
1688152508020744,2.1210040436408235,0.1373311970702389,0.16784924086368846
1688152508036746,1.9989318684672526,-0.16784924086368846,0.07629510948345342
1688152508052747,1.937895780880467,-0.16784924086368846,0.106813153276903
1688152508068749,2.059967956054038,-0.16784924086368846,0.16784924086368846
1688152508084751,2.090485999847374,0.106813153276903,0.16784924086368846
1688152508100752,2.059967956054038,-0.045777065690117524,0.07629510948345342
1688152508116754,1.937895780880467,-0.19836728465702436,0.106813153276903
1688152508132756,2.0294499122605885,-0.045777065690117524,0.1373311970702389
1688152508148758,2.1515220874341594,0.015259021896667946,0.19836728465702436
1688152508164759,2.059967956054038,0.015259021896667946,0.106813153276903
1688152508180761,1.968413824673803,-0.22888532845047393,0.07629510948345342
1688152508196763,2.0294499122605885,-0.106813153276903,0.1373311970702389
1688152508212799,2.1210040436408235,0.106813153276903,0.19836728465702436
1688152508228801,2.0294499122605885,-0.045777065690117524,0.1373311970702389
1688152508244803,1.968413824673803,-0.2594033722438098,0.1373311970702389
1688152508260805,1.9989318684672526,-0.19836728465702436,0.16784924086368846
1688152508276807,2.1210040436408235,0.07629510948345342,0.16784924086368846
1688152508292810,2.090485999847374,-0.07629510948345342,0.1373311970702389
1688152508308812,1.937895780880467,-0.2594033722438098,0.1373311970702389
1688152508324814,2.059967956054038,-0.1373311970702389,0.1373311970702389
1688152508340816,2.0294499122605885,0.045777065690117524,0.16784924086368846
1688152508356818,1.9989318684672526,0.045777065690117524,0.16784924086368846
1688152508372820,1.937895780880467,-0.19836728465702436,0.1373311970702389
1688152508388823,1.9989318684672526,-0.1373311970702389,0.16784924086368846
1688152508404825,2.090485999847374,0.045777065690117524,0.16784924086368846
1688152508420827,1.9989318684672526,-0.045777065690117524,0.1373311970702389
1688152508436829,1.937895780880467,-0.2899214160372594,0.045777065690117524
1688152508452831,2.059967956054038,-0.106813153276903,0.106813153276903
1688152508468834,2.090485999847374,0.07629510948345342,0.1373311970702389
1688152508484836,1.9989318684672526,-0.045777065690117524,0.1373311970702389
1688152508500838,1.9989318684672526,-0.19836728465702436,0.1373311970702389
1688152508516840,2.0294499122605885,-0.1373311970702389,0.1373311970702389
1688152508532867,2.1210040436408235,0.07629510948345342,0.16784924086368846
1688152508548869,1.9989318684672526,-0.045777065690117524,0.19836728465702436
1688152508564871,1.937895780880467,-0.106813153276903,0.106813153276903
1688152508580874,1.9989318684672526,-0.16784924086368846,0.1373311970702389
1688152508596876,2.090485999847374,0.106813153276903,0.16784924086368846
1688152508612878,2.0294499122605885,-0.015259021896667946,0.07629510948345342
1688152508628880,1.9073777370870175,-0.22888532845047393,0.045777065690117524
1688152508644882,2.059967956054038,-0.106813153276903,0.106813153276903
1688152508660884,2.1210040436408235,-0.015259021896667946,0.16784924086368846
1688152508676887,1.9989318684672526,0.1373311970702389,0.16784924086368846
1688152508692889,1.9073777370870175,-0.3509575036240449,0.1373311970702389
1688152508708891,1.9989318684672526,-0.045777065690117524,0.16784924086368846
1688152508724893,2.1210040436408235,0.07629510948345342,0.1373311970702389
1688152508740895,2.0294499122605885,-0.07629510948345342,0.106813153276903
1688152508756898,1.968413824673803,-0.106813153276903,0.106813153276903
1688152508772900,2.0294499122605885,-0.22888532845047393,0.16784924086368846
1688152508788902,2.059967956054038,0.106813153276903,0.16784924086368846
1688152508804904,2.090485999847374,-0.07629510948345342,0.16784924086368846
1688152508820906,1.8768596932936816,-0.045777065690117524,0.106813153276903
1688152508836908,2.059967956054038,-0.7476920729380936,0.1373311970702389
1688152508852935,2.1210040436408235,0.7171740291447577,0.1373311970702389
1688152508868938,1.968413824673803,-0.6561379415579722,0.106813153276903
1688152508884940,2.0294499122605885,-0.07629510948345342,0.1373311970702389
1688152508900942,1.9989318684672526,0.2594033722438098,0.07629510948345342
1688152508916944,2.1210040436408235,-0.5951018539711868,0.1373311970702389
1688152508932946,2.090485999847374,0.8087281605248791,0.1373311970702389
1688152508948948,1.9073777370870175,-1.0833905546654705,0.106813153276903
1688152508964951,2.0294499122605885,0.6256198977645226,0.106813153276903
1688152508980953,2.182040131227609,-0.2899214160372594,0.16784924086368846
1688152508996955,1.968413824673803,-0.045777065690117524,0.106813153276903
1688152509012957,2.0294499122605885,-0.1373311970702389,0.16784924086368846
1688152509028959,2.0294499122605885,-0.3204394598305953,0.1373311970702389
1688152509044962,2.090485999847374,0.2899214160372594,0.1373311970702389
1688152509060964,2.1515220874341594,-0.2899214160372594,0.1373311970702389
1688152509076966,1.8768596932936816,0.106813153276903,0.07629510948345342
1688152509092968,2.090485999847374,-0.5340657663844013,0.16784924086368846
1688152509108970,2.0294499122605885,0.3509575036240449,0.19836728465702436
1688152509124972,2.1210040436408235,-0.19836728465702436,0.19836728465702436
1688152509140975,1.9073777370870175,-0.1373311970702389,0.106813153276903
1688152509156977,2.059967956054038,-0.2594033722438098,0.106813153276903
1688152509172973,2.1515220874341594,0.015259021896667946,0.19836728465702436
1688152509188975,2.0294499122605885,0.07629510948345342,0.19836728465702436
1688152509204978,2.0294499122605885,-0.38147554741738077,0.1373311970702389
1688152509220980,1.9989318684672526,0.015259021896667946,0.1373311970702389
1688152509236982,2.090485999847374,-0.106813153276903,0.16784924086368846
1688152509252984,2.0294499122605885,0.19836728465702436,0.106813153276903
1688152509268986,1.9989318684672526,-0.41199359121083035,0.1373311970702389
1688152509284989,2.0294499122605885,-0.045777065690117524,0.106813153276903
1688152509300991,2.1210040436408235,0.015259021896667946,0.16784924086368846
1688152509316993,2.1210040436408235,0.015259021896667946,0.16784924086368846
1688152509332995,1.9073777370870175,-0.07629510948345342,0.1373311970702389
1688152509348997,1.968413824673803,-0.2899214160372594,0.106813153276903
1688152509364999,2.090485999847374,0.1373311970702389,0.1373311970702389
1688152509381002,2.182040131227609,-0.106813153276903,0.106813153276903
1688152509397004,1.968413824673803,-0.106813153276903,0.07629510948345342
1688152509413006,2.059967956054038,-0.22888532845047393,0.1373311970702389
1688152509429008,2.059967956054038,-0.015259021896667946,0.16784924086368846
1688152509445010,2.1210040436408235,0.015259021896667946,0.16784924086368846
1688152509461012,2.0294499122605885,-0.1373311970702389,0.1373311970702389
1688152509477015,1.9989318684672526,-0.16784924086368846,0.045777065690117524
1688152509493042,2.1210040436408235,-0.07629510948345342,0.1373311970702389
1688152509509044,2.1210040436408235,0.16784924086368846,0.16784924086368846
1688152509525046,1.9989318684672526,-0.106813153276903,0.106813153276903
1688152509541048,1.9989318684672526,-0.22888532845047393,0.1373311970702389
1688152509557050,2.090485999847374,-0.07629510948345342,0.19836728465702436
1688152509573053,2.090485999847374,0.106813153276903,0.1373311970702389
1688152509589055,1.968413824673803,-0.16784924086368846,0.106813153276903
1688152509605057,2.0294499122605885,-0.19836728465702436,0.106813153276903
1688152509621059,2.059967956054038,-0.045777065690117524,0.1373311970702389
1688152509637061,2.090485999847374,-0.015259021896667946,0.16784924086368846
1688152509653063,2.0294499122605885,-0.22888532845047393,0.1373311970702389
1688152509669066,2.0294499122605885,-0.22888532845047393,0.1373311970702389
1688152509685068,2.090485999847374,-0.045777065690117524,0.19836728465702436
1688152509701070,2.1515220874341594,0.07629510948345342,0.16784924086368846
1688152509717072,1.9989318684672526,-0.106813153276903,0.106813153276903
1688152509733074,1.937895780880467,-0.2594033722438098,0.045777065690117524
1688152509749076,2.1210040436408235,0.015259021896667946,0.1373311970702389
1688152509765079,2.090485999847374,0.07629510948345342,0.1373311970702389
1688152509781081,1.968413824673803,-0.106813153276903,0.106813153276903
1688152509797083,1.937895780880467,-0.22888532845047393,0.106813153276903
1688152509813110,2.1210040436408235,-0.015259021896667946,0.106813153276903
1688152509829112,2.1210040436408235,0.16784924086368846,0.1373311970702389
1688152509845114,1.9989318684672526,-0.07629510948345342,0.106813153276903
1688152509861117,1.968413824673803,-0.16784924086368846,0.07629510948345342
1688152509877119,2.059967956054038,-0.045777065690117524,0.1373311970702389
1688152509893121,2.1515220874341594,0.015259021896667946,0.1373311970702389
1688152509909123,2.059967956054038,-0.106813153276903,0.045777065690117524
1688152509925125,1.968413824673803,-0.1373311970702389,0.07629510948345342
1688152509941127,2.059967956054038,-0.106813153276903,0.1373311970702389
1688152509957130,2.090485999847374,0.07629510948345342,0.1373311970702389
1688152509973132,1.9989318684672526,-0.07629510948345342,0.106813153276903
1688152509989134,1.968413824673803,-0.22888532845047393,0.07629510948345342
1688152510005136,2.059967956054038,-0.015259021896667946,0.16784924086368846
1688152510021138,2.1210040436408235,0.106813153276903,0.106813153276903
1688152510037140,2.059967956054038,-0.106813153276903,0.106813153276903
1688152510053143,1.9073777370870175,-0.2594033722438098,0.106813153276903
1688152510069145,2.059967956054038,-0.106813153276903,0.1373311970702389
1688152510085147,2.1210040436408235,0.16784924086368846,0.16784924086368846
1688152510101149,1.9989318684672526,0.045777065690117524,0.106813153276903
1688152510117151,1.968413824673803,-0.19836728465702436,0.07629510948345342
1688152510133178,2.059967956054038,-0.015259021896667946,0.1373311970702389
1688152510149181,2.182040131227609,0.015259021896667946,0.19836728465702436
1688152510165184,1.968413824673803,-0.045777065690117524,0.07629510948345342
1688152510181186,1.937895780880467,-0.2594033722438098,0.07629510948345342
1688152510197189,2.059967956054038,-0.106813153276903,0.1373311970702389
1688152510213192,2.182040131227609,0.07629510948345342,0.1373311970702389
1688152510229194,2.059967956054038,-0.106813153276903,0.07629510948345342
1688152510245197,1.9989318684672526,-0.16784924086368846,0.07629510948345342
1688152510261200,2.090485999847374,-0.1373311970702389,0.16784924086368846
1688152510277202,2.182040131227609,0.07629510948345342,0.1373311970702389
1688152510293205,2.0294499122605885,-0.015259021896667946,0.1373311970702389
1688152510309208,1.937895780880467,-0.2594033722438098,0.16784924086368846
1688152510325210,2.1210040436408235,-0.015259021896667946,0.1373311970702389
1688152510341213,2.1515220874341594,0.015259021896667946,0.16784924086368846
1688152510357216,2.059967956054038,-0.015259021896667946,0.1373311970702389
1688152510373218,1.968413824673803,-0.19836728465702436,0.16784924086368846
1688152510389221,2.0294499122605885,-0.2594033722438098,0.19836728465702436
1688152510405223,2.1515220874341594,0.22888532845047393,0.22888532845047393
1688152510421226,2.0294499122605885,-0.07629510948345342,0.106813153276903
1688152510437229,2.0294499122605885,-0.16784924086368846,0.07629510948345342
1688152510453247,2.090485999847374,-0.106813153276903,0.16784924086368846
1688152510469249,2.090485999847374,0.106813153276903,0.19836728465702436
1688152510485252,2.0294499122605885,0.015259021896667946,0.1373311970702389
1688152510501255,1.937895780880467,-0.38147554741738077,0.106813153276903
1688152510517257,2.059967956054038,-0.07629510948345342,0.1373311970702389
1688152510533260,2.090485999847374,0.045777065690117524,0.16784924086368846
1688152510549263,2.059967956054038,-0.015259021896667946,0.1373311970702389
1688152510565265,1.937895780880467,-0.22888532845047393,0.07629510948345342
1688152510581268,2.059967956054038,-0.16784924086368846,0.106813153276903
1688152510597271,2.1515220874341594,0.106813153276903,0.1373311970702389
1688152510613273,2.059967956054038,-0.015259021896667946,0.106813153276903
1688152510629276,1.937895780880467,-0.22888532845047393,0.106813153276903
1688152510645279,2.090485999847374,-0.19836728465702436,0.106813153276903
1688152510661281,2.090485999847374,0.106813153276903,0.1373311970702389
1688152510677284,2.0294499122605885,-0.015259021896667946,0.106813153276903
1688152510693287,1.968413824673803,-0.16784924086368846,0.106813153276903
1688152510709289,1.9989318684672526,-0.22888532845047393,0.07629510948345342
1688152510725292,2.1210040436408235,0.07629510948345342,0.1373311970702389
1688152510741294,2.059967956054038,0.045777065690117524,0.106813153276903
1688152510757297,1.9073777370870175,-0.2594033722438098,0.106813153276903
1688152510773315,2.059967956054038,-0.106813153276903,0.1373311970702389
1688152510789318,2.1210040436408235,-0.045777065690117524,0.07629510948345342
1688152510805320,2.059967956054038,0.07629510948345342,0.1373311970702389
1688152510821323,1.9989318684672526,-0.19836728465702436,0.106813153276903
1688152510837326,2.059967956054038,-0.07629510948345342,0.106813153276903
1688152510853328,2.1515220874341594,0.045777065690117524,0.106813153276903
1688152510869331,2.059967956054038,-0.015259021896667946,0.1373311970702389
1688152510885334,1.968413824673803,-0.22888532845047393,0.106813153276903
1688152510901336,1.9989318684672526,-0.2899214160372594,0.1373311970702389
1688152510917339,2.090485999847374,0.106813153276903,0.16784924086368846
1688152510933342,2.090485999847374,-0.045777065690117524,0.1373311970702389
1688152510949344,1.937895780880467,-0.2899214160372594,0.07629510948345342
1688152510965347,1.9989318684672526,-0.1373311970702389,0.106813153276903
1688152510981350,2.1210040436408235,0.045777065690117524,0.1373311970702389
1688152510997352,2.0294499122605885,0.015259021896667946,0.19836728465702436
1688152511013355,1.968413824673803,-0.2594033722438098,0.1373311970702389
1688152511029358,2.059967956054038,-0.22888532845047393,0.1373311970702389
1688152511045360,2.1515220874341594,0.045777065690117524,0.16784924086368846
1688152511061363,2.090485999847374,0.015259021896667946,0.106813153276903
1688152511077366,1.937895780880467,-0.19836728465702436,0.07629510948345342
1688152511093353,1.9989318684672526,-0.1373311970702389,0.1373311970702389
1688152511109356,2.1515220874341594,0.045777065690117524,0.1373311970702389
1688152511125358,2.090485999847374,0.045777065690117524,0.106813153276903
1688152511141361,1.9989318684672526,-0.19836728465702436,0.07629510948345342
1688152511157364,1.968413824673803,-0.16784924086368846,0.106813153276903
1688152511173366,2.090485999847374,0.07629510948345342,0.106813153276903
1688152511189369,2.059967956054038,-0.015259021896667946,0.106813153276903
1688152511205371,1.9989318684672526,-0.22888532845047393,0.1373311970702389
1688152511221374,2.059967956054038,-0.106813153276903,0.1373311970702389
1688152511237377,2.090485999847374,-0.015259021896667946,0.16784924086368846
1688152511253379,2.0294499122605885,0.045777065690117524,0.1373311970702389
1688152511269382,1.9989318684672526,-0.1373311970702389,0.106813153276903
1688152511285385,1.968413824673803,-0.22888532845047393,0.1373311970702389
1688152511301387,2.1515220874341594,0.015259021896667946,0.1373311970702389
1688152511317390,2.059967956054038,-0.07629510948345342,0.1373311970702389
1688152511333393,1.968413824673803,-0.1373311970702389,0.1373311970702389
1688152511349395,1.9989318684672526,-0.2594033722438098,0.1373311970702389
1688152511365398,2.090485999847374,0.015259021896667946,0.1373311970702389
1688152511381401,2.1210040436408235,0.015259021896667946,0.1373311970702389
1688152511397403,1.968413824673803,-0.106813153276903,0.106813153276903
1688152511413421,1.968413824673803,-0.22888532845047393,0.106813153276903
1688152511429424,2.1210040436408235,-0.015259021896667946,0.1373311970702389
1688152511445427,2.090485999847374,0.045777065690117524,0.1373311970702389
1688152511461429,1.937895780880467,-0.22888532845047393,0.16784924086368846
1688152511477432,1.937895780880467,-0.1373311970702389,0.106813153276903
1688152511493435,2.1210040436408235,-0.07629510948345342,0.106813153276903
1688152511509437,2.212558175020945,0.045777065690117524,0.1373311970702389
1688152511525440,1.968413824673803,-0.16784924086368846,0.045777065690117524
1688152511541442,2.0294499122605885,-0.19836728465702436,0.1373311970702389
1688152511557445,2.0294499122605885,-0.07629510948345342,0.16784924086368846
1688152511573448,2.212558175020945,0.106813153276903,0.16784924086368846
1688152511589450,1.937895780880467,-0.2899214160372594,0.1373311970702389
1688152511605453,2.059967956054038,-0.16784924086368846,0.106813153276903
1688152511621456,2.059967956054038,0.015259021896667946,0.1373311970702389
1688152511637458,2.1515220874341594,0.07629510948345342,0.16784924086368846
1688152511653461,2.0294499122605885,-0.16784924086368846,0.1373311970702389
1688152511669464,1.9989318684672526,-0.22888532845047393,0.1373311970702389
1688152511685466,2.1210040436408235,0.07629510948345342,0.1373311970702389
1688152511701469,2.1515220874341594,-0.015259021896667946,0.16784924086368846
1688152511717472,2.0294499122605885,-0.07629510948345342,0.106813153276903
1688152511733490,1.968413824673803,-0.3509575036240449,0.106813153276903
1688152511749492,2.1210040436408235,0.045777065690117524,0.16784924086368846
1688152511765495,2.1210040436408235,0.1373311970702389,0.1373311970702389
1688152511781498,2.0294499122605885,-0.16784924086368846,0.106813153276903
1688152511797500,1.9989318684672526,-0.16784924086368846,0.106813153276903
1688152511813503,2.1210040436408235,-0.1373311970702389,0.1373311970702389
1688152511829506,2.1210040436408235,0.16784924086368846,0.19836728465702436
1688152511845508,1.9989318684672526,-0.19836728465702436,0.106813153276903
1688152511861511,1.968413824673803,-0.19836728465702436,0.07629510948345342
1688152511877514,2.1210040436408235,-0.015259021896667946,0.106813153276903
1688152511893516,2.059967956054038,0.07629510948345342,0.106813153276903
1688152511909519,1.9989318684672526,-0.015259021896667946,0.106813153276903
1688152511925521,1.937895780880467,-0.2594033722438098,0.1373311970702389
1688152511941524,2.059967956054038,-0.015259021896667946,0.1373311970702389
1688152511957527,2.1515220874341594,-0.015259021896667946,0.1373311970702389
1688152511973529,2.0294499122605885,0.106813153276903,0.07629510948345342
1688152511989532,1.937895780880467,-0.38147554741738077,0.07629510948345342
1688152512005535,2.059967956054038,0.015259021896667946,0.1373311970702389
1688152512021537,2.1210040436408235,0.015259021896667946,0.16784924086368846
1688152512037540,2.0294499122605885,-0.1373311970702389,0.07629510948345342
1688152512053558,1.968413824673803,-0.22888532845047393,0.07629510948345342
1688152512069561,2.1210040436408235,-0.22888532845047393,0.106813153276903
1688152512085563,2.090485999847374,0.2594033722438098,0.1373311970702389
1688152512101566,2.0294499122605885,-0.2899214160372594,0.07629510948345342
1688152512117569,2.0294499122605885,-0.106813153276903,0.1373311970702389
1688152512133571,2.090485999847374,-0.1373311970702389,0.16784924086368846
1688152512149574,2.1515220874341594,0.07629510948345342,0.16784924086368846
1688152512165577,2.0294499122605885,-0.015259021896667946,0.106813153276903
1688152512181579,1.9073777370870175,-0.3509575036240449,0.07629510948345342
1688152512197582,2.1210040436408235,0.015259021896667946,0.16784924086368846
1688152512213585,2.1210040436408235,-0.045777065690117524,0.106813153276903
1688152512229587,2.0294499122605885,0.07629510948345342,0.07629510948345342
1688152512245590,1.968413824673803,-0.22888532845047393,0.106813153276903
1688152512261592,1.9989318684672526,-0.106813153276903,0.16784924086368846
1688152512277595,2.1210040436408235,0.07629510948345342,0.19836728465702436
1688152512293598,2.0294499122605885,-0.045777065690117524,0.1373311970702389
1688152512309600,1.968413824673803,-0.2594033722438098,0.106813153276903
1688152512325603,2.090485999847374,-0.16784924086368846,0.16784924086368846
1688152512341606,2.090485999847374,0.045777065690117524,0.106813153276903
1688152512357608,2.059967956054038,-0.045777065690117524,0.106813153276903
1688152512373626,1.937895780880467,-0.2594033722438098,0.106813153276903
1688152512389629,2.059967956054038,-0.1373311970702389,0.1373311970702389
1688152512405632,2.1515220874341594,0.16784924086368846,0.1373311970702389
1688152512421634,2.090485999847374,-0.045777065690117524,0.1373311970702389
1688152512437637,1.9073777370870175,-0.106813153276903,0.07629510948345342
1688152512453640,2.059967956054038,-0.19836728465702436,0.1373311970702389
1688152512469642,2.182040131227609,0.1373311970702389,0.22888532845047393
1688152512485645,2.090485999847374,-0.015259021896667946,0.19836728465702436
1688152512501648,1.9073777370870175,-0.3509575036240449,0.045777065690117524
1688152512517650,2.059967956054038,-0.015259021896667946,0.106813153276903
1688152512533653,2.090485999847374,-0.015259021896667946,0.19836728465702436
1688152512549656,2.059967956054038,0.106813153276903,0.1373311970702389
1688152512565658,1.8768596932936816,-0.22888532845047393,0.045777065690117524
1688152512581661,2.059967956054038,-0.22888532845047393,0.1373311970702389
1688152512597664,2.182040131227609,0.1373311970702389,0.19836728465702436
1688152512613666,2.1210040436408235,-0.16784924086368846,0.106813153276903
1688152512629669,1.846341649500232,-0.3204394598305953,0.045777065690117524
1688152512645671,2.0294499122605885,-0.045777065690117524,0.1373311970702389
1688152512661674,2.1210040436408235,-0.07629510948345342,0.19836728465702436
1688152512677677,2.0294499122605885,0.1373311970702389,0.106813153276903
1688152512693695,1.937895780880467,-0.38147554741738077,0.106813153276903
1688152512709698,1.9989318684672526,-0.015259021896667946,0.1373311970702389
1688152512725701,2.1210040436408235,-0.045777065690117524,0.16784924086368846
1688152512741704,2.059967956054038,0.045777065690117524,0.16784924086368846
1688152512757707,1.9989318684672526,-0.16784924086368846,0.1373311970702389
1688152512773710,1.9989318684672526,-0.19836728465702436,0.1373311970702389
1688152512789713,2.1210040436408235,0.07629510948345342,0.1373311970702389
1688152512805717,2.1210040436408235,-0.07629510948345342,0.1373311970702389
1688152512821720,1.968413824673803,-0.045777065690117524,0.1373311970702389
1688152512837723,1.968413824673803,-0.2899214160372594,0.1373311970702389
1688152512853726,2.090485999847374,0.07629510948345342,0.16784924086368846
1688152512869729,2.090485999847374,0.045777065690117524,0.16784924086368846
1688152512885732,1.9989318684672526,-0.22888532845047393,0.106813153276903
1688152512901735,2.059967956054038,-0.1373311970702389,0.106813153276903
1688152512917739,2.1210040436408235,0.106813153276903,0.1373311970702389
1688152512933742,2.0294499122605885,-0.07629510948345342,0.16784924086368846
1688152512949745,1.968413824673803,-0.106813153276903,0.1373311970702389
1688152512965748,1.9989318684672526,-0.22888532845047393,0.106813153276903
1688152512981751,2.1210040436408235,0.045777065690117524,0.106813153276903
1688152512997754,2.059967956054038,0.106813153276903,0.07629510948345342
1688152513013763,1.9989318684672526,-0.2594033722438098,0.1373311970702389
1688152513029766,2.090485999847374,-0.015259021896667946,0.1373311970702389
1688152513045769,2.090485999847374,-0.16784924086368846,0.1373311970702389
1688152513061772,2.0294499122605885,0.07629510948345342,0.1373311970702389
1688152513077776,1.937895780880467,-0.19836728465702436,0.106813153276903
1688152513093779,1.968413824673803,-0.22888532845047393,0.106813153276903
1688152513109782,2.090485999847374,0.22888532845047393,0.16784924086368846
1688152513125785,2.0294499122605885,-0.3509575036240449,0.1373311970702389
1688152513141788,1.9073777370870175,0.07629510948345342,0.106813153276903
1688152513157791,2.0294499122605885,-0.3204394598305953,0.106813153276903
1688152513173794,2.090485999847374,0.07629510948345342,0.1373311970702389
1688152513189798,2.1515220874341594,0.015259021896667946,0.106813153276903
1688152513205801,1.8768596932936816,-0.22888532845047393,0.106813153276903
1688152513221804,2.0294499122605885,-0.106813153276903,0.106813153276903
1688152513237807,2.1515220874341594,-0.07629510948345342,0.1373311970702389
1688152513253810,2.1210040436408235,0.1373311970702389,0.106813153276903
1688152513269813,1.968413824673803,-0.2594033722438098,0.07629510948345342
1688152513285816,1.968413824673803,-0.16784924086368846,0.106813153276903
1688152513301819,2.212558175020945,-0.07629510948345342,0.1373311970702389
1688152513317823,2.090485999847374,0.07629510948345342,0.1373311970702389
1688152513333801,1.9989318684672526,-0.22888532845047393,0.1373311970702389
1688152513349804,1.968413824673803,-0.2594033722438098,0.16784924086368846
1688152513365806,2.090485999847374,0.16784924086368846,0.106813153276903
1688152513381809,2.1210040436408235,-0.045777065690117524,0.106813153276903
1688152513397812,1.968413824673803,-0.07629510948345342,0.07629510948345342
1688152513413814,2.0294499122605885,-0.16784924086368846,0.16784924086368846
1688152513429817,2.1210040436408235,0.07629510948345342,0.19836728465702436
1688152513445819,2.182040131227609,0.106813153276903,0.1373311970702389
1688152513461822,2.059967956054038,-0.22888532845047393,0.07629510948345342
1688152513477825,1.9989318684672526,-0.16784924086368846,0.045777065690117524
1688152513493827,2.090485999847374,-0.106813153276903,0.1373311970702389
1688152513509830,2.090485999847374,0.19836728465702436,0.1373311970702389
1688152513525833,1.9989318684672526,-0.22888532845047393,0.106813153276903
1688152513541835,1.9989318684672526,-0.19836728465702436,0.07629510948345342
1688152513557838,2.1210040436408235,0.1373311970702389,0.106813153276903
1688152513573841,2.090485999847374,-0.045777065690117524,0.16784924086368846
1688152513589843,1.9989318684672526,-0.015259021896667946,0.106813153276903
1688152513605846,1.968413824673803,-0.19836728465702436,0.106813153276903
1688152513621849,2.1210040436408235,-0.19836728465702436,0.1373311970702389
1688152513637851,2.1210040436408235,0.3204394598305953,0.16784924086368846
1688152513653869,1.9989318684672526,-0.3204394598305953,0.1373311970702389
1688152513669872,1.937895780880467,-0.1373311970702389,0.1373311970702389
1688152513685876,2.1515220874341594,-0.16784924086368846,0.19836728465702436
1688152513701879,2.090485999847374,0.07629510948345342,0.1373311970702389
1688152513717882,2.059967956054038,-0.16784924086368846,0.1373311970702389
1688152513733885,1.937895780880467,-0.38147554741738077,0.106813153276903
1688152513749888,2.090485999847374,0.07629510948345342,0.16784924086368846
1688152513765891,2.1210040436408235,-0.045777065690117524,0.16784924086368846
1688152513781894,1.9989318684672526,-0.045777065690117524,0.07629510948345342
1688152513797897,1.9989318684672526,-0.3204394598305953,0.1373311970702389
1688152513813901,2.090485999847374,0.015259021896667946,0.22888532845047393
1688152513829904,2.1515220874341594,0.16784924086368846,0.19836728465702436
1688152513845907,1.9989318684672526,-0.106813153276903,0.07629510948345342
1688152513861910,1.937895780880467,-0.1373311970702389,0.1373311970702389
1688152513877913,2.090485999847374,-0.19836728465702436,0.106813153276903
1688152513893916,2.1515220874341594,0.1373311970702389,0.1373311970702389
1688152513909919,2.1515220874341594,-0.07629510948345342,0.1373311970702389
1688152513925922,1.9073777370870175,-0.41199359121083035,0.106813153276903
1688152513941926,2.059967956054038,0.015259021896667946,0.19836728465702436
1688152513957929,2.1515220874341594,0.07629510948345342,0.16784924086368846
1688152513973938,2.0294499122605885,-0.07629510948345342,0.07629510948345342
1688152513989941,1.968413824673803,-0.16784924086368846,0.07629510948345342
1688152514005944,2.090485999847374,-0.1373311970702389,0.106813153276903
1688152514021947,2.182040131227609,0.16784924086368846,0.1373311970702389
1688152514037950,2.0294499122605885,-0.16784924086368846,0.106813153276903
1688152514053953,1.937895780880467,-0.2594033722438098,0.106813153276903
1688152514069956,2.1210040436408235,0.015259021896667946,0.19836728465702436
1688152514085960,2.1515220874341594,-0.2899214160372594,0.16784924086368846
1688152514101963,2.0294499122605885,0.4730296787976158,0.1373311970702389
1688152514117966,1.9989318684672526,-0.3204394598305953,0.07629510948345342
1688152514133969,1.968413824673803,-0.3509575036240449,0.16784924086368846
1688152514149972,2.1515220874341594,0.5035477225909517,0.16784924086368846
1688152514165975,1.9989318684672526,-0.5340657663844013,0.106813153276903
1688152514181978,1.9073777370870175,0.2594033722438098,0.106813153276903
1688152514197981,2.090485999847374,-0.6866559853513081,0.16784924086368846
1688152514213985,2.059967956054038,0.5340657663844013,0.1373311970702389
1688152514229988,2.1515220874341594,-0.38147554741738077,0.106813153276903
1688152514245991,1.8768596932936816,-0.22888532845047393,0.07629510948345342
1688152514261994,2.1515220874341594,-0.015259021896667946,0.1373311970702389
1688152514277997,2.090485999847374,-0.045777065690117524,0.1373311970702389
1688152514294006,2.0294499122605885,0.16784924086368846,0.106813153276903
1688152514310009,1.937895780880467,-0.5951018539711868,0.106813153276903
1688152514326012,2.0294499122605885,0.106813153276903,0.106813153276903
1688152514342015,2.1515220874341594,-0.1373311970702389,0.16784924086368846
1688152514358019,1.968413824673803,0.015259021896667946,0.07629510948345342
1688152514374022,1.9989318684672526,-0.16784924086368846,0.106813153276903
1688152514390025,2.0294499122605885,-0.19836728465702436,0.1373311970702389
1688152514406028,2.1210040436408235,0.16784924086368846,0.16784924086368846
1688152514422031,2.059967956054038,-0.045777065690117524,0.106813153276903
1688152514438034,1.9073777370870175,-0.19836728465702436,0.106813153276903
1688152514454037,2.090485999847374,-0.1373311970702389,0.1373311970702389
1688152514470040,2.059967956054038,0.106813153276903,0.106813153276903
1688152514486044,2.1515220874341594,-0.1373311970702389,0.106813153276903
1688152514502047,1.968413824673803,-0.22888532845047393,0.07629510948345342
1688152514518050,2.059967956054038,-0.16784924086368846,0.106813153276903
1688152514534053,2.1515220874341594,-0.2594033722438098,0.16784924086368846
1688152514550056,2.090485999847374,0.4730296787976158,0.16784924086368846
1688152514566059,1.937895780880467,-0.44251163500416624,0.106813153276903
1688152514582062,1.9989318684672526,-0.22888532845047393,0.106813153276903
1688152514598065,2.1515220874341594,0.3204394598305953,0.106813153276903
1688152514614074,2.0294499122605885,-0.22888532845047393,0.07629510948345342
1688152514630077,1.9073777370870175,0.045777065690117524,0.07629510948345342
1688152514646081,2.059967956054038,-0.5951018539711868,0.106813153276903
1688152514662084,2.059967956054038,0.38147554741738077,0.1373311970702389
1688152514678087,2.1210040436408235,-0.22888532845047393,0.1373311970702389
1688152514694090,1.9073777370870175,-0.1373311970702389,0.07629510948345342
1688152514710093,1.9989318684672526,-0.106813153276903,0.106813153276903
1688152514726096,2.1210040436408235,-0.045777065690117524,0.1373311970702389
1688152514742099,2.1515220874341594,0.2899214160372594,0.16784924086368846
1688152514758103,1.937895780880467,-0.5340657663844013,0.106813153276903
1688152514774106,2.0294499122605885,0.16784924086368846,0.07629510948345342
1688152514790109,2.212558175020945,-0.1373311970702389,0.1373311970702389
1688152514806112,2.059967956054038,0.07629510948345342,0.1373311970702389
1688152514822115,2.059967956054038,-0.19836728465702436,0.1373311970702389
1688152514838118,1.937895780880467,-0.2899214160372594,0.16784924086368846
1688152514854121,2.1210040436408235,0.16784924086368846,0.1373311970702389
1688152514870124,2.1210040436408235,-0.07629510948345342,0.16784924086368846
1688152514886128,1.968413824673803,-0.106813153276903,0.1373311970702389
1688152514902131,2.059967956054038,-0.22888532845047393,0.16784924086368846
1688152514918134,2.090485999847374,-0.015259021896667946,0.106813153276903
1688152514934143,2.1515220874341594,0.015259021896667946,0.045777065690117524
1688152514950146,1.8768596932936816,-0.19836728465702436,0.045777065690117524
1688152514966149,1.968413824673803,-0.19836728465702436,0.1373311970702389
1688152514982152,2.1515220874341594,-0.015259021896667946,0.16784924086368846
1688152514998155,2.090485999847374,0.16784924086368846,0.1373311970702389
1688152515014158,1.9989318684672526,-0.19836728465702436,0.045777065690117524
1688152515030161,2.0294499122605885,-0.015259021896667946,0.1373311970702389
1688152515046165,2.1515220874341594,-0.1373311970702389,0.16784924086368846
1688152515062168,2.0294499122605885,-0.045777065690117524,0.22888532845047393
1688152515078171,1.9989318684672526,0.07629510948345342,0.16784924086368846
1688152515094174,1.9989318684672526,-0.7476920729380936,0.106813153276903
1688152515110177,2.059967956054038,0.38147554741738077,0.1373311970702389
1688152515126180,2.059967956054038,-0.2594033722438098,0.1373311970702389
1688152515142183,1.968413824673803,0.045777065690117524,0.07629510948345342
1688152515158187,2.0294499122605885,-0.38147554741738077,0.1373311970702389
1688152515174190,2.1210040436408235,0.1373311970702389,0.106813153276903
1688152515190193,2.1515220874341594,0.19836728465702436,0.16784924086368846
1688152515206196,1.9073777370870175,-0.41199359121083035,0.1373311970702389
1688152515222199,1.9989318684672526,0.106813153276903,0.1373311970702389
1688152515238202,2.1515220874341594,-0.3204394598305953,0.16784924086368846
1688152515254211,1.9989318684672526,0.2899214160372594,0.1373311970702389
1688152515270214,2.059967956054038,-0.38147554741738077,0.106813153276903
1688152515286217,1.846341649500232,-0.19836728465702436,0.106813153276903
1688152515302220,2.182040131227609,0.22888532845047393,0.19836728465702436
1688152515318224,2.059967956054038,-0.2899214160372594,0.16784924086368846
1688152515334227,2.0294499122605885,0.106813153276903,0.1373311970702389
1688152515350230,1.968413824673803,-0.38147554741738077,0.1373311970702389
1688152515366233,2.1210040436408235,0.1373311970702389,0.19836728465702436
1688152515382236,2.1210040436408235,-0.015259021896667946,0.16784924086368846
1688152515398239,1.9073777370870175,-0.1373311970702389,0.07629510948345342
1688152515414242,1.9989318684672526,-0.19836728465702436,0.1373311970702389
1688152515430246,2.090485999847374,-0.1373311970702389,0.1373311970702389
1688152515446249,2.090485999847374,0.22888532845047393,0.07629510948345342
1688152515462252,1.937895780880467,-0.22888532845047393,0.106813153276903
1688152515478255,2.0294499122605885,-0.1373311970702389,0.07629510948345342
1688152515494258,2.182040131227609,-0.16784924086368846,0.1373311970702389
1688152515510261,2.1210040436408235,0.106813153276903,0.1373311970702389
1688152515526264,2.0294499122605885,-0.045777065690117524,0.16784924086368846
1688152515542267,2.0294499122605885,-0.2594033722438098,0.19836728465702436
1688152515558271,2.182040131227609,0.07629510948345342,0.106813153276903
1688152515574279,2.1515220874341594,-0.045777065690117524,0.07629510948345342
1688152515590283,1.9989318684672526,-0.07629510948345342,0.106813153276903
1688152515606286,1.9989318684672526,-0.22888532845047393,0.106813153276903
1688152515622289,1.9989318684672526,0.015259021896667946,0.1373311970702389
1688152515638292,2.1210040436408235,0.015259021896667946,0.16784924086368846
1688152515654295,1.9989318684672526,0.015259021896667946,0.16784924086368846
1688152515670298,1.968413824673803,-0.41199359121083035,0.16784924086368846
1688152515686301,2.0294499122605885,0.015259021896667946,0.22888532845047393
1688152515702304,2.1210040436408235,-0.07629510948345342,0.19836728465702436
1688152515718308,1.937895780880467,-0.045777065690117524,0.1373311970702389
1688152515734311,1.9989318684672526,-0.2899214160372594,0.16784924086368846
1688152515750314,2.090485999847374,-0.045777065690117524,0.19836728465702436
1688152515766317,2.1515220874341594,0.106813153276903,0.16784924086368846
1688152515782320,1.968413824673803,-0.19836728465702436,0.16784924086368846
1688152515798323,2.0294499122605885,-0.1373311970702389,0.16784924086368846
1688152515814326,2.059967956054038,-0.045777065690117524,0.16784924086368846
1688152515830330,2.090485999847374,0.07629510948345342,0.16784924086368846
1688152515846333,2.090485999847374,-0.106813153276903,0.1373311970702389
1688152515862336,1.937895780880467,-0.16784924086368846,0.16784924086368846
1688152515878339,2.059967956054038,-0.045777065690117524,0.1373311970702389
1688152515894348,2.1515220874341594,-0.07629510948345342,0.1373311970702389
1688152515910351,2.059967956054038,-0.045777065690117524,0.106813153276903
1688152515926354,1.9073777370870175,-0.22888532845047393,0.106813153276903
1688152515942357,2.059967956054038,-0.015259021896667946,0.16784924086368846
1688152515958360,2.1210040436408235,0.015259021896667946,0.19836728465702436
1688152515974363,1.9989318684672526,-0.015259021896667946,0.16784924086368846
1688152515990367,1.968413824673803,-0.22888532845047393,0.07629510948345342
1688152516006370,2.1210040436408235,-0.106813153276903,0.19836728465702436
1688152516022373,2.059967956054038,0.16784924086368846,0.19836728465702436
1688152516038376,2.0294499122605885,-0.1373311970702389,0.1373311970702389
1688152516054379,2.0294499122605885,-0.19836728465702436,0.1373311970702389
1688152516070382,2.0294499122605885,-0.106813153276903,0.19836728465702436
1688152516086385,2.1210040436408235,0.106813153276903,0.16784924086368846
1688152516102388,2.0294499122605885,-0.045777065690117524,0.106813153276903
1688152516118392,1.937895780880467,-0.2899214160372594,0.1373311970702389
1688152516134395,2.090485999847374,0.015259021896667946,0.1373311970702389
1688152516150398,2.1210040436408235,0.07629510948345342,0.16784924086368846
1688152516166401,2.059967956054038,-0.045777065690117524,0.1373311970702389
1688152516182404,1.9989318684672526,-0.3204394598305953,0.1373311970702389
1688152516198407,2.059967956054038,0.015259021896667946,0.19836728465702436
1688152516214416,2.182040131227609,0.045777065690117524,0.22888532845047393
1688152516230419,2.0294499122605885,0.015259021896667946,0.1373311970702389
1688152516246422,2.090485999847374,-0.19836728465702436,0.07629510948345342
1688152516262426,2.059967956054038,-0.1373311970702389,0.16784924086368846
1688152516278429,2.212558175020945,0.045777065690117524,0.16784924086368846
1688152516294432,2.0294499122605885,-0.07629510948345342,0.1373311970702389
1688152516310435,1.968413824673803,-0.19836728465702436,0.106813153276903
1688152516326438,2.090485999847374,-0.3204394598305953,0.07629510948345342
1688152516342441,2.1210040436408235,0.16784924086368846,0.106813153276903
1688152516358444,2.059967956054038,-0.1373311970702389,0.1373311970702389
1688152516374447,1.937895780880467,-0.19836728465702436,0.106813153276903
1688152516390451,2.059967956054038,-0.22888532845047393,0.19836728465702436
1688152516406454,2.182040131227609,0.106813153276903,0.1373311970702389
1688152516422457,2.090485999847374,0.07629510948345342,0.07629510948345342
1688152516438460,1.9989318684672526,-0.3204394598305953,0.106813153276903
1688152516454463,2.0294499122605885,-0.015259021896667946,0.16784924086368846
1688152516470466,2.1210040436408235,-0.015259021896667946,0.106813153276903
1688152516486469,2.090485999847374,0.015259021896667946,0.1373311970702389
1688152516502473,1.9989318684672526,-0.2899214160372594,0.1373311970702389
1688152516518476,2.059967956054038,-0.16784924086368846,0.16784924086368846
1688152516534484,2.1515220874341594,0.16784924086368846,0.16784924086368846
1688152516550488,2.090485999847374,-0.07629510948345342,0.1373311970702389
1688152516566491,1.9073777370870175,-0.1373311970702389,0.106813153276903
1688152516582494,2.1210040436408235,-0.19836728465702436,0.16784924086368846
1688152516598497,2.090485999847374,0.1373311970702389,0.1373311970702389
1688152516614500,2.090485999847374,-0.015259021896667946,0.1373311970702389
1688152516630503,1.9073777370870175,-0.22888532845047393,0.045777065690117524
1688152516646506,1.9989318684672526,-0.106813153276903,0.106813153276903
1688152516662510,2.090485999847374,0.07629510948345342,0.1373311970702389
1688152516678513,2.059967956054038,0.045777065690117524,0.106813153276903
1688152516694516,1.968413824673803,-0.3204394598305953,0.045777065690117524
1688152516710519,2.0294499122605885,0.07629510948345342,0.07629510948345342
1688152516726522,2.1210040436408235,-0.1373311970702389,0.19836728465702436
1688152516742525,2.090485999847374,0.22888532845047393,0.1373311970702389
1688152516758528,1.9989318684672526,-0.41199359121083035,0.07629510948345342
1688152516774531,1.968413824673803,-0.015259021896667946,0.1373311970702389
1688152516790535,2.212558175020945,-0.07629510948345342,0.16784924086368846
1688152516806538,2.0294499122605885,0.1373311970702389,0.16784924086368846
1688152516822541,1.968413824673803,-0.19836728465702436,0.106813153276903
1688152516838544,1.968413824673803,-0.41199359121083035,0.16784924086368846
1688152516854553,2.1515220874341594,0.3204394598305953,0.19836728465702436
1688152516870556,2.090485999847374,-0.106813153276903,0.16784924086368846
1688152516886559,1.8768596932936816,-0.015259021896667946,0.07629510948345342
1688152516902562,1.9989318684672526,-0.3509575036240449,0.1373311970702389
1688152516918565,2.090485999847374,0.07629510948345342,0.1373311970702389
1688152516934569,2.1515220874341594,0.16784924086368846,0.1373311970702389
1688152516950572,1.937895780880467,-0.3204394598305953,0.106813153276903
1688152516966575,1.937895780880467,-0.106813153276903,0.1373311970702389
1688152516982578,2.090485999847374,-0.106813153276903,0.16784924086368846
1688152516998581,2.090485999847374,0.106813153276903,0.16784924086368846
1688152517014584,1.968413824673803,-0.2594033722438098,0.07629510948345342
1688152517030587,1.968413824673803,-0.2594033722438098,0.07629510948345342
1688152517046590,2.1515220874341594,0.045777065690117524,0.19836728465702436
1688152517062594,2.1515220874341594,0.16784924086368846,0.106813153276903
1688152517078597,1.937895780880467,-0.22888532845047393,0.106813153276903
1688152517094600,1.9989318684672526,-0.2594033722438098,0.106813153276903
1688152517110603,2.1515220874341594,0.015259021896667946,0.16784924086368846
1688152517126606,2.182040131227609,0.07629510948345342,0.1373311970702389
1688152517142609,1.968413824673803,-0.19836728465702436,0.106813153276903
1688152517158612,1.9989318684672526,-0.3204394598305953,0.1373311970702389
1688152517174621,2.1515220874341594,-0.106813153276903,0.1373311970702389
1688152517190624,2.090485999847374,0.41199359121083035,0.106813153276903
1688152517206627,1.968413824673803,-0.44251163500416624,0.07629510948345342
1688152517222631,1.937895780880467,-0.1373311970702389,0.07629510948345342
1688152517238634,2.1515220874341594,0.07629510948345342,0.1373311970702389
1688152517254637,2.1210040436408235,-0.045777065690117524,0.1373311970702389
1688152517270640,2.059967956054038,-0.045777065690117524,0.16784924086368846
1688152517286643,1.937895780880467,-0.5035477225909517,0.1373311970702389
1688152517302646,2.1515220874341594,0.3204394598305953,0.19836728465702436
1688152517318649,2.1210040436408235,-0.1373311970702389,0.22888532845047393
1688152517334653,1.937895780880467,-0.106813153276903,0.07629510948345342
1688152517350656,1.968413824673803,-0.3509575036240449,0.1373311970702389
1688152517366659,2.059967956054038,0.106813153276903,0.106813153276903
1688152517382662,2.1210040436408235,0.07629510948345342,0.16784924086368846
1688152517398665,1.9989318684672526,-0.19836728465702436,0.106813153276903
1688152517414668,1.9989318684672526,-0.1373311970702389,0.07629510948345342
1688152517430671,2.1515220874341594,-0.19836728465702436,0.106813153276903
1688152517446674,2.1210040436408235,0.2899214160372594,0.1373311970702389
1688152517462678,2.059967956054038,-0.22888532845047393,0.106813153276903
1688152517478681,1.9073777370870175,-0.19836728465702436,0.106813153276903
1688152517494690,2.1210040436408235,-0.07629510948345342,0.16784924086368846
1688152517510693,2.090485999847374,0.1373311970702389,0.1373311970702389
1688152517526696,2.059967956054038,-0.045777065690117524,0.07629510948345342
1688152517542699,1.968413824673803,-0.3204394598305953,0.015259021896667946
1688152517558702,2.090485999847374,0.07629510948345342,0.106813153276903
1688152517574705,2.1515220874341594,0.015259021896667946,0.1373311970702389
1688152517590708,2.0294499122605885,-0.106813153276903,0.1373311970702389
1688152517606711,1.9989318684672526,-0.2594033722438098,0.07629510948345342
1688152517622715,2.059967956054038,-0.106813153276903,0.1373311970702389
1688152517638718,2.059967956054038,0.16784924086368846,0.106813153276903
1688152517654721,1.9989318684672526,-0.16784924086368846,0.07629510948345342
1688152517670724,1.937895780880467,-0.16784924086368846,0.07629510948345342
1688152517686727,2.1515220874341594,-0.16784924086368846,0.19836728465702436
1688152517702730,2.1210040436408235,-0.015259021896667946,0.1373311970702389
1688152517718733,2.059967956054038,-0.07629510948345342,0.16784924086368846
1688152517734737,1.9073777370870175,-0.38147554741738077,0.106813153276903
1688152517750740,2.1515220874341594,0.2594033722438098,0.106813153276903
1688152517766743,2.182040131227609,-0.2899214160372594,0.16784924086368846
1688152517782746,1.9989318684672526,0.1373311970702389,0.106813153276903
1688152517798749,1.968413824673803,-0.19836728465702436,0.07629510948345342
1688152517814758,1.9989318684672526,-0.07629510948345342,0.1373311970702389
1688152517830761,2.212558175020945,0.106813153276903,0.16784924086368846
1688152517846764,2.0294499122605885,-0.106813153276903,0.1373311970702389
1688152517862767,1.9989318684672526,-0.16784924086368846,0.106813153276903
1688152517878770,2.1515220874341594,-0.22888532845047393,0.16784924086368846
1688152517894774,2.1210040436408235,0.2594033722438098,0.16784924086368846
1688152517910777,2.0294499122605885,-0.2899214160372594,0.106813153276903
1688152517926780,1.8768596932936816,-0.07629510948345342,0.07629510948345342
1688152517942783,2.1515220874341594,-0.2594033722438098,0.19836728465702436
1688152517958786,2.1210040436408235,0.19836728465702436,0.16784924086368846
1688152517974789,2.059967956054038,-0.07629510948345342,0.106813153276903
1688152517990792,1.9073777370870175,-0.44251163500416624,0.07629510948345342
1688152518006796,2.090485999847374,0.1373311970702389,0.16784924086368846
1688152518022799,2.1515220874341594,-0.1373311970702389,0.1373311970702389
1688152518038802,1.9989318684672526,0.045777065690117524,0.106813153276903
1688152518054805,1.968413824673803,-0.2899214160372594,0.106813153276903
1688152518070808,1.968413824673803,-0.045777065690117524,0.1373311970702389
1688152518086811,2.1515220874341594,0.106813153276903,0.19836728465702436
1688152518102814,1.9989318684672526,-0.106813153276903,0.1373311970702389
1688152518118817,1.937895780880467,-0.1373311970702389,0.1373311970702389
1688152518134826,2.059967956054038,-0.19836728465702436,0.19836728465702436
1688152518150829,2.1515220874341594,0.16784924086368846,0.19836728465702436
1688152518166833,2.059967956054038,-0.07629510948345342,0.106813153276903
1688152518182836,1.937895780880467,-0.2594033722438098,0.106813153276903
1688152518198839,2.059967956054038,-0.106813153276903,0.1373311970702389
1688152518214842,2.1515220874341594,-0.015259021896667946,0.16784924086368846
1688152518230845,2.0294499122605885,-0.045777065690117524,0.1373311970702389
1688152518246848,1.937895780880467,-0.22888532845047393,0.106813153276903
1688152518262851,2.0294499122605885,-0.106813153276903,0.1373311970702389
1688152518278854,2.182040131227609,0.16784924086368846,0.16784924086368846
1688152518294858,2.090485999847374,-0.015259021896667946,0.16784924086368846
1688152518310861,1.9989318684672526,-0.41199359121083035,0.07629510948345342
1688152518326864,2.090485999847374,0.106813153276903,0.106813153276903
1688152518342867,2.182040131227609,-0.1373311970702389,0.16784924086368846
1688152518358870,2.0294499122605885,0.1373311970702389,0.16784924086368846
1688152518374873,1.9989318684672526,-0.4730296787976158,0.106813153276903
1688152518390876,1.937895780880467,0.045777065690117524,0.1373311970702389
1688152518406880,2.182040131227609,-0.015259021896667946,0.1373311970702389
1688152518422883,2.059967956054038,-0.015259021896667946,0.07629510948345342
1688152518438886,1.937895780880467,-0.19836728465702436,0.106813153276903
1688152518454864,1.9989318684672526,-0.16784924086368846,0.1373311970702389
1688152518470867,2.090485999847374,0.22888532845047393,0.16784924086368846
1688152518486870,2.090485999847374,-0.1373311970702389,0.106813153276903
1688152518502874,1.9989318684672526,-0.106813153276903,0.07629510948345342
1688152518518877,2.059967956054038,-0.3204394598305953,0.106813153276903
1688152518534880,2.1515220874341594,0.16784924086368846,0.1373311970702389
1688152518550883,2.1515220874341594,0.045777065690117524,0.106813153276903
1688152518566886,1.937895780880467,-0.22888532845047393,0.106813153276903
1688152518582889,2.059967956054038,-0.19836728465702436,0.16784924086368846
1688152518598892,2.1515220874341594,0.16784924086368846,0.16784924086368846
1688152518614895,2.0294499122605885,0.045777065690117524,0.16784924086368846
1688152518630899,1.9073777370870175,-0.16784924086368846,0.16784924086368846
1688152518646902,2.0294499122605885,-0.16784924086368846,0.16784924086368846
1688152518662905,2.182040131227609,0.045777065690117524,0.16784924086368846
1688152518678908,2.059967956054038,0.07629510948345342,0.16784924086368846
1688152518694911,1.9989318684672526,-0.22888532845047393,0.106813153276903
1688152518710914,2.090485999847374,-0.045777065690117524,0.1373311970702389
1688152518726917,2.212558175020945,0.045777065690117524,0.16784924086368846
1688152518742921,2.090485999847374,0.07629510948345342,0.106813153276903
1688152518758924,1.968413824673803,-0.2594033722438098,0.106813153276903
1688152518774932,1.9989318684672526,-0.16784924086368846,0.1373311970702389
1688152518790936,2.182040131227609,0.106813153276903,0.16784924086368846
1688152518806939,2.059967956054038,-0.015259021896667946,0.106813153276903
1688152518822942,1.9989318684672526,-0.22888532845047393,0.07629510948345342
1688152518838945,2.0294499122605885,-0.106813153276903,0.106813153276903
1688152518854948,2.1515220874341594,0.1373311970702389,0.22888532845047393
1688152518870951,2.1210040436408235,0.015259021896667946,0.16784924086368846
1688152518886954,1.937895780880467,-0.4730296787976158,0.16784924086368846
1688152518902958,2.059967956054038,0.22888532845047393,0.106813153276903
1688152518918961,2.1210040436408235,-0.3204394598305953,0.1373311970702389
1688152518934964,2.090485999847374,0.16784924086368846,0.106813153276903
1688152518950967,1.9989318684672526,-0.22888532845047393,0.106813153276903
1688152518966970,1.9073777370870175,-0.045777065690117524,0.07629510948345342
1688152518982973,2.090485999847374,-0.015259021896667946,0.1373311970702389
1688152518998976,2.1210040436408235,-0.07629510948345342,0.1373311970702389
1688152519014979,2.059967956054038,-0.045777065690117524,0.1373311970702389
1688152519030983,1.9989318684672526,-0.3509575036240449,0.16784924086368846
1688152519046986,2.090485999847374,0.3204394598305953,0.16784924086368846
1688152519062989,2.1515220874341594,-0.1373311970702389,0.16784924086368846
1688152519078992,1.937895780880467,0.07629510948345342,0.07629510948345342
1688152519095001,2.1515220874341594,-0.44251163500416624,0.16784924086368846
1688152519111004,2.059967956054038,0.07629510948345342,0.1373311970702389
1688152519127007,2.1515220874341594,0.2594033722438098,0.1373311970702389
1688152519143010,1.968413824673803,-0.19836728465702436,0.07629510948345342
1688152519159013,1.968413824673803,-0.045777065690117524,0.16784924086368846
1688152519175017,2.1210040436408235,-0.106813153276903,0.1373311970702389
1688152519191020,2.059967956054038,0.106813153276903,0.1373311970702389
1688152519207023,1.9989318684672526,-0.16784924086368846,0.16784924086368846
1688152519223026,1.937895780880467,-0.19836728465702436,0.106813153276903
1688152519239029,2.0294499122605885,-0.045777065690117524,0.19836728465702436
1688152519255032,2.090485999847374,0.015259021896667946,0.1373311970702389
1688152519271035,2.059967956054038,-0.106813153276903,0.07629510948345342
1688152519287038,1.9989318684672526,-0.2594033722438098,0.1373311970702389
1688152519303042,2.090485999847374,-0.015259021896667946,0.1373311970702389
1688152519319045,2.090485999847374,0.106813153276903,0.1373311970702389
1688152519335048,2.0294499122605885,-0.045777065690117524,0.106813153276903
1688152519351051,1.968413824673803,-0.19836728465702436,0.07629510948345342
1688152519367054,2.1210040436408235,0.045777065690117524,0.106813153276903
1688152519383057,2.1210040436408235,0.045777065690117524,0.106813153276903
1688152519399060,2.0294499122605885,-0.045777065690117524,0.1373311970702389
1688152519415069,1.9989318684672526,-0.2594033722438098,0.106813153276903
1688152519431072,2.2430762188143945,-0.015259021896667946,0.1373311970702389
1688152519447075,2.1210040436408235,0.07629510948345342,0.1373311970702389
1688152519463079,1.937895780880467,-0.16784924086368846,0.106813153276903
1688152519479082,1.968413824673803,-0.22888532845047393,0.1373311970702389
1688152519495085,2.1515220874341594,-0.045777065690117524,0.106813153276903
1688152519511088,2.1515220874341594,0.07629510948345342,0.106813153276903
1688152519527091,2.090485999847374,-0.16784924086368846,0.106813153276903
1688152519543094,1.937895780880467,-0.22888532845047393,0.106813153276903
1688152519559097,2.090485999847374,0.16784924086368846,0.1373311970702389
1688152519575101,2.090485999847374,0.015259021896667946,0.1373311970702389
1688152519591104,2.0294499122605885,-0.1373311970702389,0.07629510948345342
1688152519607107,1.9989318684672526,-0.1373311970702389,0.106813153276903
1688152519623110,2.059967956054038,-0.1373311970702389,0.1373311970702389
1688152519639113,2.1515220874341594,0.1373311970702389,0.16784924086368846
1688152519655116,1.968413824673803,-0.045777065690117524,0.16784924086368846
1688152519671119,1.968413824673803,-0.22888532845047393,0.1373311970702389
1688152519687122,2.090485999847374,0.015259021896667946,0.16784924086368846
1688152519703126,2.2430762188143945,0.106813153276903,0.16784924086368846
1688152519719129,1.968413824673803,-0.015259021896667946,0.106813153276903
1688152519735138,1.968413824673803,-0.2594033722438098,0.106813153276903
1688152519751141,2.059967956054038,0.015259021896667946,0.1373311970702389
1688152519767144,2.1515220874341594,0.015259021896667946,0.19836728465702436
1688152519783147,1.9989318684672526,-0.1373311970702389,0.1373311970702389
1688152519799150,1.9073777370870175,-0.22888532845047393,0.106813153276903
1688152519815153,2.059967956054038,0.07629510948345342,0.1373311970702389
1688152519831156,2.1210040436408235,0.07629510948345342,0.1373311970702389
1688152519847159,2.090485999847374,-0.1373311970702389,0.106813153276903
1688152519863163,1.968413824673803,-0.22888532845047393,0.1373311970702389
1688152519879166,2.1210040436408235,-0.106813153276903,0.16784924086368846
1688152519895169,2.059967956054038,0.22888532845047393,0.16784924086368846
1688152519911172,2.0294499122605885,-0.07629510948345342,0.1373311970702389
1688152519927175,2.059967956054038,-0.19836728465702436,0.106813153276903
1688152519943178,2.1515220874341594,-0.19836728465702436,0.106813153276903
1688152519959181,2.1210040436408235,0.045777065690117524,0.1373311970702389
1688152519975185,2.059967956054038,0.045777065690117524,0.106813153276903
1688152519991188,1.8768596932936816,-0.2594033722438098,0.07629510948345342
1688152520007191,2.0294499122605885,-0.015259021896667946,0.1373311970702389
1688152520023194,2.1515220874341594,0.1373311970702389,0.19836728465702436
1688152520039197,2.0294499122605885,-0.045777065690117524,0.106813153276903
1688152520055206,1.8768596932936816,-0.4730296787976158,0.106813153276903
1688152520071209,2.059967956054038,0.22888532845047393,0.106813153276903
1688152520087212,2.1515220874341594,-0.106813153276903,0.16784924086368846
1688152520103215,2.0294499122605885,0.1373311970702389,0.106813153276903
1688152520119218,1.9989318684672526,-0.2899214160372594,0.07629510948345342
1688152520135222,2.0294499122605885,0.015259021896667946,0.106813153276903
1688152520151225,2.182040131227609,0.22888532845047393,0.19836728465702436
1688152520167228,2.0294499122605885,-0.106813153276903,0.1373311970702389
1688152520183231,1.9989318684672526,-0.1373311970702389,0.106813153276903
1688152520199234,2.0294499122605885,-0.3204394598305953,0.1373311970702389
1688152520215237,2.1515220874341594,0.2594033722438098,0.1373311970702389
1688152520231240,2.059967956054038,-0.16784924086368846,0.1373311970702389
1688152520247244,1.937895780880467,-0.07629510948345342,0.106813153276903
1688152520263247,2.1210040436408235,-0.2594033722438098,0.1373311970702389
1688152520279250,2.1515220874341594,0.045777065690117524,0.19836728465702436
1688152520295253,2.1210040436408235,0.07629510948345342,0.1373311970702389
1688152520311256,1.937895780880467,-0.3509575036240449,0.045777065690117524
1688152520327259,2.0294499122605885,-0.045777065690117524,0.16784924086368846
1688152520343262,2.182040131227609,0.045777065690117524,0.16784924086368846
1688152520359265,1.9989318684672526,0.07629510948345342,0.1373311970702389
1688152520375274,1.937895780880467,-0.38147554741738077,0.045777065690117524
1688152520391277,1.9989318684672526,-0.07629510948345342,0.106813153276903
1688152520407281,2.1515220874341594,0.07629510948345342,0.1373311970702389
1688152520423284,2.059967956054038,-0.015259021896667946,0.106813153276903
1688152520439287,1.937895780880467,-0.19836728465702436,0.106813153276903
1688152520455290,1.968413824673803,-0.22888532845047393,0.106813153276903
1688152520471293,2.090485999847374,0.1373311970702389,0.16784924086368846
1688152520487296,2.059967956054038,-0.07629510948345342,0.16784924086368846
1688152520503299,1.968413824673803,-0.015259021896667946,0.1373311970702389
1688152520519302,1.9989318684672526,-0.5340657663844013,0.106813153276903
1688152520535306,2.059967956054038,0.2899214160372594,0.106813153276903
1688152520551309,2.1515220874341594,-0.106813153276903,0.1373311970702389
1688152520567312,1.8768596932936816,-0.1373311970702389,0.045777065690117524
1688152520583315,2.090485999847374,-0.16784924086368846,0.106813153276903
1688152520599318,2.090485999847374,0.015259021896667946,0.07629510948345342
1688152520615321,2.1210040436408235,0.1373311970702389,0.106813153276903
1688152520631324,1.968413824673803,-0.3204394598305953,0.106813153276903
1688152520647328,2.0294499122605885,-0.045777065690117524,0.07629510948345342
1688152520663331,2.182040131227609,-0.106813153276903,0.16784924086368846
1688152520679334,2.0294499122605885,0.16784924086368846,0.106813153276903
1688152520695343,1.937895780880467,-0.2899214160372594,0.07629510948345342
1688152520711346,1.937895780880467,-0.1373311970702389,0.07629510948345342
1688152520727349,2.182040131227609,0.015259021896667946,0.19836728465702436
1688152520743352,2.1210040436408235,0.015259021896667946,0.106813153276903
1688152520759355,1.968413824673803,-0.07629510948345342,0.106813153276903
1688152520775358,1.9989318684672526,-0.3509575036240449,0.106813153276903
1688152520791361,2.1515220874341594,0.106813153276903,0.19836728465702436
1688152520807365,2.182040131227609,0.045777065690117524,0.1373311970702389
1688152520823368,1.937895780880467,-0.2899214160372594,0.106813153276903
1688152520839371,2.0294499122605885,-0.16784924086368846,0.106813153276903
1688152520855374,2.182040131227609,-0.045777065690117524,0.16784924086368846
1688152520871377,2.1515220874341594,0.1373311970702389,0.16784924086368846
1688152520887380,1.937895780880467,-0.3509575036240449,0.106813153276903
1688152520903383,1.937895780880467,-0.1373311970702389,0.106813153276903
1688152520919386,2.1210040436408235,0.045777065690117524,0.16784924086368846
1688152520935390,2.059967956054038,-0.1373311970702389,0.19836728465702436
1688152520951393,1.968413824673803,-0.015259021896667946,0.1373311970702389
1688152520967396,1.9989318684672526,-0.44251163500416624,0.106813153276903
1688152520983399,2.1210040436408235,0.19836728465702436,0.106813153276903
1688152520999402,2.1210040436408235,-0.106813153276903,0.106813153276903
1688152521015411,1.8768596932936816,0.015259021896667946,0.07629510948345342
1688152521031414,1.968413824673803,-0.22888532845047393,0.045777065690117524
1688152521047417,2.0294499122605885,-0.045777065690117524,0.106813153276903
1688152521063420,2.1515220874341594,0.1373311970702389,0.106813153276903
1688152521079424,1.9989318684672526,-0.2899214160372594,0.106813153276903
1688152521095427,2.0294499122605885,-0.015259021896667946,0.106813153276903
1688152521111430,2.1210040436408235,-0.106813153276903,0.1373311970702389
1688152521127433,2.1515220874341594,0.16784924086368846,0.106813153276903
1688152521143436,1.9989318684672526,-0.19836728465702436,0.106813153276903
1688152521159439,1.9989318684672526,-0.2899214160372594,0.16784924086368846
1688152521175442,2.1515220874341594,0.045777065690117524,0.19836728465702436
1688152521191445,2.1210040436408235,0.045777065690117524,0.19836728465702436
1688152521207449,2.0294499122605885,-0.07629510948345342,0.106813153276903
1688152521223452,2.059967956054038,-0.3509575036240449,0.1373311970702389
1688152521239455,2.212558175020945,0.045777065690117524,0.16784924086368846
1688152521255458,2.1210040436408235,-0.015259021896667946,0.19836728465702436
1688152521271461,1.968413824673803,-0.045777065690117524,0.16784924086368846
1688152521287464,1.9989318684672526,-0.2899214160372594,0.1373311970702389
1688152521303467,2.1210040436408235,-0.045777065690117524,0.19836728465702436
1688152521319471,2.212558175020945,0.07629510948345342,0.19836728465702436
1688152521335479,2.0294499122605885,-0.22888532845047393,0.106813153276903
1688152521351482,1.937895780880467,-0.16784924086368846,0.1373311970702389
1688152521367486,2.090485999847374,-0.07629510948345342,0.16784924086368846
1688152521383489,2.1515220874341594,0.106813153276903,0.1373311970702389
1688152521399492,1.9989318684672526,-0.106813153276903,0.07629510948345342
1688152521415495,2.090485999847374,-0.3509575036240449,0.1373311970702389
1688152521431498,1.9989318684672526,0.015259021896667946,0.16784924086368846
1688152521447501,2.1210040436408235,0.07629510948345342,0.19836728465702436
1688152521463504,1.968413824673803,-0.16784924086368846,0.1373311970702389
1688152521479508,1.968413824673803,-0.2594033722438098,0.07629510948345342
1688152521495511,2.1210040436408235,0.045777065690117524,0.1373311970702389
1688152521511514,2.090485999847374,0.106813153276903,0.1373311970702389
1688152521527517,2.059967956054038,-0.07629510948345342,0.1373311970702389
1688152521543520,1.9989318684672526,-0.19836728465702436,0.1373311970702389
1688152521559523,1.968413824673803,-0.16784924086368846,0.07629510948345342
1688152521575526,2.2430762188143945,0.16784924086368846,0.1373311970702389
1688152521591529,2.0294499122605885,-0.07629510948345342,0.07629510948345342
1688152521607533,1.9989318684672526,-0.2594033722438098,0.045777065690117524
1688152521623536,1.8768596932936816,0.07629510948345342,0.07629510948345342
1688152521639539,2.30411230640118,-0.045777065690117524,0.19836728465702436
1688152521655548,1.9989318684672526,0.07629510948345342,0.106813153276903
1688152521671551,1.9989318684672526,-0.41199359121083035,0.045777065690117524
1688152521687554,2.2430762188143945,-0.16784924086368846,0.19836728465702436
1688152521703557,1.7547875181201107,0.38147554741738077,0.07629510948345342
1688152521719560,2.334630350194516,-0.1373311970702389,0.19836728465702436
1688152521735563,1.846341649500232,-0.045777065690117524,0.045777065690117524
1688152521751567,2.1210040436408235,-0.19836728465702436,0.106813153276903
1688152521767570,2.1515220874341594,0.106813153276903,0.16784924086368846
1688152521783573,2.059967956054038,-0.1373311970702389,0.106813153276903
1688152521799576,1.8768596932936816,-0.2594033722438098,0.106813153276903
1688152521815579,2.059967956054038,0.2899214160372594,0.16784924086368846
1688152521831582,2.2735942626077303,-0.22888532845047393,0.16784924086368846
1688152521847585,1.9073777370870175,-0.045777065690117524,0.07629510948345342
1688152521863588,2.0294499122605885,-0.19836728465702436,0.106813153276903
1688152521879592,2.059967956054038,0.1373311970702389,0.16784924086368846
1688152521895595,2.1515220874341594,0.015259021896667946,0.16784924086368846
1688152521911598,2.0294499122605885,-0.1373311970702389,0.106813153276903
1688152521927601,1.9989318684672526,-0.2899214160372594,0.07629510948345342
1688152521943604,2.182040131227609,-0.015259021896667946,0.1373311970702389
1688152521959607,-1.3885709925993979,-0.19836728465702436,0.93080033569845
1688152521975616,-16.433966582742073,17.22743572137017,0.5951018539711868
1688152521991619,1.846341649500232,-2.6703288319218927,38.6511024643321
1688152522007622,3.6469062333104603,-7.217517357137353,54.0016784924087
1688152522023625,-0.41199359121083035,-2.6092927443351073,47.25719081406896
1688152522039629,0.07629510948345342,0.44251163500416624,38.37644007019162
1688152522055632,-1.2970168612191628,-0.41199359121083035,51.65178912031752
1688152522071635,-7.431143663691159,-2.761882963302014,52.65888456549942
1688152522087638,-2.761882963302014,3.8605325398641526,51.43816281376371
1688152522103641,-2.97550926985582,-2.1515220874341594,75.12016479743647
1688152522119644,0.4730296787976158,-2.334630350194516,105.02784771496158
1688152522135647,4.348821240558436,2.4872205691615363,68.86396581979102
1688152522151651,40.29907682917542,15.976195925841125,-235.91973754482342
1688152522167654,62.27206836041819,-26.932173647669174,-271.6563668268865
1688152522183657,27.084763866635967,6.088349736781879,-177.90493629358366
1688152522199660,1.052872510872021,10.63553826199734,-128.58777752346077
1688152522215663,16.403448538948624,8.62134737163342,-146.25772487983522
1688152522231666,8.468757152666512,11.184863050278409,-192.79774166475931
1688152522247669,17.471580071717312,25.131609063858832,-219.31792172121766
1688152522263672,38.31540398260472,32.02868696116593,-216.0524910353247
1688152522279676,74.75394827191576,19.485770962081233,-197.19233997100787
1688152522295684,81.07118333714811,32.913710231174264,-179.1561760891127
1688152522311688,70.84763866636149,13.473716334782921,-171.0078583962768
1688152522327691,33.92080567635617,1.022354467078685,-165.4535744258793
1688152522343694,79.6368352788586,-25.65041580834668,-167.49828336003657
1688152522359697,83.97039749752025,-44.2969405661097,-147.53948271915772
1688152522375700,65.14076447699699,-45.45662623025862,-113.5423819333181
1688152522391703,35.96551461051354,-45.60921644922553,-72.55664911879148
1688152522407706,31.357289997711177,-13.534752422369706,-39.0173189898527
1688152522423709,-2.548256656748322,30.655374990463088,-22.842755779354547
1688152522439713,-25.192645151445845,57.66384374761583,-21.31685358968491
1688152522455716,-29.43465323872738,28.39703974975191,-8.499275196459848
1688152522471719,-33.82925154497593,-5.172808422980097,-8.468757152666512
1688152522487722,-86.90012970168618,1.5716792553597543,-6.0578316929884295
1688152522503725,-108.04913405050729,-51.16350041962312,-3.128099488822727
1688152522519728,-105.57717250324254,-112.5352864881362,5.203326466773433
1688152522535731,-82.90226596475168,-104.81422140840766,-0.5340657663844013
1688152522551735,-58.42679484245059,-70.29831387808042,-15.518425268940177
1688152522567738,-6.027313649195094,-44.174868390936126,-14.236667429617683
1688152522583741,14.938582436865772,-56.04638742656596,-17.471580071717426
1688152522599744,-20.79804684519729,-39.658197909514,5.722133211261166
1688152522615753,9.811551079575793,-35.99603265430687,5.53902494850081
1688152522631756,40.909437705043274,-94.71274891279472,4.654001678492364
1688152522647759,42.34378576333256,-159.53307392996112,17.01380941481648
1688152522663762,61.5091172655832,-154.40604257267114,29.190508888380236
1688152522679765,51.04142824444966,-99.65667200732435,52.29266803997871
1688152522695768,39.749752040894236,-2.5787747005416577,79.94201571679241
1688152522711772,62.08896009765772,116.47211413748391,83.6346990157931
1688152522727775,79.97253376058597,173.3577477683682,78.01937895780884
1688152522743778,82.3529411764705,132.92133974212243,65.90371557183175
1688152522759781,14.602883955138395,75.76104371709766,60.898756389715345
1688152522775784,-88.79224841687653,101.27412832837422,62.33310444800486
1688152522791787,-148.42450598916616,124.16266117341888,67.12443732356746
1688152522807790,-74.84550240329588,113.1151293202106,42.16067750057232
1688152522823794,0.9002822919051141,89.46364538033095,16.769665064469336
1688152522839797,33.859769588769495,51.62127107652395,3.4332799267566543
1688152522855800,104.6921492332342,8.041504539559014,-18.814373998626706
1688152522871803,192.0653086137179,35.9349965667202,-59.49492637521939
1688152522887806,155.99298084992733,92.60700389105045,-74.1435873960479
1688152522903809,33.981841763943066,79.91149767299908,-55.55809872587167
1688152522919812,-7.156481269550568,25.77248798352025,-44.846265354390766
1688152522935821,11.947814145113284,5.783169298847952,-47.440299076829206
1688152522951824,15.945677882047676,2.0294499122605885,-46.1585412375066
1688152522967827,8.865491721980561,30.89951934081023,-50.827801937895856
1688152522983831,-16.525520714122308,130.1747158007172,-42.74052033264661
1688152522999834,-36.45380331120771,136.6750591287098,-39.2309452964065
1688152523015837,-37.94918745708401,-12.466620889600904,-38.74265659571222
1688152523031840,-65.20180056458378,-103.10521095597767,-30.25864042114904
1688152523047843,-100.93842984664684,-37.979705500877344,-9.56740672922865
1688152523063846,-117.7538719768063,53.69649805447466,4.745555809872599
1688152523079849,-82.65812161440454,72.52613107499815,0.1373311970702389
1688152523095852,-23.33104448004883,-12.741283283741495,-7.888914320591994
1688152523111856,73.96047913328744,-84.94697489890905,-24.97901884489204
1688152523127859,90.83695735103379,-56.68726634622726,-18.173495078965516
1688152523143862,99.29045548180375,2.731364919508678,15.823605706874105
1688152523159865,186.63309681849387,-170.64164187075608,-10.605020218204004
1688152523175868,-28.91584649423976,-139.72686350804906,-47.56237125200278
1688152523191871,-109.69710841535061,-483.1464103150987,-59.43389028763261
1688152523207874,-36.02655069810021,-35.78240634775307,-53.72701609826811
1688152523223878,29.922941939421662,-79.270618753338,-42.710002288853275
1688152523239881,20.92011902037075,5.9357595178148586,-23.147936217288475
1688152523255890,5.294880598153668,-11.520561532005786,-4.562447547112242
1688152523271893,2.6092927443351073,3.006027313649156,-0.6256198977645226
1688152523287896,1.937895780880467,-0.8392462043183286,0.045777065690117524
1688152523303899,1.968413824673803,-0.3204394598305953,0.106813153276903
1688152523319902,1.968413824673803,-0.22888532845047393,0.106813153276903
1688152523335905,1.937895780880467,-0.19836728465702436,0.106813153276903
1688152523351908,1.968413824673803,-0.19836728465702436,0.1373311970702389
1688152523367911,2.4567025253680868,0.6561379415579722,-5.264362554360218
1688152523383915,3.4943160143434397,-3.097581445029391,-87.51049057755404
1688152523399918,3.097581445029391,-6.607156481269499,-42.34378576333256
1688152523415921,3.585870145723675,-5.905241474021523,72.9228656443122
1688152523431924,0.6256198977645226,-4.928664072632955,85.77096208133048
1688152523447927,1.968413824673803,-3.250171663996298,66.78873884184031
1688152523463930,0.9002822919051141,10.63553826199734,0.2594033722438098
1688152523479933,4.470893415732007,2.334630350194516,-31.204699778744157
1688152523495936,-0.5340657663844013,-3.6469062333104603,-38.010223544670794
1688152523511940,-0.5951018539711868,10.605020218204004,-34.59220263981081
1688152523527943,1.8768596932936816,3.768978408484031,-48.32532234683765
1688152523543946,-1.7547875181201107,22.568093385213956,-20.187685969329436
1688152523559949,-68.0704966811627,50.003814755474195,32.88319218738093
1688152523575958,-68.03997863736936,22.568093385213956,44.38849469748993
1688152523591961,-22.903791866941333,18.234531166552188,18.539711604486115
1688152523607964,-21.89669642175943,7.522697795071281,8.22461280231937
1688152523623967,-54.91721980621048,-20.79804684519729,25.71145189593335
1688152523639970,-85.31319142442976,-13.809414816510184,9.475852597848416
1688152523655974,-65.84267948424508,-38.83421072709234,-17.807278553444803
1688152523671977,53.72701609826822,-20.157167925535987,-36.881055924315206
1688152523687980,184.95460440985744,30.13656824597524,-44.63263904783696
1688152523703983,153.52101930266258,-66.69718471046008,4.776073853665935
1688152523719986,18.99748226138695,24.093995574883593,10.849164568551146
1688152523735989,3.0670634012359415,-22.079804684519786,9.109636072327703
1688152523751992,4.013122758831173,11.97833218890662,2.5177386129548722
1688152523767995,1.2970168612191628,-5.691615167467717,0.6256198977645226
1688152523783999,2.059967956054038,0.07629510948345342,0.19836728465702436
1688152523800002,1.9989318684672526,-0.07629510948345342,0.16784924086368846
1688152523816005,1.968413824673803,-0.07629510948345342,0.106813153276903
1688152523832008,2.0294499122605885,-0.045777065690117524,0.1373311970702389
1688152523848011,2.059967956054038,-0.07629510948345342,0.19836728465702436
1688152523864014,1.9989318684672526,-0.1373311970702389,0.1373311970702389
1688152523880017,2.0294499122605885,-0.015259021896667946,0.1373311970702389
1688152523896026,2.0294499122605885,0.015259021896667946,0.1373311970702389
1688152523912029,2.090485999847374,-0.045777065690117524,0.106813153276903
1688152523928033,2.1210040436408235,-0.106813153276903,0.07629510948345342
1688152523944036,2.059967956054038,-0.015259021896667946,0.1373311970702389
1688152523960039,2.0294499122605885,0.045777065690117524,0.16784924086368846
1688152523976042,2.1210040436408235,-0.1373311970702389,0.1373311970702389
1688152523992045,2.090485999847374,-0.045777065690117524,0.1373311970702389
1688152524008048,2.0294499122605885,-0.045777065690117524,0.1373311970702389
1688152524024051,1.9989318684672526,-0.015259021896667946,0.1373311970702389
1688152524040054,1.9989318684672526,-0.106813153276903,0.16784924086368846
1688152524056058,2.0294499122605885,-0.106813153276903,0.106813153276903
1688152524072061,2.059967956054038,-0.045777065690117524,0.1373311970702389
1688152524088064,2.090485999847374,0.015259021896667946,0.16784924086368846
1688152524104067,2.090485999847374,-0.015259021896667946,0.16784924086368846
1688152524120070,2.059967956054038,-0.045777065690117524,0.1373311970702389
1688152524136073,2.090485999847374,-0.045777065690117524,0.07629510948345342
1688152524152076,2.059967956054038,-0.045777065690117524,0.07629510948345342
1688152524168079,2.059967956054038,-0.045777065690117524,0.16784924086368846
1688152524184083,1.9989318684672526,-0.045777065690117524,0.106813153276903
1688152524200086,2.0294499122605885,-0.045777065690117524,0.106813153276903
1688152524216095,2.059967956054038,-0.015259021896667946,0.106813153276903
1688152524232098,2.059967956054038,-0.045777065690117524,0.106813153276903
1688152524248101,2.059967956054038,-0.106813153276903,0.1373311970702389
1688152524264104,2.059967956054038,-0.1373311970702389,0.16784924086368846
1688152524280107,2.059967956054038,-0.015259021896667946,0.16784924086368846
1688152524296110,1.9989318684672526,0.106813153276903,0.1373311970702389
1688152524312113,2.0294499122605885,-0.045777065690117524,0.16784924086368846
1688152524328117,2.090485999847374,-0.106813153276903,0.1373311970702389
1688152524344120,2.090485999847374,-0.015259021896667946,0.1373311970702389
1688152524360123,2.0294499122605885,-0.045777065690117524,0.16784924086368846
1688152524376126,1.9989318684672526,-0.07629510948345342,0.16784924086368846
1688152524392129,2.0294499122605885,-0.045777065690117524,0.16784924086368846
1688152524408132,2.059967956054038,0.015259021896667946,0.16784924086368846
1688152524424135,2.090485999847374,-0.015259021896667946,0.1373311970702389
1688152524440138,2.059967956054038,-0.16784924086368846,0.106813153276903
1688152524456142,2.059967956054038,-0.16784924086368846,0.1373311970702389
1688152524472145,2.059967956054038,-0.015259021896667946,0.1373311970702389
1688152524488148,2.059967956054038,0.015259021896667946,0.16784924086368846
1688152524504151,2.0294499122605885,-0.045777065690117524,0.1373311970702389
1688152524520154,1.9989318684672526,-0.045777065690117524,0.1373311970702389
1688152524536163,2.059967956054038,0.045777065690117524,0.1373311970702389
1688152524552166,1.9989318684672526,-0.015259021896667946,0.1373311970702389
1688152524568169,2.0294499122605885,-0.106813153276903,0.1373311970702389
1688152524584172,2.059967956054038,-0.1373311970702389,0.1373311970702389
1688152524600175,2.0294499122605885,-0.045777065690117524,0.16784924086368846
1688152524616179,2.059967956054038,-0.045777065690117524,0.1373311970702389
1688152524632182,2.059967956054038,-0.07629510948345342,0.045777065690117524
1688152524648185,2.0294499122605885,-0.106813153276903,0.07629510948345342
1688152524664188,2.059967956054038,-0.045777065690117524,0.106813153276903
1688152524680191,2.059967956054038,-0.045777065690117524,0.07629510948345342
1688152524696194,2.059967956054038,-0.106813153276903,0.1373311970702389
1688152524712197,1.9989318684672526,0.015259021896667946,0.16784924086368846
1688152524728201,1.9989318684672526,0.015259021896667946,0.1373311970702389
1688152524744204,2.059967956054038,-0.015259021896667946,0.07629510948345342
1688152524760207,2.059967956054038,-0.07629510948345342,0.106813153276903
1688152524776210,2.059967956054038,-0.045777065690117524,0.16784924086368846
1688152524792213,2.090485999847374,0.015259021896667946,0.1373311970702389
1688152524808216,2.090485999847374,0.015259021896667946,0.106813153276903
1688152524824219,2.1210040436408235,-0.015259021896667946,0.16784924086368846
1688152524840222,2.0294499122605885,-0.106813153276903,0.1373311970702389
1688152524856231,2.0294499122605885,0.015259021896667946,0.16784924086368846
1688152524872234,2.090485999847374,0.015259021896667946,0.07629510948345342
1688152524888238,2.059967956054038,-0.045777065690117524,0.07629510948345342
1688152524904241,2.090485999847374,-0.015259021896667946,0.106813153276903
1688152524920244,1.9989318684672526,0.015259021896667946,0.1373311970702389
1688152524936247,2.0294499122605885,0.07629510948345342,0.16784924086368846
1688152524952250,1.9989318684672526,-0.106813153276903,0.1373311970702389
1688152524968253,2.090485999847374,-0.07629510948345342,0.1373311970702389
1688152524984256,2.059967956054038,0.015259021896667946,0.16784924086368846
1688152525000260,2.0294499122605885,-0.045777065690117524,0.1373311970702389
1688152525016263,2.0294499122605885,-0.07629510948345342,0.106813153276903
1688152525032266,2.059967956054038,-0.045777065690117524,0.1373311970702389
1688152525048269,2.0294499122605885,0.015259021896667946,0.1373311970702389
1688152525064272,2.0294499122605885,0.045777065690117524,0.1373311970702389
1688152525080275,1.9989318684672526,-0.045777065690117524,0.106813153276903
1688152525096278,2.0294499122605885,-0.07629510948345342,0.1373311970702389
1688152525112281,2.0294499122605885,-0.015259021896667946,0.16784924086368846
1688152525128285,2.090485999847374,0.015259021896667946,0.1373311970702389
1688152525144288,2.059967956054038,-0.106813153276903,0.106813153276903
1688152525160291,2.0294499122605885,-0.045777065690117524,0.1373311970702389
1688152525176269,2.059967956054038,0.015259021896667946,0.16784924086368846
1688152525192272,2.059967956054038,-0.015259021896667946,0.16784924086368846
1688152525208275,2.0294499122605885,-0.106813153276903,0.16784924086368846
1688152525224279,2.090485999847374,-0.16784924086368846,0.106813153276903
1688152525240282,2.059967956054038,0.015259021896667946,0.16784924086368846
1688152525256285,2.090485999847374,-0.07629510948345342,0.1373311970702389
1688152525272288,2.0294499122605885,-0.07629510948345342,0.106813153276903
1688152525288291,2.059967956054038,-0.045777065690117524,0.1373311970702389
1688152525304294,2.059967956054038,-0.045777065690117524,0.16784924086368846
1688152525320297,2.059967956054038,0.015259021896667946,0.1373311970702389
1688152525336300,2.0294499122605885,-0.07629510948345342,0.19836728465702436
1688152525352304,2.0294499122605885,-0.106813153276903,0.106813153276903
1688152525368307,2.0294499122605885,-0.07629510948345342,0.106813153276903
1688152525384310,2.059967956054038,-0.015259021896667946,0.19836728465702436
1688152525400313,2.0294499122605885,-0.045777065690117524,0.16784924086368846
1688152525416316,1.9989318684672526,-0.07629510948345342,0.1373311970702389
1688152525432319,2.059967956054038,-0.07629510948345342,0.106813153276903
1688152525448322,2.0294499122605885,0.015259021896667946,0.1373311970702389
1688152525464326,1.9989318684672526,-0.07629510948345342,0.07629510948345342
1688152525480329,2.0294499122605885,-0.07629510948345342,0.106813153276903
1688152525496338,2.059967956054038,-0.045777065690117524,0.106813153276903
1688152525512341,2.059967956054038,0.015259021896667946,0.106813153276903
1688152525528344,2.090485999847374,-0.015259021896667946,0.07629510948345342
1688152525544347,2.059967956054038,-0.106813153276903,0.07629510948345342
1688152525560350,2.090485999847374,-0.015259021896667946,0.1373311970702389
1688152525576353,1.9989318684672526,-0.015259021896667946,0.1373311970702389
1688152525592356,2.0294499122605885,-0.045777065690117524,0.16784924086368846
1688152525608359,1.9989318684672526,-0.1373311970702389,0.106813153276903
1688152525624363,2.0294499122605885,0.015259021896667946,0.1373311970702389
1688152525640366,2.090485999847374,0.015259021896667946,0.16784924086368846
1688152525656369,2.090485999847374,-0.045777065690117524,0.16784924086368846
1688152525672372,2.059967956054038,-0.106813153276903,0.106813153276903
1688152525688375,2.090485999847374,-0.045777065690117524,0.106813153276903
1688152525704378,2.1210040436408235,0.045777065690117524,0.07629510948345342
1688152525720381,2.090485999847374,-0.106813153276903,0.106813153276903
1688152525736384,2.059967956054038,-0.1373311970702389,0.16784924086368846
1688152525752388,2.0294499122605885,-0.07629510948345342,0.1373311970702389
1688152525768391,1.9989318684672526,0.015259021896667946,0.16784924086368846
1688152525784394,2.059967956054038,-0.106813153276903,0.1373311970702389
1688152525800397,2.090485999847374,-0.07629510948345342,0.07629510948345342
1688152525816406,2.1210040436408235,-0.015259021896667946,0.106813153276903
1688152525832409,2.059967956054038,0.045777065690117524,0.1373311970702389
1688152525848412,2.059967956054038,-0.07629510948345342,0.106813153276903
1688152525864415,2.090485999847374,-0.07629510948345342,0.106813153276903
1688152525880418,2.090485999847374,-0.045777065690117524,0.1373311970702389
1688152525896422,2.1515220874341594,0.045777065690117524,0.1373311970702389
1688152525912425,2.090485999847374,-0.106813153276903,0.1373311970702389
1688152525928428,2.059967956054038,-0.07629510948345342,0.16784924086368846
1688152525944431,2.090485999847374,-0.07629510948345342,0.16784924086368846
1688152525960434,2.1210040436408235,0.3204394598305953,0.19836728465702436
1688152525976437,2.059967956054038,-0.5951018539711868,0.2594033722438098
1688152525992440,2.1210040436408235,-0.045777065690117524,0.045777065690117524
1688152526008443,2.090485999847374,-0.045777065690117524,0.07629510948345342
1688152526024447,2.059967956054038,0.045777065690117524,0.16784924086368846
1688152526040450,2.0294499122605885,0.106813153276903,0.19836728465702436
1688152526056453,1.968413824673803,-0.07629510948345342,0.19836728465702436
1688152526072456,1.9989318684672526,-0.015259021896667946,0.106813153276903
1688152526088459,2.0294499122605885,0.07629510948345342,0.07629510948345342
1688152526104462,1.968413824673803,-0.07629510948345342,0.106813153276903
1688152526120465,1.937895780880467,-0.045777065690117524,0.1373311970702389
1688152526136474,1.9073777370870175,-0.045777065690117524,0.16784924086368846
1688152526152477,1.968413824673803,0.015259021896667946,0.07629510948345342
1688152526168480,2.059967956054038,0.015259021896667946,0.045777065690117524
1688152526184484,1.968413824673803,-0.07629510948345342,0.106813153276903
1688152526200487,1.9073777370870175,0.015259021896667946,0.19836728465702436
1688152526216490,1.937895780880467,0.07629510948345342,0.19836728465702436
1688152526232493,1.937895780880467,0.07629510948345342,0.1373311970702389
1688152526248496,1.937895780880467,-0.045777065690117524,0.07629510948345342
1688152526264499,1.937895780880467,-0.045777065690117524,0.1373311970702389
1688152526280502,1.968413824673803,0.07629510948345342,0.16784924086368846
1688152526296506,1.968413824673803,-0.045777065690117524,0.16784924086368846
1688152526312509,2.0294499122605885,-0.16784924086368846,0.1373311970702389
1688152526328512,2.059967956054038,0.045777065690117524,0.16784924086368846
1688152526344515,2.0294499122605885,-0.045777065690117524,0.045777065690117524
1688152526360518,1.9989318684672526,-0.045777065690117524,0.07629510948345342
1688152526376521,2.0294499122605885,-0.07629510948345342,0.1373311970702389
1688152526392524,2.059967956054038,-0.045777065690117524,0.1373311970702389
1688152526408527,2.090485999847374,0.045777065690117524,0.106813153276903
1688152526424531,2.090485999847374,-0.07629510948345342,0.1373311970702389
1688152526440534,1.968413824673803,-0.106813153276903,0.106813153276903
1688152526456543,2.0294499122605885,-0.07629510948345342,0.19836728465702436
1688152526472546,2.0294499122605885,-0.015259021896667946,0.106813153276903
1688152526488549,2.0294499122605885,-0.015259021896667946,0.106813153276903
1688152526504552,2.0294499122605885,-0.106813153276903,0.106813153276903
1688152526520555,2.059967956054038,-0.045777065690117524,0.106813153276903
1688152526536558,2.059967956054038,0.07629510948345342,0.106813153276903
1688152526552561,2.059967956054038,-0.015259021896667946,0.16784924086368846
1688152526568565,2.0294499122605885,-0.106813153276903,0.1373311970702389
1688152526584568,2.059967956054038,-0.106813153276903,0.1373311970702389
1688152526600571,2.059967956054038,0.015259021896667946,0.16784924086368846
1688152526616574,1.9989318684672526,-0.015259021896667946,0.16784924086368846
1688152526632577,1.9989318684672526,-0.1373311970702389,0.1373311970702389
1688152526648580,2.0294499122605885,-0.106813153276903,0.16784924086368846
1688152526664583,2.090485999847374,0.045777065690117524,0.106813153276903
1688152526680586,2.059967956054038,0.015259021896667946,0.106813153276903
1688152526696590,2.0294499122605885,-0.045777065690117524,0.106813153276903
1688152526712593,1.9989318684672526,-0.07629510948345342,0.106813153276903
1688152526728596,2.059967956054038,0.015259021896667946,0.1373311970702389
1688152526744599,2.059967956054038,-0.045777065690117524,0.1373311970702389
1688152526760602,2.0294499122605885,-0.045777065690117524,0.16784924086368846
1688152526776611,2.059967956054038,-0.07629510948345342,0.106813153276903
1688152526792614,2.0294499122605885,0.015259021896667946,0.106813153276903
1688152526808617,2.0294499122605885,0.045777065690117524,0.106813153276903
1688152526824620,2.059967956054038,-0.1373311970702389,0.106813153276903
1688152526840623,2.090485999847374,-0.106813153276903,0.16784924086368846
1688152526856627,2.090485999847374,-0.045777065690117524,0.1373311970702389
1688152526872630,2.059967956054038,-0.106813153276903,0.1373311970702389
1688152526888633,2.090485999847374,-0.1373311970702389,0.1373311970702389
1688152526904636,2.1210040436408235,-0.106813153276903,0.1373311970702389
1688152526920639,2.059967956054038,-0.015259021896667946,0.16784924086368846
1688152526936642,2.059967956054038,-0.045777065690117524,0.16784924086368846
1688152526952645,2.059967956054038,-0.07629510948345342,0.106813153276903
1688152526968649,2.0294499122605885,-0.015259021896667946,0.1373311970702389
1688152526984652,2.059967956054038,0.045777065690117524,0.16784924086368846
1688152527000655,2.090485999847374,0.015259021896667946,0.1373311970702389
1688152527016658,2.059967956054038,-0.07629510948345342,0.07629510948345342
1688152527032661,2.0294499122605885,-0.106813153276903,0.106813153276903
1688152527048664,2.0294499122605885,-0.015259021896667946,0.16784924086368846
1688152527064667,2.0294499122605885,-0.045777065690117524,0.16784924086368846
1688152527080670,1.9989318684672526,-0.07629510948345342,0.106813153276903
1688152527096679,2.0294499122605885,-0.07629510948345342,0.106813153276903
1688152527112682,2.090485999847374,-0.015259021896667946,0.1373311970702389
1688152527128686,2.090485999847374,-0.015259021896667946,0.1373311970702389
1688152527144689,2.0294499122605885,-0.07629510948345342,0.106813153276903
1688152527160692,2.059967956054038,-0.045777065690117524,0.07629510948345342
1688152527176695,2.059967956054038,0.015259021896667946,0.106813153276903
1688152527192698,1.9989318684672526,0.015259021896667946,0.106813153276903
1688152527208701,2.0294499122605885,-0.045777065690117524,0.07629510948345342
1688152527224704,1.9989318684672526,-0.07629510948345342,0.106813153276903
1688152527240707,2.059967956054038,-0.045777065690117524,0.1373311970702389
1688152527256711,2.059967956054038,0.015259021896667946,0.1373311970702389
1688152527272714,2.090485999847374,-0.07629510948345342,0.07629510948345342
1688152527288717,2.0294499122605885,-0.16784924086368846,0.1373311970702389
1688152527304720,2.0294499122605885,-0.015259021896667946,0.106813153276903
1688152527320723,2.059967956054038,-0.015259021896667946,0.106813153276903
1688152527336726,2.059967956054038,-0.045777065690117524,0.106813153276903
1688152527352729,1.968413824673803,-0.015259021896667946,0.106813153276903
1688152527368733,2.059967956054038,0.045777065690117524,0.1373311970702389
1688152527384736,2.059967956054038,-0.015259021896667946,0.106813153276903
1688152527400739,2.090485999847374,-0.045777065690117524,0.07629510948345342
1688152527416748,2.059967956054038,-0.07629510948345342,0.1373311970702389
1688152527432751,2.0294499122605885,0.015259021896667946,0.16784924086368846
1688152527448754,1.968413824673803,0.045777065690117524,0.1373311970702389
1688152527464757,1.9989318684672526,-0.07629510948345342,0.07629510948345342
1688152527480760,1.9989318684672526,-0.106813153276903,0.106813153276903
1688152527496763,1.9989318684672526,0.015259021896667946,0.19836728465702436
1688152527512766,2.0294499122605885,0.045777065690117524,0.1373311970702389
1688152527528770,2.0294499122605885,-0.045777065690117524,0.07629510948345342
1688152527544773,1.9989318684672526,-0.045777065690117524,0.1373311970702389
1688152527560776,2.0294499122605885,-0.07629510948345342,0.1373311970702389
1688152527576779,1.9989318684672526,-0.015259021896667946,0.1373311970702389
1688152527592782,1.9989318684672526,-0.07629510948345342,0.1373311970702389
1688152527608785,2.059967956054038,-0.1373311970702389,0.106813153276903
1688152527624788,2.090485999847374,-0.07629510948345342,0.16784924086368846
1688152527640792,2.0294499122605885,-0.045777065690117524,0.16784924086368846
1688152527656795,2.059967956054038,-0.045777065690117524,0.106813153276903
1688152527672798,2.059967956054038,-0.1373311970702389,0.106813153276903
1688152527688801,1.968413824673803,-0.045777065690117524,0.19836728465702436
1688152527704804,2.0294499122605885,0.015259021896667946,0.16784924086368846
1688152527720807,2.059967956054038,-0.07629510948345342,0.19836728465702436
1688152527736816,2.090485999847374,-0.07629510948345342,0.16784924086368846
1688152527752819,2.1210040436408235,-0.045777065690117524,0.1373311970702389
1688152527768822,2.059967956054038,-0.015259021896667946,0.106813153276903
1688152527784825,2.059967956054038,-0.015259021896667946,0.07629510948345342
1688152527800829,1.968413824673803,-0.106813153276903,0.1373311970702389
1688152527816832,2.0294499122605885,-0.045777065690117524,0.1373311970702389
1688152527832835,2.059967956054038,0.045777065690117524,0.1373311970702389
1688152527848838,2.059967956054038,-0.045777065690117524,0.045777065690117524
1688152527864841,2.0294499122605885,-0.045777065690117524,0.1373311970702389
1688152527880844,1.9989318684672526,0.015259021896667946,0.1373311970702389
1688152527896847,2.0294499122605885,0.015259021896667946,0.16784924086368846
1688152527912850,2.0294499122605885,0.045777065690117524,0.19836728465702436
1688152527928854,2.059967956054038,-0.07629510948345342,0.16784924086368846
1688152527944857,2.059967956054038,-0.045777065690117524,0.16784924086368846
1688152527960860,2.0294499122605885,-0.045777065690117524,0.16784924086368846
1688152527976863,2.0294499122605885,0.015259021896667946,0.16784924086368846
1688152527992866,2.0294499122605885,-0.07629510948345342,0.1373311970702389
1688152528008869,1.9989318684672526,-0.07629510948345342,0.1373311970702389
1688152528024872,2.0294499122605885,-0.015259021896667946,0.106813153276903
1688152528040876,2.059967956054038,-0.015259021896667946,0.1373311970702389
1688152528056884,2.0294499122605885,-0.045777065690117524,0.16784924086368846
1688152528072888,2.0294499122605885,-0.07629510948345342,0.16784924086368846
1688152528088891,2.059967956054038,-0.015259021896667946,0.106813153276903
1688152528104894,2.0294499122605885,-0.07629510948345342,0.106813153276903
1688152528120897,2.0294499122605885,-0.07629510948345342,0.1373311970702389
1688152528136900,2.059967956054038,-0.07629510948345342,0.19836728465702436
1688152528152903,2.0294499122605885,0.015259021896667946,0.19836728465702436
1688152528168906,1.9989318684672526,-0.045777065690117524,0.19836728465702436
1688152528184909,2.059967956054038,-0.07629510948345342,0.16784924086368846
1688152528200913,2.059967956054038,0.015259021896667946,0.16784924086368846
1688152528216916,2.059967956054038,-0.015259021896667946,0.106813153276903
1688152528232919,2.0294499122605885,-0.045777065690117524,0.106813153276903
1688152528248922,1.9989318684672526,-0.045777065690117524,0.07629510948345342
1688152528264925,2.0294499122605885,-0.015259021896667946,0.106813153276903
1688152528280928,1.9989318684672526,0.015259021896667946,0.106813153276903
1688152528296931,2.0294499122605885,-0.015259021896667946,0.106813153276903
1688152528312935,1.9989318684672526,-0.106813153276903,0.106813153276903
1688152528328938,1.9989318684672526,-0.015259021896667946,0.1373311970702389
1688152528344941,1.9989318684672526,0.045777065690117524,0.16784924086368846
1688152528360944,2.0294499122605885,0.015259021896667946,0.106813153276903
1688152528376953,2.0294499122605885,-0.045777065690117524,0.1373311970702389
1688152528392956,2.0294499122605885,0.015259021896667946,0.106813153276903
1688152528408959,2.0294499122605885,0.045777065690117524,0.1373311970702389
1688152528424962,2.0294499122605885,-0.045777065690117524,0.106813153276903
1688152528440965,2.0294499122605885,-0.106813153276903,0.1373311970702389
1688152528456968,2.090485999847374,-0.015259021896667946,0.106813153276903
1688152528472972,2.1210040436408235,0.045777065690117524,0.16784924086368846
1688152528488975,2.059967956054038,0.015259021896667946,0.1373311970702389
1688152528504978,1.9989318684672526,-0.106813153276903,0.1373311970702389
1688152528520981,1.9989318684672526,-0.106813153276903,0.1373311970702389
1688152528536984,1.9989318684672526,-0.015259021896667946,0.16784924086368846
1688152528552987,2.090485999847374,-0.015259021896667946,0.19836728465702436
1688152528568990,2.090485999847374,-0.106813153276903,0.16784924086368846
1688152528584993,2.0294499122605885,-0.045777065690117524,0.1373311970702389
1688152528600997,2.059967956054038,-0.07629510948345342,0.106813153276903
1688152528617000,2.0294499122605885,-0.015259021896667946,0.1373311970702389
1688152528633003,2.0294499122605885,-0.07629510948345342,0.1373311970702389
1688152528649006,2.0294499122605885,-0.07629510948345342,0.16784924086368846
1688152528665009,1.9989318684672526,-0.015259021896667946,0.106813153276903
1688152528681012,1.9989318684672526,-0.07629510948345342,0.106813153276903
1688152528696991,1.9989318684672526,-0.07629510948345342,0.106813153276903
1688152528712994,1.9989318684672526,-0.045777065690117524,0.106813153276903
1688152528728997,2.0294499122605885,0.015259021896667946,0.1373311970702389
1688152528745000,2.0294499122605885,-0.015259021896667946,0.1373311970702389
1688152528761003,2.0294499122605885,-0.07629510948345342,0.07629510948345342
1688152528777006,2.0294499122605885,-0.07629510948345342,0.106813153276903
1688152528793009,2.059967956054038,-0.045777065690117524,0.106813153276903
1688152528809013,2.0294499122605885,-0.015259021896667946,0.106813153276903
1688152528825016,1.9989318684672526,-0.07629510948345342,0.1373311970702389
1688152528841019,1.9989318684672526,-0.045777065690117524,0.106813153276903
1688152528857022,1.968413824673803,-0.015259021896667946,0.1373311970702389
1688152528873025,2.0294499122605885,0.015259021896667946,0.16784924086368846
1688152528889028,2.0294499122605885,-0.015259021896667946,0.106813153276903
1688152528905031,1.9989318684672526,-0.045777065690117524,0.1373311970702389
1688152528921034,2.0294499122605885,-0.045777065690117524,0.1373311970702389
1688152528937038,2.059967956054038,-0.015259021896667946,0.1373311970702389
1688152528953041,2.059967956054038,-0.07629510948345342,0.1373311970702389
1688152528969044,1.9989318684672526,-0.1373311970702389,0.16784924086368846
1688152528985047,1.968413824673803,-0.015259021896667946,0.22888532845047393
1688152529001050,1.9989318684672526,0.015259021896667946,0.07629510948345342
1688152529017059,2.059967956054038,-0.045777065690117524,0.106813153276903
1688152529033062,2.059967956054038,-0.106813153276903,0.106813153276903
1688152529049065,2.059967956054038,-0.07629510948345342,0.1373311970702389
1688152529065068,2.090485999847374,-0.015259021896667946,0.1373311970702389
1688152529081071,2.059967956054038,-0.106813153276903,0.1373311970702389
1688152529097075,2.059967956054038,-0.106813153276903,0.106813153276903
1688152529113078,2.0294499122605885,-0.015259021896667946,0.1373311970702389
1688152529129081,2.0294499122605885,0.045777065690117524,0.1373311970702389
1688152529145084,2.090485999847374,-0.07629510948345342,0.1373311970702389
1688152529161087,2.0294499122605885,-0.106813153276903,0.106813153276903
1688152529177090,1.9989318684672526,-0.07629510948345342,0.1373311970702389
1688152529193093,2.0294499122605885,-0.015259021896667946,0.1373311970702389
1688152529209097,2.059967956054038,-0.07629510948345342,0.16784924086368846
1688152529225100,2.059967956054038,-0.07629510948345342,0.19836728465702436
1688152529241103,2.0294499122605885,-0.015259021896667946,0.1373311970702389
1688152529257106,1.9989318684672526,0.045777065690117524,0.106813153276903
1688152529273109,2.0294499122605885,-0.106813153276903,0.106813153276903
1688152529289112,1.9989318684672526,-0.07629510948345342,0.106813153276903
1688152529305115,2.0294499122605885,0.015259021896667946,0.1373311970702389
1688152529321118,1.9989318684672526,0.07629510948345342,0.1373311970702389
1688152529337127,1.9989318684672526,-0.07629510948345342,0.106813153276903
1688152529353130,2.0294499122605885,-0.106813153276903,0.07629510948345342
1688152529369134,2.0294499122605885,-0.045777065690117524,0.1373311970702389
1688152529385137,1.9989318684672526,0.045777065690117524,0.1373311970702389
1688152529401140,1.9989318684672526,-0.015259021896667946,0.1373311970702389
1688152529417143,2.0294499122605885,-0.015259021896667946,0.07629510948345342
1688152529433146,2.0294499122605885,-0.015259021896667946,0.1373311970702389
1688152529449149,1.9989318684672526,-0.015259021896667946,0.07629510948345342
1688152529465152,2.0294499122605885,-0.045777065690117524,0.1373311970702389
1688152529481155,2.0294499122605885,-0.045777065690117524,0.16784924086368846
1688152529497159,2.059967956054038,-0.015259021896667946,0.16784924086368846
1688152529513162,2.059967956054038,0.045777065690117524,0.106813153276903
1688152529529165,2.059967956054038,-0.045777065690117524,0.1373311970702389
1688152529545168,1.9989318684672526,-0.07629510948345342,0.106813153276903
1688152529561171,1.9989318684672526,-0.045777065690117524,0.106813153276903
1688152529577174,2.0294499122605885,0.015259021896667946,0.07629510948345342
1688152529593177,1.968413824673803,-0.07629510948345342,0.106813153276903
1688152529609181,1.9989318684672526,-0.1373311970702389,0.16784924086368846
1688152529625184,2.0294499122605885,0.015259021896667946,0.16784924086368846
1688152529641187,2.090485999847374,0.045777065690117524,0.106813153276903
1688152529657196,1.9989318684672526,-0.106813153276903,0.07629510948345342
1688152529673199,1.968413824673803,-0.106813153276903,0.1373311970702389
1688152529689202,1.968413824673803,-0.045777065690117524,0.19836728465702436
1688152529705205,2.0294499122605885,0.045777065690117524,0.19836728465702436
1688152529721208,1.9989318684672526,-0.07629510948345342,0.106813153276903
1688152529737211,1.937895780880467,-0.106813153276903,0.07629510948345342
1688152529753214,1.9989318684672526,0.015259021896667946,0.16784924086368846
1688152529769218,2.0294499122605885,0.045777065690117524,0.1373311970702389
1688152529785221,2.0294499122605885,0.045777065690117524,0.16784924086368846
1688152529801224,1.9989318684672526,-0.106813153276903,0.1373311970702389
1688152529817227,2.059967956054038,-0.07629510948345342,0.106813153276903
1688152529833230,2.059967956054038,0.015259021896667946,0.1373311970702389
1688152529849233,1.937895780880467,-0.07629510948345342,0.16784924086368846
1688152529865236,1.9989318684672526,-0.07629510948345342,0.106813153276903
1688152529881240,1.9989318684672526,-0.106813153276903,0.1373311970702389
1688152529897243,2.0294499122605885,0.015259021896667946,0.16784924086368846
1688152529913246,2.059967956054038,-0.045777065690117524,0.1373311970702389
1688152529929249,1.9989318684672526,-0.1373311970702389,0.1373311970702389
1688152529945252,1.9989318684672526,-0.015259021896667946,0.16784924086368846
1688152529961255,2.0294499122605885,0.045777065690117524,0.16784924086368846
1688152529977264,2.0294499122605885,-0.07629510948345342,0.1373311970702389
1688152529993267,1.968413824673803,-0.1373311970702389,0.1373311970702389
1688152530009270,2.0294499122605885,0.015259021896667946,0.1373311970702389
1688152530025273,2.0294499122605885,0.045777065690117524,0.19836728465702436
1688152530041277,1.9989318684672526,-0.045777065690117524,0.106813153276903
1688152530057280,2.0294499122605885,-0.045777065690117524,0.106813153276903
1688152530073283,2.0294499122605885,-0.07629510948345342,0.106813153276903
1688152530089286,2.0294499122605885,0.015259021896667946,0.1373311970702389
1688152530105289,2.0294499122605885,-0.015259021896667946,0.1373311970702389
1688152530121292,1.9989318684672526,-0.07629510948345342,0.106813153276903
1688152530137295,2.0294499122605885,-0.045777065690117524,0.1373311970702389
1688152530153298,2.0294499122605885,0.045777065690117524,0.16784924086368846
1688152530169302,2.059967956054038,-0.015259021896667946,0.16784924086368846
1688152530185305,2.0294499122605885,-0.07629510948345342,0.16784924086368846
1688152530201308,2.0294499122605885,-0.045777065690117524,0.1373311970702389
