Timestamp (microseconds),Accel X (g),Accel Y (g),Accel Z (g)
1677618671440551,-0.0669565880827041,-0.003112840466926059,0.9964141298542764
1677618671456552,-0.06732280460822482,-0.0040894178683146265,0.9934843976501107
1677618671472552,-0.06683451590753053,-0.00457770656900891,0.9934843976501107
1677618671488552,-0.06720073243305125,-0.0025024795910582043,0.9937285420004578
1677618671504552,-0.06500343327992697,-0.003356984817273201,0.9960479133287556
1677618671520553,-0.06671244373235696,-0.003479056992446772,0.9942168307011521
1677618671536553,-0.06683451590753053,-0.002868696116578917,0.9938506141756314
1677618671552553,-0.06756694895857196,-0.00323491264209963,0.9949492637521935
1677618671568554,-0.06683451590753053,-0.004333562218661768,0.9958037689784085
1677618671584554,-0.06744487678339839,-0.0039673456931410556,0.9940947585259785
1677618671600554,-0.06659037155718339,-0.0042114900434881974,0.9931181811245899
1677618671616554,-0.06561379415579482,-0.003479056992446772,0.9944609750514992
1677618671632555,-0.06720073243305125,-0.0037232013427939137,0.9962920576791028
1677618671648555,-0.0678110933089191,-0.002990768291752488,0.9940947585259785
1677618671664555,-0.0669565880827041,-0.00457770656900891,0.9961699855039292
1677618671680555,-0.06659037155718339,-0.004455634393835339,0.9954375524528878
1677618671696556,-0.06610208285648911,-0.004333562218661768,0.9945830472266728
1677618671712556,-0.06646829938200982,-0.003356984817273201,0.9955596246280614
1677618671728556,-0.06622415503166268,-0.005188067444876765,0.9950713359273671
1677618671744557,-0.06744487678339839,-0.004943923094529623,0.9940947585259785
1677618671760589,-0.06756694895857196,-0.004333562218661768,0.9967803463797971
1677618671776589,-0.06707866025787768,-0.0042114900434881974,0.9944609750514992
1677618671792590,-0.06732280460822482,-0.0040894178683146265,0.9947051194018464
1677618671808590,-0.0678110933089191,-0.0040894178683146265,0.9942168307011521
1677618671824590,-0.06659037155718339,-0.0036011291676203427,0.9951934081025406
1677618671840591,-0.06732280460822482,-0.002746623941405346,0.9937285420004578
1677618671856591,-0.06842145418478696,-0.0025024795910582043,0.9955596246280614
1677618671872591,-0.06549172198062125,-0.002990768291752488,0.9973907072556649
1677618671888591,-0.06646829938200982,-0.0042114900434881974,0.9961699855039292
1677618671904592,-0.06659037155718339,-0.003479056992446772,0.9953154802777142
1677618671920592,-0.06744487678339839,-0.003356984817273201,0.9933623254749371
1677618671936592,-0.06683451590753053,-0.0040894178683146265,0.9953154802777142
1677618671952592,-0.06610208285648911,-0.003112840466926059,0.9956816968032349
1677618671968593,-0.06817730983443981,-0.0039673456931410556,0.9953154802777142
1677618671984593,-0.06683451590753053,-0.003479056992446772,0.9945830472266728
1677618672000593,-0.06659037155718339,-0.0039673456931410556,0.9970244907301442
1677618672016594,-0.06720073243305125,-0.0037232013427939137,0.9937285420004578
1677618672032594,-0.06732280460822482,-0.005065995269703194,0.9938506141756314
1677618672048594,-0.0678110933089191,-0.0036011291676203427,0.9934843976501107
1677618672064594,-0.06854352635996053,-0.0018921187151903496,0.9953154802777142
1677618672080597,-0.0669565880827041,-0.0023804074158846333,0.9964141298542764
1677618672096597,-0.06622415503166268,-0.004943923094529623,0.9976348516060121
1677618672112597,-0.06671244373235696,-0.004455634393835339,0.9939726863508049
1677618672128597,-0.06744487678339839,-0.0039673456931410556,0.9955596246280614
1677618672144598,-0.06659037155718339,-0.00457770656900891,0.9978789959563592
1677618672160598,-0.06768902113374553,-0.004699778744182481,0.9939726863508049
1677618672176598,-0.0669565880827041,-0.003356984817273201,0.9928740367742428
1677618672192598,-0.06793316548409267,-0.004821850919356052,0.9936064698252842
1677618672208599,-0.06646829938200982,-0.002990768291752488,0.9958037689784085
1677618672224599,-0.06683451590753053,-0.003356984817273201,0.9943389028763256
1677618672240599,-0.06683451590753053,-0.0042114900434881974,0.9934843976501107
1677618672256600,-0.06756694895857196,-0.002746623941405346,0.9953154802777142
1677618672272600,-0.06768902113374553,-0.004333562218661768,0.9959258411535821
1677618672288600,-0.06707866025787768,-0.003112840466926059,0.9948271915770199
1677618672304600,-0.06732280460822482,-0.002746623941405346,0.9937285420004578
1677618672320601,-0.06768902113374553,-0.0036011291676203427,0.9955596246280614
1677618672336601,-0.06732280460822482,-0.005065995269703194,0.9965362020294499
1677618672352601,-0.0678110933089191,-0.005310139620050336,0.9934843976501107
1677618672368601,-0.06707866025787768,-0.004333562218661768,0.9942168307011521
1677618672384602,-0.06805523765926624,-0.005676356145571049,0.9932402532997635
1677618672400634,-0.06634622720683625,-0.003356984817273201,0.9932402532997635
1677618672416635,-0.06793316548409267,-0.0022583352407110624,0.9944609750514992
1677618672432636,-0.06817730983443981,-0.0039673456931410556,0.9933623254749371
1677618672448637,-0.06878767071030767,-0.003479056992446772,0.9961699855039292
1677618672464637,-0.06890974288548124,-0.0038452735179674846,0.9965362020294499
1677618672480638,-0.0678110933089191,-0.0039673456931410556,0.9975127794308385
1677618672496639,-0.06817730983443981,-0.0037232013427939137,0.9948271915770199
1677618672512640,-0.06561379415579482,-0.002990768291752488,0.9943389028763256
1677618672528640,-0.06744487678339839,-0.003356984817273201,0.9951934081025406
1677618672544641,-0.06805523765926624,-0.002746623941405346,0.9948271915770199
1677618672560642,-0.06756694895857196,-0.00323491264209963,0.9942168307011521
1677618672576643,-0.06732280460822482,-0.003356984817273201,0.9956816968032349
1677618672592643,-0.06768902113374553,-0.004455634393835339,0.9950713359273671
1677618672608644,-0.06842145418478696,-0.0039673456931410556,0.9937285420004578
1677618672624645,-0.06890974288548124,-0.004455634393835339,0.9949492637521935
1677618672640646,-0.0686655985351341,-0.003356984817273201,0.9954375524528878
1677618672656646,-0.06890974288548124,-0.0040894178683146265,0.9955596246280614
1677618672672647,-0.0678110933089191,-0.003356984817273201,0.9936064698252842
1677618672688648,-0.06817730983443981,-0.00323491264209963,0.9942168307011521
1677618672704649,-0.06878767071030767,-0.003112840466926059,0.9942168307011521
1677618672720703,-0.06744487678339839,-0.0023804074158846333,0.9938506141756314
1677618672736703,-0.06720073243305125,-0.00323491264209963,0.9960479133287556
1677618672752704,-0.06903181506065481,-0.002868696116578917,0.9955596246280614
1677618672768705,-0.06768902113374553,-0.004821850919356052,0.9955596246280614
1677618672784706,-0.06829938200961339,-0.003479056992446772,0.9961699855039292
1677618672800706,-0.06671244373235696,-0.002990768291752488,0.9961699855039292
1677618672816707,-0.06585793850614197,-0.003112840466926059,0.9945830472266728
1677618672832708,-0.06683451590753053,-0.003112840466926059,0.9954375524528878
1677618672848709,-0.06793316548409267,-0.0039673456931410556,0.9961699855039292
1677618672864709,-0.06817730983443981,-0.004333562218661768,0.9950713359273671
1677618672880710,-0.0686655985351341,-0.002746623941405346,0.9972686350804914
1677618672896711,-0.0678110933089191,-0.0038452735179674846,0.9949492637521935
1677618672912712,-0.0686655985351341,-0.00323491264209963,0.9961699855039292
1677618672928712,-0.06829938200961339,-0.0025024795910582043,0.9977569237811856
1677618672944713,-0.06659037155718339,-0.0023804074158846333,0.9956816968032349
1677618672960714,-0.06744487678339839,-0.0025024795910582043,0.9939726863508049
1677618672976715,-0.06817730983443981,-0.002868696116578917,0.9942168307011521
1677618672992715,-0.06793316548409267,-0.003479056992446772,0.9937285420004578
1677618673008716,-0.06671244373235696,-0.004455634393835339,0.9927519645990692
1677618673024717,-0.06707866025787768,-0.004333562218661768,0.9940947585259785
1677618673040771,-0.06707866025787768,-0.003479056992446772,0.9964141298542764
1677618673056772,-0.06634622720683625,-0.002868696116578917,0.9949492637521935
1677618673072774,-0.0678110933089191,-0.0026245517662317752,0.9951934081025406
1677618673088775,-0.06756694895857196,-0.003356984817273201,0.9943389028763256
1677618673104776,-0.06707866025787768,-0.005065995269703194,0.9958037689784085
1677618673120777,-0.06793316548409267,-0.00323491264209963,0.9960479133287556
1677618673136778,-0.06683451590753053,-0.0020141908903639205,0.9972686350804914
1677618673152780,-0.06768902113374553,-0.002746623941405346,0.9950713359273671
1677618673168781,-0.06878767071030767,-0.0021362630655374915,0.9980010681315328
1677618673184782,-0.06634622720683625,-0.00323491264209963,0.9972686350804914
1677618673200783,-0.06732280460822482,-0.0025024795910582043,0.9961699855039292
1677618673216785,-0.06707866025787768,-0.0036011291676203427,0.9950713359273671
1677618673232786,-0.06744487678339839,-0.005310139620050336,0.9959258411535821
1677618673248787,-0.06720073243305125,-0.002990768291752488,0.9964141298542764
1677618673264788,-0.06732280460822482,-0.0042114900434881974,0.9940947585259785
1677618673280789,-0.06732280460822482,-0.0040894178683146265,0.9959258411535821
1677618673296791,-0.06646829938200982,-0.0038452735179674846,0.9962920576791028
1677618673312792,-0.06744487678339839,-0.0039673456931410556,0.9976348516060121
1677618673328793,-0.06756694895857196,-0.0039673456931410556,0.9953154802777142
1677618673344794,-0.0678110933089191,-0.0038452735179674846,0.9971465629053178
1677618673360809,-0.06744487678339839,-0.0039673456931410556,0.9954375524528878
1677618673376810,-0.06622415503166268,-0.0026245517662317752,0.9944609750514992
1677618673392811,-0.06671244373235696,-0.004333562218661768,0.9947051194018464
1677618673408813,-0.06671244373235696,-0.0037232013427939137,0.9943389028763256
1677618673424814,-0.06744487678339839,-0.003479056992446772,0.9945830472266728
1677618673440815,-0.06646829938200982,-0.002868696116578917,0.9932402532997635
1677618673456816,-0.0669565880827041,-0.0036011291676203427,0.9955596246280614
1677618673472818,-0.06768902113374553,-0.002990768291752488,0.9947051194018464
1677618673488819,-0.06720073243305125,-0.0021362630655374915,0.9951934081025406
1677618673504820,-0.0686655985351341,-0.003112840466926059,0.9960479133287556
1677618673520821,-0.06842145418478696,-0.0037232013427939137,0.9955596246280614
1677618673536822,-0.06707866025787768,-0.005188067444876765,0.9940947585259785
1677618673552824,-0.06732280460822482,-0.0039673456931410556,0.9973907072556649
1677618673568825,-0.06793316548409267,-0.002990768291752488,0.9966582742046235
1677618673584826,-0.06805523765926624,-0.00323491264209963,0.9938506141756314
1677618673600827,-0.06756694895857196,-0.003479056992446772,0.9940947585259785
1677618673616829,-0.06878767071030767,-0.003112840466926059,0.9959258411535821
1677618673632830,-0.06671244373235696,-0.003356984817273201,0.9972686350804914
1677618673648831,-0.06744487678339839,-0.0038452735179674846,0.9958037689784085
1677618673664832,-0.06671244373235696,-0.00457770656900891,0.9942168307011521
1677618673680847,-0.06646829938200982,-0.0038452735179674846,0.9960479133287556
1677618673696848,-0.06622415503166268,-0.0040894178683146265,0.9965362020294499
1677618673712849,-0.06659037155718339,-0.0038452735179674846,0.9969024185549706
1677618673728850,-0.0657358663309684,-0.0025024795910582043,0.9954375524528878
1677618673744852,-0.0669565880827041,-0.003356984817273201,0.9958037689784085
1677618673760853,-0.0669565880827041,-0.002990768291752488,0.9947051194018464
1677618673776854,-0.06671244373235696,-0.0023804074158846333,0.9942168307011521
1677618673792855,-0.06744487678339839,-0.0021362630655374915,0.9949492637521935
1677618673808857,-0.06756694895857196,-0.0039673456931410556,0.9947051194018464
1677618673824858,-0.06768902113374553,-0.00323491264209963,0.9982452124818799
1677618673840859,-0.06756694895857196,-0.003356984817273201,0.9978789959563592
1677618673856860,-0.0678110933089191,-0.0042114900434881974,0.9943389028763256
1677618673872861,-0.06659037155718339,-0.002868696116578917,0.9964141298542764
1677618673888863,-0.06646829938200982,-0.004699778744182481,0.9978789959563592
1677618673904864,-0.06683451590753053,-0.0039673456931410556,0.9934843976501107
1677618673920865,-0.06756694895857196,-0.002990768291752488,0.9961699855039292
1677618673936866,-0.06610208285648911,-0.0039673456931410556,0.9938506141756314
1677618673952868,-0.06768902113374553,-0.0038452735179674846,0.9958037689784085
1677618673968869,-0.0669565880827041,-0.004333562218661768,0.9942168307011521
1677618673984870,-0.06659037155718339,-0.0038452735179674846,0.9937285420004578
1677618674000915,-0.06817730983443981,-0.002746623941405346,0.9934843976501107
1677618674016916,-0.06744487678339839,-0.003479056992446772,0.9948271915770199
1677618674032918,-0.06720073243305125,-0.0040894178683146265,0.9944609750514992
1677618674048919,-0.06720073243305125,-0.0039673456931410556,0.9936064698252842
1677618674064920,-0.06732280460822482,-0.0036011291676203427,0.9928740367742428
1677618674080921,-0.06805523765926624,-0.005065995269703194,0.9942168307011521
1677618674096922,-0.06915388723582838,-0.0022583352407110624,0.9936064698252842
1677618674112924,-0.0678110933089191,-0.0026245517662317752,0.9953154802777142
1677618674128925,-0.06646829938200982,-0.0040894178683146265,0.9926298924238957
1677618674144926,-0.06622415503166268,-0.003479056992446772,0.9961699855039292
1677618674160927,-0.06732280460822482,-0.004333562218661768,0.9955596246280614
1677618674176929,-0.06659037155718339,-0.0038452735179674846,0.9956816968032349
1677618674192930,-0.0669565880827041,-0.002990768291752488,0.9955596246280614
1677618674208931,-0.06768902113374553,-0.002990768291752488,0.9961699855039292
1677618674224932,-0.06707866025787768,-0.00323491264209963,0.9955596246280614
1677618674240934,-0.06829938200961339,-0.0026245517662317752,0.9928740367742428
1677618674256935,-0.06707866025787768,-0.002746623941405346,0.9973907072556649
1677618674272936,-0.06720073243305125,-0.003479056992446772,0.9972686350804914
1677618674288937,-0.06744487678339839,-0.0017700465400167786,0.9967803463797971
1677618674304938,-0.06768902113374553,-0.002990768291752488,0.9966582742046235
1677618674320984,-0.06805523765926624,-0.003479056992446772,0.9948271915770199
1677618674336985,-0.0695201037613491,-0.0023804074158846333,0.9971465629053178
1677618674352987,-0.06598001068131554,-0.003112840466926059,0.9947051194018464
1677618674368989,-0.06585793850614197,-0.00323491264209963,0.9954375524528878
1677618674384990,-0.06720073243305125,-0.004455634393835339,0.9945830472266728
1677618674400992,-0.06744487678339839,-0.0038452735179674846,0.9953154802777142
1677618674416994,-0.06634622720683625,-0.00323491264209963,0.9965362020294499
1677618674432995,-0.06744487678339839,-0.0042114900434881974,0.9927519645990692
1677618674448997,-0.06659037155718339,-0.004699778744182481,0.9961699855039292
1677618674464999,-0.06720073243305125,-0.004333562218661768,0.9950713359273671
1677618674481001,-0.0669565880827041,-0.002868696116578917,0.9955596246280614
1677618674497002,-0.06622415503166268,-0.002746623941405346,0.9967803463797971
1677618674513004,-0.06720073243305125,-0.004821850919356052,0.9953154802777142
1677618674529006,-0.06732280460822482,-0.00323491264209963,0.9962920576791028
1677618674545007,-0.0669565880827041,-0.0036011291676203427,0.9972686350804914
1677618674561009,-0.06976424811169624,-0.004333562218661768,0.9949492637521935
1677618674577011,-0.06720073243305125,-0.0039673456931410556,0.9923857480735485
1677618674593012,-0.06756694895857196,-0.003479056992446772,0.9967803463797971
1677618674609014,-0.06744487678339839,-0.003112840466926059,0.9966582742046235
1677618674625016,-0.06854352635996053,-0.003356984817273201,0.9955596246280614
1677618674641021,-0.0678110933089191,-0.0039673456931410556,0.9944609750514992
1677618674657023,-0.06793316548409267,-0.002990768291752488,0.9955596246280614
1677618674673025,-0.06622415503166268,-0.002868696116578917,0.9943389028763256
1677618674689026,-0.06683451590753053,-0.0021362630655374915,0.9950713359273671
1677618674705028,-0.06671244373235696,-0.0037232013427939137,0.9950713359273671
1677618674721030,-0.06707866025787768,-0.003356984817273201,0.9951934081025406
1677618674737032,-0.06842145418478696,-0.0037232013427939137,0.9970244907301442
1677618674753033,-0.06805523765926624,-0.0036011291676203427,0.9945830472266728
1677618674769035,-0.06720073243305125,-0.0040894178683146265,0.9947051194018464
1677618674785037,-0.06732280460822482,-0.003479056992446772,0.9965362020294499
1677618674801038,-0.07037460898756409,-0.002990768291752488,0.9962920576791028
1677618674817040,-0.06842145418478696,-0.0036011291676203427,0.9939726863508049
1677618674833042,-0.06756694895857196,-0.0039673456931410556,0.9954375524528878
1677618674849043,-0.06732280460822482,-0.0040894178683146265,0.9951934081025406
1677618674865045,-0.06720073243305125,-0.0022583352407110624,0.9955596246280614
1677618674881047,-0.06707866025787768,-0.004455634393835339,0.9943389028763256
1677618674897049,-0.06805523765926624,-0.0037232013427939137,0.9955596246280614
1677618674913050,-0.06793316548409267,-0.002746623941405346,0.9940947585259785
1677618674929052,-0.06598001068131554,-0.002746623941405346,0.9950713359273671
1677618674945054,-0.06683451590753053,-0.0036011291676203427,0.9956816968032349
1677618674961090,-0.06683451590753053,-0.00323491264209963,0.9959258411535821
1677618674977091,-0.06732280460822482,-0.0026245517662317752,0.9940947585259785
1677618674993093,-0.06756694895857196,-0.00457770656900891,0.9949492637521935
1677618675009095,-0.06842145418478696,-0.005065995269703194,0.9932402532997635
1677618675025097,-0.06756694895857196,-0.0040894178683146265,0.9961699855039292
1677618675041098,-0.06793316548409267,-0.0038452735179674846,0.9956816968032349
1677618675057100,-0.06756694895857196,-0.004699778744182481,0.9955596246280614
1677618675073102,-0.06646829938200982,-0.002990768291752488,0.9954375524528878
1677618675089103,-0.06793316548409267,-0.002868696116578917,0.9949492637521935
1677618675105105,-0.06671244373235696,-0.0040894178683146265,0.9964141298542764
1677618675121107,-0.06756694895857196,-0.00457770656900891,0.9954375524528878
1677618675137108,-0.06829938200961339,-0.0037232013427939137,0.9971465629053178
1677618675153110,-0.06842145418478696,-0.002990768291752488,0.9951934081025406
1677618675169112,-0.06817730983443981,-0.003112840466926059,0.9945830472266728
1677618675185114,-0.06732280460822482,-0.00323491264209963,0.9944609750514992
1677618675201115,-0.06915388723582838,-0.004699778744182481,0.9934843976501107
1677618675217117,-0.06744487678339839,-0.004699778744182481,0.9960479133287556
1677618675233119,-0.06817730983443981,-0.004821850919356052,0.9956816968032349
1677618675249120,-0.06793316548409267,-0.004821850919356052,0.9959258411535821
1677618675265122,-0.06744487678339839,-0.0038452735179674846,0.9955596246280614
1677618675281158,-0.06683451590753053,-0.0039673456931410556,0.9936064698252842
1677618675297160,-0.06829938200961339,-0.0039673456931410556,0.9953154802777142
1677618675313161,-0.0686655985351341,-0.0038452735179674846,0.9967803463797971
1677618675329163,-0.06744487678339839,-0.004821850919356052,0.9962920576791028
1677618675345165,-0.06659037155718339,-0.0040894178683146265,0.9961699855039292
1677618675361167,-0.06829938200961339,-0.0025024795910582043,0.9972686350804914
1677618675377168,-0.0686655985351341,-0.003112840466926059,0.9951934081025406
1677618675393170,-0.06756694895857196,-0.0022583352407110624,0.9978789959563592
1677618675409172,-0.06842145418478696,-0.00457770656900891,0.9964141298542764
1677618675425173,-0.0678110933089191,-0.005554283970397478,0.9976348516060121
1677618675441175,-0.06744487678339839,-0.004821850919356052,0.9951934081025406
1677618675457177,-0.06659037155718339,-0.0037232013427939137,0.9955596246280614
1677618675473178,-0.06646829938200982,-0.0042114900434881974,0.9948271915770199
1677618675489180,-0.06756694895857196,-0.0025024795910582043,0.9977569237811856
1677618675505182,-0.06817730983443981,-0.0039673456931410556,0.9955596246280614
1677618675521184,-0.06805523765926624,-0.0039673456931410556,0.9951934081025406
1677618675537185,-0.0669565880827041,-0.004699778744182481,0.9970244907301442
1677618675553187,-0.06793316548409267,-0.003479056992446772,0.9958037689784085
1677618675569189,-0.06768902113374553,-0.0039673456931410556,0.9970244907301442
1677618675585190,-0.06732280460822482,-0.0040894178683146265,0.9948271915770199
1677618675601226,-0.06768902113374553,-0.0040894178683146265,0.9942168307011521
1677618675617229,-0.06903181506065481,-0.0039673456931410556,0.9951934081025406
1677618675633231,-0.0686655985351341,-0.0040894178683146265,0.9969024185549706
1677618675649233,-0.06646829938200982,-0.004699778744182481,0.9956816968032349
1677618675665235,-0.0678110933089191,-0.004821850919356052,0.9943389028763256
1677618675681237,-0.06817730983443981,-0.0040894178683146265,0.9942168307011521
1677618675697240,-0.06683451590753053,-0.0038452735179674846,0.9956816968032349
1677618675713242,-0.06732280460822482,-0.002868696116578917,0.9967803463797971
1677618675729244,-0.06756694895857196,-0.00457770656900891,0.9964141298542764
1677618675745246,-0.06707866025787768,-0.0039673456931410556,0.9977569237811856
1677618675761248,-0.06768902113374553,-0.004455634393835339,0.9967803463797971
1677618675777250,-0.06720073243305125,-0.0042114900434881974,0.9932402532997635
1677618675793253,-0.0669565880827041,-0.0038452735179674846,0.9965362020294499
1677618675809255,-0.06854352635996053,-0.003479056992446772,0.9965362020294499
1677618675825257,-0.06732280460822482,-0.003479056992446772,0.9954375524528878
1677618675841259,-0.06659037155718339,-0.00323491264209963,0.9943389028763256
1677618675857261,-0.06707866025787768,-0.0036011291676203427,0.9943389028763256
1677618675873263,-0.06744487678339839,-0.00579842832074462,0.9934843976501107
1677618675889266,-0.06842145418478696,-0.0037232013427939137,0.9947051194018464
1677618675905268,-0.06842145418478696,-0.00323491264209963,0.9962920576791028
1677618675921264,-0.06707866025787768,-0.002868696116578917,0.9943389028763256
1677618675937266,-0.06854352635996053,-0.004333562218661768,0.9953154802777142
1677618675953269,-0.06683451590753053,-0.004821850919356052,0.9972686350804914
1677618675969271,-0.06622415503166268,-0.004455634393835339,0.9959258411535821
1677618675985273,-0.06671244373235696,-0.0023804074158846333,0.9950713359273671
1677618676001275,-0.0686655985351341,-0.0025024795910582043,0.9938506141756314
1677618676017277,-0.06768902113374553,-0.00323491264209963,0.9950713359273671
1677618676033280,-0.06793316548409267,-0.0042114900434881974,0.9937285420004578
1677618676049282,-0.06927595941100195,-0.005310139620050336,0.9970244907301442
1677618676065284,-0.06659037155718339,-0.0040894178683146265,0.9951934081025406
1677618676081286,-0.0669565880827041,-0.005065995269703194,0.9950713359273671
1677618676097288,-0.06744487678339839,-0.0026245517662317752,0.9947051194018464
1677618676113290,-0.06744487678339839,-0.002746623941405346,0.9928740367742428
1677618676129293,-0.06805523765926624,-0.0036011291676203427,0.9961699855039292
1677618676145295,-0.0686655985351341,-0.0040894178683146265,0.9973907072556649
1677618676161297,-0.06622415503166268,-0.004455634393835339,0.9937285420004578
1677618676177299,-0.06732280460822482,-0.00323491264209963,0.9931181811245899
1677618676193301,-0.06829938200961339,-0.003479056992446772,0.9960479133287556
1677618676209303,-0.06768902113374553,-0.0037232013427939137,0.9951934081025406
1677618676225306,-0.06927595941100195,-0.0037232013427939137,0.9956816968032349
1677618676241333,-0.06793316548409267,-0.0037232013427939137,0.9951934081025406
1677618676257335,-0.06854352635996053,-0.00323491264209963,0.9949492637521935
1677618676273337,-0.06744487678339839,-0.002990768291752488,0.9951934081025406
1677618676289339,-0.06659037155718339,-0.0036011291676203427,0.9959258411535821
1677618676305341,-0.06610208285648911,-0.0042114900434881974,0.9960479133287556
1677618676321344,-0.0686655985351341,-0.004821850919356052,0.9955596246280614
1677618676337346,-0.06768902113374553,-0.003479056992446772,0.9970244907301442
1677618676353348,-0.06793316548409267,-0.00457770656900891,0.9966582742046235
1677618676369350,-0.06854352635996053,-0.005065995269703194,0.9950713359273671
1677618676385352,-0.06744487678339839,-0.004943923094529623,0.9944609750514992
1677618676401354,-0.06805523765926624,-0.004333562218661768,0.9969024185549706
1677618676417357,-0.06817730983443981,-0.005310139620050336,0.9984893568322271
1677618676433359,-0.06878767071030767,-0.003356984817273201,0.9947051194018464
1677618676449361,-0.06890974288548124,-0.00323491264209963,0.9937285420004578
1677618676465363,-0.06646829938200982,-0.0038452735179674846,0.9962920576791028
1677618676481365,-0.06720073243305125,-0.0039673456931410556,0.9953154802777142
1677618676497367,-0.06683451590753053,-0.002990768291752488,0.9955596246280614
1677618676513370,-0.06707866025787768,-0.002990768291752488,0.9944609750514992
1677618676529372,-0.06744487678339839,-0.0040894178683146265,0.9954375524528878
1677618676545374,-0.06707866025787768,-0.004943923094529623,0.9966582742046235
1677618676561401,-0.06744487678339839,-0.0040894178683146265,0.9956816968032349
1677618676577403,-0.06854352635996053,-0.002868696116578917,0.9960479133287556
1677618676593405,-0.06707866025787768,-0.0036011291676203427,0.9970244907301442
1677618676609408,-0.06732280460822482,-0.0038452735179674846,0.9967803463797971
1677618676625410,-0.06793316548409267,-0.0037232013427939137,0.9936064698252842
1677618676641412,-0.06744487678339839,-0.0042114900434881974,0.9944609750514992
1677618676657414,-0.06903181506065481,-0.003356984817273201,0.9945830472266728
1677618676673416,-0.06707866025787768,-0.0037232013427939137,0.9970244907301442
1677618676689418,-0.06756694895857196,-0.004333562218661768,0.9956816968032349
1677618676705421,-0.06805523765926624,-0.0042114900434881974,0.9951934081025406
1677618676721423,-0.06768902113374553,-0.004821850919356052,0.9958037689784085
1677618676737425,-0.06683451590753053,-0.0037232013427939137,0.9958037689784085
1677618676753427,-0.0678110933089191,-0.0025024795910582043,0.9937285420004578
1677618676769429,-0.0657358663309684,-0.002990768291752488,0.9929961089494164
1677618676785431,-0.0678110933089191,-0.00457770656900891,0.9964141298542764
1677618676801434,-0.06707866025787768,-0.002868696116578917,0.9944609750514992
1677618676817436,-0.06829938200961339,-0.0023804074158846333,0.9944609750514992
1677618676833438,-0.06805523765926624,-0.005432211795223907,0.9954375524528878
1677618676849440,-0.06756694895857196,-0.00457770656900891,0.9971465629053178
1677618676865442,-0.06817730983443981,-0.004455634393835339,0.9969024185549706
1677618676881469,-0.06842145418478696,-0.002990768291752488,0.9940947585259785
1677618676897472,-0.06768902113374553,-0.0026245517662317752,0.9934843976501107
1677618676913474,-0.06817730983443981,-0.003479056992446772,0.9947051194018464
1677618676929476,-0.06817730983443981,-0.002746623941405346,0.9956816968032349
1677618676945478,-0.0678110933089191,-0.0042114900434881974,0.9966582742046235
1677618676961480,-0.06683451590753053,-0.004943923094529623,0.9940947585259785
1677618676977482,-0.06622415503166268,-0.003356984817273201,0.9955596246280614
1677618676993485,-0.06720073243305125,-0.0042114900434881974,0.9966582742046235
1677618677009487,-0.06683451590753053,-0.002990768291752488,0.9943389028763256
1677618677025489,-0.06744487678339839,-0.004333562218661768,0.9951934081025406
1677618677041491,-0.06707866025787768,-0.004333562218661768,0.9953154802777142
1677618677057493,-0.06793316548409267,-0.00323491264209963,0.9961699855039292
1677618677073495,-0.06744487678339839,-0.0040894178683146265,0.9960479133287556
1677618677089498,-0.06622415503166268,-0.005188067444876765,0.9964141298542764
1677618677105500,-0.0669565880827041,-0.0039673456931410556,0.9967803463797971
1677618677121502,-0.06805523765926624,-0.003479056992446772,0.9951934081025406
1677618677137504,-0.06793316548409267,-0.0025024795910582043,0.9973907072556649
1677618677153506,-0.06622415503166268,-0.00323491264209963,0.9932402532997635
1677618677169509,-0.06720073243305125,-0.0037232013427939137,0.9944609750514992
1677618677185511,-0.06732280460822482,-0.0040894178683146265,0.9942168307011521
1677618677201507,-0.06707866025787768,-0.004333562218661768,0.9948271915770199
1677618677217509,-0.06890974288548124,-0.004333562218661768,0.9934843976501107
1677618677233512,-0.06720073243305125,-0.005554283970397478,0.9950713359273671
1677618677249514,-0.06829938200961339,-0.003112840466926059,0.9940947585259785
1677618677265516,-0.06768902113374553,-0.0039673456931410556,0.9932402532997635
1677618677281518,-0.06744487678339839,-0.004455634393835339,0.9934843976501107
1677618677297520,-0.06756694895857196,-0.003356984817273201,0.9948271915770199
1677618677313522,-0.06683451590753053,-0.0038452735179674846,0.9965362020294499
1677618677329525,-0.06854352635996053,-0.003356984817273201,0.9978789959563592
1677618677345527,-0.06732280460822482,-0.0037232013427939137,0.9954375524528878
1677618677361529,-0.06744487678339839,-0.0037232013427939137,0.9960479133287556
1677618677377531,-0.06768902113374553,-0.0037232013427939137,0.9937285420004578
1677618677393533,-0.06536964980544768,-0.0038452735179674846,0.9958037689784085
1677618677409536,-0.06829938200961339,-0.0036011291676203427,0.9971465629053178
1677618677425538,-0.06659037155718339,-0.00457770656900891,0.9948271915770199
1677618677441540,-0.06659037155718339,-0.005188067444876765,0.9942168307011521
1677618677457542,-0.06536964980544768,-0.004455634393835339,0.9945830472266728
1677618677473544,-0.06744487678339839,-0.002868696116578917,0.9939726863508049
1677618677489546,-0.06756694895857196,-0.003356984817273201,0.9964141298542764
1677618677505549,-0.06903181506065481,-0.002990768291752488,0.9964141298542764
1677618677521576,-0.06829938200961339,-0.0038452735179674846,0.9948271915770199
1677618677537578,-0.06634622720683625,-0.00323491264209963,0.9944609750514992
1677618677553580,-0.06744487678339839,-0.004943923094529623,0.9984893568322271
1677618677569582,-0.06561379415579482,-0.0038452735179674846,0.9951934081025406
1677618677585584,-0.06585793850614197,-0.0039673456931410556,0.9954375524528878
1677618677601586,-0.06878767071030767,-0.003112840466926059,0.9939726863508049
1677618677617589,-0.0686655985351341,-0.0036011291676203427,0.9953154802777142
1677618677633591,-0.0669565880827041,-0.00457770656900891,0.9967803463797971
1677618677649593,-0.06805523765926624,-0.002990768291752488,0.9950713359273671
1677618677665595,-0.06768902113374553,-0.0038452735179674846,0.9949492637521935
1677618677681597,-0.06659037155718339,-0.0036011291676203427,0.9972686350804914
1677618677697600,-0.06720073243305125,-0.003356984817273201,0.9965362020294499
1677618677713602,-0.06805523765926624,-0.002746623941405346,0.9983672846570535
1677618677729604,-0.06707866025787768,-0.0037232013427939137,0.9960479133287556
1677618677745606,-0.06793316548409267,-0.002868696116578917,0.9966582742046235
1677618677761608,-0.06744487678339839,-0.00457770656900891,0.9956816968032349
1677618677777610,-0.06720073243305125,-0.0038452735179674846,0.9954375524528878
1677618677793613,-0.0678110933089191,-0.0038452735179674846,0.9928740367742428
1677618677809615,-0.06646829938200982,-0.004943923094529623,0.9956816968032349
1677618677825617,-0.06732280460822482,-0.003356984817273201,0.9936064698252842
1677618677841644,-0.06768902113374553,-0.004455634393835339,0.9944609750514992
1677618677857647,-0.06659037155718339,-0.0023804074158846333,0.9953154802777142
1677618677873649,-0.06720073243305125,-0.0037232013427939137,0.9950713359273671
1677618677889652,-0.06732280460822482,-0.003112840466926059,0.9976348516060121
1677618677905655,-0.06854352635996053,-0.003356984817273201,0.9954375524528878
1677618677921657,-0.06732280460822482,-0.002746623941405346,0.9967803463797971
1677618677937660,-0.06720073243305125,-0.0040894178683146265,0.9953154802777142
1677618677953662,-0.06768902113374553,-0.004455634393835339,0.9934843976501107
1677618677969665,-0.06817730983443981,-0.0037232013427939137,0.9964141298542764
1677618677985668,-0.06768902113374553,-0.0039673456931410556,0.9947051194018464
1677618678001670,-0.06720073243305125,-0.004455634393835339,0.9951934081025406
1677618678017673,-0.06829938200961339,-0.004333562218661768,0.9955596246280614
1677618678033676,-0.06720073243305125,-0.0040894178683146265,0.9971465629053178
1677618678049678,-0.06756694895857196,-0.0037232013427939137,0.9955596246280614
1677618678065681,-0.06756694895857196,-0.0037232013427939137,0.9953154802777142
1677618678081684,-0.06744487678339839,-0.003112840466926059,0.9951934081025406
1677618678097686,-0.06707866025787768,-0.002746623941405346,0.9956816968032349
1677618678113689,-0.06646829938200982,-0.003479056992446772,0.9915312428473335
1677618678129692,-0.06720073243305125,-0.0026245517662317752,0.9943389028763256
1677618678145694,-0.06646829938200982,-0.0038452735179674846,0.9969024185549706
1677618678161712,-0.0678110933089191,-0.0039673456931410556,0.9959258411535821
1677618678177715,-0.06854352635996053,-0.0042114900434881974,0.9939726863508049
1677618678193718,-0.06707866025787768,-0.003112840466926059,0.9950713359273671
1677618678209720,-0.06707866025787768,-0.00323491264209963,0.9939726863508049
1677618678225723,-0.06646829938200982,-0.004699778744182481,0.9942168307011521
1677618678241726,-0.06732280460822482,-0.004943923094529623,0.9953154802777142
1677618678257728,-0.06646829938200982,-0.005554283970397478,0.9950713359273671
1677618678273731,-0.06744487678339839,-0.004821850919356052,0.9951934081025406
1677618678289734,-0.06805523765926624,-0.0039673456931410556,0.9976348516060121
1677618678305736,-0.06659037155718339,-0.0037232013427939137,0.9949492637521935
1677618678321739,-0.06793316548409267,-0.0025024795910582043,0.9962920576791028
1677618678337741,-0.06878767071030767,-0.002990768291752488,0.9993438620584421
1677618678353744,-0.06768902113374553,-0.0022583352407110624,0.9981231403067063
1677618678369747,-0.06646829938200982,-0.004821850919356052,0.9947051194018464
1677618678385749,-0.0669565880827041,-0.0040894178683146265,0.9961699855039292
1677618678401752,-0.06829938200961339,-0.004333562218661768,0.9951934081025406
1677618678417755,-0.06634622720683625,-0.0038452735179674846,0.9956816968032349
1677618678433757,-0.06842145418478696,-0.0042114900434881974,0.9955596246280614
1677618678449760,-0.0678110933089191,-0.005432211795223907,0.9964141298542764
1677618678465763,-0.06768902113374553,-0.005676356145571049,0.9961699855039292
1677618678481750,-0.0686655985351341,-0.004943923094529623,0.9970244907301442
1677618678497753,-0.06744487678339839,-0.004455634393835339,0.9964141298542764
1677618678513755,-0.06732280460822482,-0.00323491264209963,0.9944609750514992
1677618678529758,-0.06756694895857196,-0.004699778744182481,0.9961699855039292
1677618678545761,-0.06646829938200982,-0.0037232013427939137,0.9959258411535821
1677618678561763,-0.0669565880827041,-0.005554283970397478,0.9923857480735485
1677618678577766,-0.06707866025787768,-0.005432211795223907,0.9940947585259785
1677618678593769,-0.06707866025787768,-0.004455634393835339,0.9966582742046235
1677618678609771,-0.06683451590753053,-0.003112840466926059,0.9969024185549706
1677618678625774,-0.06610208285648911,-0.003479056992446772,0.9953154802777142
1677618678641777,-0.06683451590753053,-0.0039673456931410556,0.9928740367742428
1677618678657779,-0.06732280460822482,-0.0037232013427939137,0.9939726863508049
1677618678673782,-0.06732280460822482,-0.003112840466926059,0.9978789959563592
1677618678689785,-0.06756694895857196,-0.0038452735179674846,0.9969024185549706
1677618678705787,-0.0669565880827041,-0.004333562218661768,0.9951934081025406
1677618678721790,-0.06878767071030767,-0.0036011291676203427,0.9949492637521935
1677618678737793,-0.06744487678339839,-0.004699778744182481,0.9940947585259785
1677618678753795,-0.06622415503166268,-0.0038452735179674846,0.9964141298542764
1677618678769798,-0.06707866025787768,-0.004333562218661768,0.9942168307011521
1677618678785801,-0.06842145418478696,-0.00323491264209963,0.9975127794308385
1677618678801818,-0.06707866025787768,-0.004821850919356052,0.9948271915770199
1677618678817821,-0.0669565880827041,-0.004821850919356052,0.9943389028763256
1677618678833824,-0.06720073243305125,-0.004455634393835339,0.9929961089494164
1677618678849826,-0.06805523765926624,-0.002868696116578917,0.9977569237811856
1677618678865829,-0.06793316548409267,-0.004455634393835339,0.9971465629053178
1677618678881832,-0.0657358663309684,-0.0039673456931410556,0.9945830472266728
1677618678897834,-0.06744487678339839,-0.00323491264209963,0.9956816968032349
1677618678913837,-0.06744487678339839,-0.00457770656900891,0.9939726863508049
1677618678929840,-0.06732280460822482,-0.004699778744182481,0.9954375524528878
1677618678945842,-0.06683451590753053,-0.0036011291676203427,0.9942168307011521
1677618678961845,-0.06842145418478696,-0.0038452735179674846,0.9954375524528878
1677618678977848,-0.0678110933089191,-0.003112840466926059,0.9953154802777142
1677618678993850,-0.06829938200961339,-0.0038452735179674846,0.9948271915770199
1677618679009853,-0.0669565880827041,-0.0040894178683146265,0.9955596246280614
1677618679025856,-0.06646829938200982,-0.004821850919356052,0.9939726863508049
1677618679041858,-0.06720073243305125,-0.00457770656900891,0.9939726863508049
1677618679057861,-0.06768902113374553,-0.004943923094529623,0.9949492637521935
1677618679073864,-0.06768902113374553,-0.0040894178683146265,0.9944609750514992
1677618679089866,-0.06768902113374553,-0.003356984817273201,0.9945830472266728
1677618679105869,-0.06793316548409267,-0.00323491264209963,0.9940947585259785
1677618679121887,-0.06829938200961339,-0.002746623941405346,1.0004425116350042
1677618679137889,-0.06744487678339839,-0.003479056992446772,0.9971465629053178
1677618679153892,-0.06622415503166268,-0.004699778744182481,0.9945830472266728
1677618679169895,-0.06756694895857196,-0.0042114900434881974,0.9962920576791028
1677618679185897,-0.06768902113374553,-0.0036011291676203427,0.9940947585259785
1677618679201900,-0.06744487678339839,-0.0021362630655374915,0.9944609750514992
1677618679217903,-0.06707866025787768,-0.003112840466926059,0.9969024185549706
1677618679233905,-0.06732280460822482,-0.003356984817273201,0.9940947585259785
1677618679249908,-0.06768902113374553,-0.0036011291676203427,0.9931181811245899
1677618679265911,-0.06878767071030767,-0.004943923094529623,0.9940947585259785
1677618679281913,-0.06756694895857196,-0.0037232013427939137,0.9967803463797971
1677618679297916,-0.06671244373235696,-0.0038452735179674846,0.9956816968032349
1677618679313919,-0.06720073243305125,-0.00457770656900891,0.9949492637521935
1677618679329921,-0.06793316548409267,-0.0036011291676203427,0.9950713359273671
1677618679345924,-0.06756694895857196,-0.0021362630655374915,0.9959258411535821
1677618679361927,-0.06659037155718339,-0.0036011291676203427,0.9967803463797971
1677618679377929,-0.0678110933089191,-0.0038452735179674846,0.9972686350804914
1677618679393932,-0.06659037155718339,-0.0038452735179674846,0.9966582742046235
1677618679409935,-0.06842145418478696,-0.002868696116578917,0.9943389028763256
1677618679425937,-0.06805523765926624,-0.00323491264209963,0.9966582742046235
1677618679441925,-0.06707866025787768,-0.0036011291676203427,0.9943389028763256
1677618679457927,-0.06634622720683625,-0.004333562218661768,0.9958037689784085
1677618679473930,-0.06720073243305125,-0.003356984817273201,0.9959258411535821
1677618679489933,-0.06634622720683625,-0.002990768291752488,0.9955596246280614
1677618679505935,-0.06829938200961339,-0.00457770656900891,0.9962920576791028
1677618679521938,-0.06829938200961339,-0.003112840466926059,0.9951934081025406
1677618679537941,-0.06683451590753053,-0.004455634393835339,0.9956816968032349
1677618679553943,-0.06720073243305125,-0.0022583352407110624,0.9943389028763256
1677618679569946,-0.06793316548409267,-0.003479056992446772,0.9975127794308385
1677618679585949,-0.06793316548409267,-0.002990768291752488,0.9973907072556649
1677618679601951,-0.06854352635996053,-0.0040894178683146265,0.9943389028763256
1677618679617954,-0.06646829938200982,-0.0023804074158846333,0.9949492637521935
1677618679633957,-0.06829938200961339,-0.0037232013427939137,0.9956816968032349
1677618679649959,-0.06915388723582838,-0.003479056992446772,0.9955596246280614
1677618679665962,-0.06793316548409267,-0.002868696116578917,0.9964141298542764
1677618679681964,-0.06890974288548124,-0.0039673456931410556,0.9947051194018464
1677618679697967,-0.06707866025787768,-0.003356984817273201,0.9945830472266728
1677618679713970,-0.06829938200961339,-0.0036011291676203427,0.9961699855039292
1677618679729972,-0.06842145418478696,-0.00323491264209963,0.9947051194018464
1677618679745975,-0.06598001068131554,-0.002990768291752488,0.9931181811245899
1677618679761993,-0.06720073243305125,-0.003479056992446772,0.9978789959563592
1677618679777996,-0.0669565880827041,-0.006530861371786045,0.9970244907301442
1677618679793998,-0.06732280460822482,-0.003356984817273201,0.9940947585259785
1677618679810001,-0.06646829938200982,-0.002990768291752488,0.9949492637521935
1677618679826004,-0.06744487678339839,-0.0023804074158846333,0.9955596246280614
1677618679842006,-0.0678110933089191,-0.0025024795910582043,0.9958037689784085
1677618679858009,-0.0678110933089191,-0.002868696116578917,0.9938506141756314
1677618679874012,-0.06744487678339839,-0.005676356145571049,0.9950713359273671
1677618679890014,-0.06805523765926624,-0.00323491264209963,0.9971465629053178
1677618679906017,-0.06854352635996053,-0.004699778744182481,0.9961699855039292
1677618679922020,-0.06646829938200982,-0.003356984817273201,0.9949492637521935
1677618679938022,-0.06622415503166268,-0.003356984817273201,0.9947051194018464
1677618679954025,-0.06683451590753053,-0.003356984817273201,0.9966582742046235
1677618679970028,-0.06756694895857196,-0.0040894178683146265,0.9969024185549706
1677618679986030,-0.06927595941100195,-0.004943923094529623,0.9965362020294499
1677618680002033,-0.06805523765926624,-0.0040894178683146265,0.9951934081025406
1677618680018036,-0.06756694895857196,-0.003356984817273201,0.9964141298542764
1677618680034038,-0.06756694895857196,-0.003479056992446772,0.9969024185549706
1677618680050041,-0.06842145418478696,-0.00323491264209963,0.9950713359273671
1677618680066043,-0.06805523765926624,-0.0023804074158846333,0.9948271915770199
1677618680082031,-0.06793316548409267,-0.00323491264209963,0.9955596246280614
1677618680098034,-0.06707866025787768,-0.0022583352407110624,0.9965362020294499
1677618680114036,-0.06707866025787768,-0.0039673456931410556,0.9967803463797971
1677618680130039,-0.06707866025787768,-0.0036011291676203427,0.9958037689784085
1677618680146041,-0.06829938200961339,-0.0025024795910582043,0.9954375524528878
1677618680162044,-0.06671244373235696,-0.002990768291752488,0.9939726863508049
1677618680178047,-0.06817730983443981,-0.0025024795910582043,0.9932402532997635
1677618680194049,-0.06829938200961339,-0.004333562218661768,0.9953154802777142
1677618680210052,-0.06720073243305125,-0.005065995269703194,0.9958037689784085
1677618680226055,-0.06890974288548124,-0.003479056992446772,0.9981231403067063
1677618680242057,-0.06720073243305125,-0.004455634393835339,0.9964141298542764
1677618680258060,-0.06732280460822482,-0.0039673456931410556,0.9970244907301442
1677618680274063,-0.06720073243305125,-0.00457770656900891,0.9926298924238957
1677618680290065,-0.06720073243305125,-0.003112840466926059,0.9945830472266728
1677618680306068,-0.06634622720683625,-0.004333562218661768,0.9981231403067063
1677618680322071,-0.06744487678339839,-0.0040894178683146265,0.9933623254749371
1677618680338073,-0.06707866025787768,-0.003112840466926059,0.9951934081025406
1677618680354076,-0.0678110933089191,-0.0036011291676203427,0.9945830472266728
1677618680370079,-0.06720073243305125,-0.004455634393835339,0.9955596246280614
1677618680386081,-0.0669565880827041,-0.005554283970397478,0.9958037689784085
1677618680402099,-0.0669565880827041,-0.0040894178683146265,0.9955596246280614
1677618680418102,-0.06744487678339839,-0.00323491264209963,0.9950713359273671
1677618680434105,-0.06829938200961339,-0.003479056992446772,0.9939726863508049
1677618680450107,-0.06646829938200982,-0.0040894178683146265,0.9966582742046235
1677618680466110,-0.06683451590753053,-0.0036011291676203427,0.9949492637521935
1677618680482113,-0.06683451590753053,-0.004333562218661768,0.9961699855039292
1677618680498115,-0.06829938200961339,-0.0025024795910582043,0.9954375524528878
1677618680514118,-0.06683451590753053,-0.0039673456931410556,0.9955596246280614
1677618680530120,-0.06610208285648911,-0.00323491264209963,0.9970244907301442
1677618680546123,-0.06756694895857196,-0.004333562218661768,0.9962920576791028
1677618680562126,-0.06768902113374553,-0.003479056992446772,0.9967803463797971
1677618680578128,-0.06976424811169624,-0.003479056992446772,0.9965362020294499
1677618680594131,-0.0678110933089191,-0.0037232013427939137,0.9949492637521935
1677618680610134,-0.06720073243305125,-0.0025024795910582043,0.9962920576791028
1677618680626136,-0.06768902113374553,-0.00457770656900891,0.9945830472266728
1677618680642139,-0.06671244373235696,-0.004333562218661768,0.9958037689784085
1677618680658142,-0.0678110933089191,-0.0039673456931410556,0.9948271915770199
1677618680674144,-0.06732280460822482,-0.004821850919356052,0.9953154802777142
1677618680690147,-0.0678110933089191,-0.004333562218661768,0.9960479133287556
1677618680706150,-0.06671244373235696,-0.0038452735179674846,0.9943389028763256
1677618680722168,-0.06671244373235696,-0.002868696116578917,0.9954375524528878
1677618680738170,-0.06732280460822482,-0.0037232013427939137,0.9960479133287556
1677618680754173,-0.06805523765926624,-0.003112840466926059,0.9969024185549706
1677618680770176,-0.06720073243305125,-0.004821850919356052,0.9934843976501107
1677618680786178,-0.06634622720683625,-0.0039673456931410556,0.9962920576791028
1677618680802181,-0.06756694895857196,-0.002746623941405346,0.9943389028763256
1677618680818184,-0.06622415503166268,-0.0036011291676203427,0.9959258411535821
1677618680834186,-0.06720073243305125,-0.003479056992446772,0.9956816968032349
1677618680850189,-0.06610208285648911,-0.0042114900434881974,0.9945830472266728
1677618680866191,-0.06878767071030767,-0.003356984817273201,0.9940947585259785
1677618680882194,-0.06634622720683625,-0.004333562218661768,0.9961699855039292
1677618680898197,-0.06805523765926624,-0.0042114900434881974,0.9950713359273671
1677618680914199,-0.06756694895857196,-0.0026245517662317752,0.9948271915770199
1677618680930202,-0.06720073243305125,-0.0038452735179674846,0.9953154802777142
1677618680946205,-0.06744487678339839,-0.0038452735179674846,0.9961699855039292
1677618680962207,-0.06646829938200982,-0.00323491264209963,0.9980010681315328
1677618680978210,-0.0678110933089191,-0.0038452735179674846,0.9950713359273671
1677618680994213,-0.06768902113374553,-0.004455634393835339,0.9951934081025406
1677618681010215,-0.06744487678339839,-0.003479056992446772,0.9953154802777142
1677618681026218,-0.06463721675440626,-0.0036011291676203427,0.9950713359273671
1677618681042205,-0.06683451590753053,-0.0036011291676203427,0.9955596246280614
1677618681058208,-0.06817730983443981,-0.004455634393835339,0.9940947585259785
1677618681074211,-0.06842145418478696,-0.0039673456931410556,0.9953154802777142
1677618681090213,-0.06756694895857196,-0.003112840466926059,0.9958037689784085
1677618681106216,-0.0678110933089191,-0.0039673456931410556,0.9945830472266728
1677618681122219,-0.0686655985351341,-0.003356984817273201,0.9925078202487221
1677618681138221,-0.0686655985351341,-0.002990768291752488,0.9927519645990692
1677618681154224,-0.06805523765926624,-0.003356984817273201,0.9933623254749371
1677618681170227,-0.06732280460822482,-0.00323491264209963,0.9936064698252842
1677618681186229,-0.06707866025787768,-0.0036011291676203427,0.9951934081025406
1677618681202232,-0.06805523765926624,-0.002868696116578917,0.9971465629053178
1677618681218235,-0.06659037155718339,-0.0015259021896696368,0.9964141298542764
1677618681234237,-0.06732280460822482,-0.003479056992446772,0.9932402532997635
1677618681250240,-0.0657358663309684,-0.00323491264209963,0.9956816968032349
1677618681266243,-0.06585793850614197,-0.002868696116578917,0.9939726863508049
1677618681282245,-0.06646829938200982,-0.0020141908903639205,0.9933623254749371
1677618681298248,-0.06829938200961339,-0.003356984817273201,0.9949492637521935
1677618681314251,-0.06878767071030767,-0.003112840466926059,0.9972686350804914
1677618681330253,-0.0669565880827041,-0.00323491264209963,0.9954375524528878
1677618681346256,-0.06683451590753053,-0.00323491264209963,0.9954375524528878
1677618681362274,-0.06671244373235696,-0.0023804074158846333,0.9945830472266728
1677618681378276,-0.0678110933089191,-0.0039673456931410556,0.9969024185549706
1677618681394279,-0.06732280460822482,-0.004821850919356052,0.9972686350804914
1677618681410282,-0.06829938200961339,-0.0038452735179674846,0.9965362020294499
1677618681426284,-0.06720073243305125,-0.002868696116578917,0.9951934081025406
1677618681442287,-0.06561379415579482,-0.0036011291676203427,0.9976348516060121
1677618681458290,-0.06561379415579482,-0.002990768291752488,0.9964141298542764
1677618681474292,-0.06707866025787768,-0.0037232013427939137,0.9969024185549706
1677618681490295,-0.06720073243305125,-0.004333562218661768,0.9950713359273671
1677618681506298,-0.06744487678339839,-0.0040894178683146265,0.9964141298542764
1677618681522300,-0.06634622720683625,-0.0025024795910582043,0.9956816968032349
1677618681538303,-0.0669565880827041,-0.0039673456931410556,0.9934843976501107
1677618681554306,-0.0678110933089191,-0.003112840466926059,0.9947051194018464
1677618681570308,-0.06890974288548124,-0.002990768291752488,0.9972686350804914
1677618681586311,-0.0678110933089191,-0.003112840466926059,0.9950713359273671
1677618681602314,-0.0678110933089191,-0.0023804074158846333,0.9945830472266728
1677618681618316,-0.06707866025787768,-0.0042114900434881974,0.9953154802777142
1677618681634319,-0.06829938200961339,-0.004821850919356052,0.9950713359273671
1677618681650322,-0.06805523765926624,-0.003356984817273201,0.9948271915770199
1677618681666324,-0.0678110933089191,-0.00323491264209963,0.9937285420004578
1677618681682342,-0.06659037155718339,-0.002990768291752488,0.9945830472266728
1677618681698345,-0.06756694895857196,-0.0038452735179674846,0.9954375524528878
1677618681714347,-0.06671244373235696,-0.0025024795910582043,0.9953154802777142
1677618681730350,-0.06671244373235696,-0.003479056992446772,0.9947051194018464
1677618681746353,-0.06817730983443981,-0.0037232013427939137,0.9944609750514992
1677618681762355,-0.06671244373235696,-0.00323491264209963,0.9943389028763256
1677618681778358,-0.06829938200961339,-0.004455634393835339,0.9945830472266728
1677618681794361,-0.06756694895857196,-0.002868696116578917,0.9961699855039292
1677618681810363,-0.06793316548409267,-0.004455634393835339,0.9975127794308385
1677618681826366,-0.06707866025787768,-0.002746623941405346,0.9982452124818799
1677618681842369,-0.06707866025787768,-0.002990768291752488,0.9973907072556649
1677618681858371,-0.06915388723582838,-0.0040894178683146265,0.9956816968032349
1677618681874374,-0.06817730983443981,-0.0036011291676203427,0.9939726863508049
1677618681890377,-0.0678110933089191,-0.003112840466926059,0.9967803463797971
1677618681906379,-0.0695201037613491,-0.002868696116578917,0.9954375524528878
1677618681922382,-0.06817730983443981,-0.0026245517662317752,0.9961699855039292
1677618681938385,-0.06598001068131554,-0.003356984817273201,0.9955596246280614
1677618681954387,-0.06659037155718339,-0.004455634393835339,0.9954375524528878
1677618681970390,-0.06646829938200982,-0.005554283970397478,0.9936064698252842
1677618681986393,-0.06659037155718339,-0.004455634393835339,0.9942168307011521
1677618682002411,-0.06793316548409267,-0.004821850919356052,0.9944609750514992
1677618682018413,-0.0678110933089191,-0.0036011291676203427,0.9965362020294499
1677618682034416,-0.06744487678339839,-0.004943923094529623,0.9960479133287556
1677618682050418,-0.0669565880827041,-0.0040894178683146265,0.9949492637521935
1677618682066421,-0.06671244373235696,-0.0037232013427939137,0.9943389028763256
1677618682082424,-0.06744487678339839,-0.0036011291676203427,0.9949492637521935
1677618682098426,-0.06744487678339839,-0.003356984817273201,0.9948271915770199
1677618682114429,-0.06756694895857196,-0.003356984817273201,0.9961699855039292
1677618682130432,-0.06842145418478696,-0.004821850919356052,0.9954375524528878
1677618682146434,-0.0669565880827041,-0.004455634393835339,0.9944609750514992
1677618682162437,-0.06793316548409267,-0.002746623941405346,0.9969024185549706
1677618682178440,-0.06854352635996053,-0.002868696116578917,0.9951934081025406
1677618682194442,-0.0678110933089191,-0.00323491264209963,0.9945830472266728
1677618682210445,-0.06915388723582838,-0.003479056992446772,0.9940947585259785
1677618682226448,-0.06842145418478696,-0.005432211795223907,0.9922636758983749
1677618682242450,-0.06585793850614197,-0.0039673456931410556,0.9934843976501107
1677618682258453,-0.06622415503166268,-0.00457770656900891,0.9948271915770199
1677618682274456,-0.06659037155718339,-0.0038452735179674846,0.9940947585259785
1677618682290458,-0.06768902113374553,-0.0039673456931410556,0.9943389028763256
1677618682306461,-0.06720073243305125,-0.0040894178683146265,0.9960479133287556
1677618682322448,-0.06634622720683625,-0.0042114900434881974,0.9943389028763256
1677618682338451,-0.06659037155718339,-0.004699778744182481,0.9976348516060121
1677618682354454,-0.06732280460822482,-0.0036011291676203427,0.9967803463797971
1677618682370456,-0.06842145418478696,-0.0042114900434881974,0.9953154802777142
1677618682386459,-0.06890974288548124,-0.0037232013427939137,0.9950713359273671
1677618682402462,-0.06744487678339839,-0.004821850919356052,0.9965362020294499
1677618682418464,-0.06903181506065481,-0.002868696116578917,0.9964141298542764
1677618682434467,-0.06732280460822482,-0.00323491264209963,0.9953154802777142
1677618682450470,-0.0678110933089191,-0.003112840466926059,0.9947051194018464
1677618682466472,-0.06842145418478696,-0.004455634393835339,0.9971465629053178
1677618682482475,-0.06890974288548124,-0.006775005722133187,0.9958037689784085
1677618682498478,-0.06732280460822482,-0.004333562218661768,0.9973907072556649
1677618682514480,-0.06707866025787768,-0.004821850919356052,0.9950713359273671
1677618682530483,-0.06744487678339839,-0.0039673456931410556,0.9948271915770199
1677618682546486,-0.06854352635996053,-0.003479056992446772,0.9947051194018464
1677618682562488,-0.06805523765926624,-0.003479056992446772,0.9953154802777142
1677618682578491,-0.0686655985351341,-0.0042114900434881974,0.9950713359273671
1677618682594493,-0.0678110933089191,-0.004455634393835339,0.9932402532997635
1677618682610496,-0.06805523765926624,-0.002868696116578917,0.9939726863508049
1677618682626499,-0.06744487678339839,-0.0021362630655374915,0.9942168307011521
1677618682642517,-0.06817730983443981,-0.004943923094529623,0.9955596246280614
1677618682658519,-0.06756694895857196,-0.0042114900434881974,0.9956816968032349
1677618682674522,-0.06805523765926624,-0.0036011291676203427,0.9965362020294499
1677618682690525,-0.0669565880827041,-0.0036011291676203427,0.9938506141756314
1677618682706527,-0.06707866025787768,-0.0037232013427939137,0.9971465629053178
1677618682722530,-0.0669565880827041,-0.0037232013427939137,0.9981231403067063
1677618682738533,-0.06817730983443981,-0.0040894178683146265,0.9958037689784085
1677618682754535,-0.06854352635996053,-0.003356984817273201,0.9956816968032349
1677618682770538,-0.06683451590753053,-0.003356984817273201,0.9943389028763256
1677618682786541,-0.06854352635996053,-0.003112840466926059,0.9953154802777142
1677618682802543,-0.06842145418478696,-0.0025024795910582043,0.9948271915770199
1677618682818546,-0.06842145418478696,-0.0026245517662317752,0.9956816968032349
1677618682834549,-0.06829938200961339,-0.0017700465400167786,0.9926298924238957
1677618682850551,-0.06890974288548124,-0.0036011291676203427,0.9947051194018464
1677618682866554,-0.06744487678339839,-0.003112840466926059,0.9960479133287556
1677618682882557,-0.06805523765926624,-0.0042114900434881974,0.9949492637521935
1677618682898559,-0.0678110933089191,-0.0026245517662317752,0.9956816968032349
1677618682914562,-0.06707866025787768,-0.0039673456931410556,0.9960479133287556
1677618682930565,-0.0678110933089191,-0.003112840466926059,0.9955596246280614
1677618682946567,-0.06671244373235696,-0.0036011291676203427,0.9937285420004578
1677618682962585,-0.06707866025787768,-0.002868696116578917,0.9949492637521935
1677618682978588,-0.06720073243305125,-0.0042114900434881974,0.9947051194018464
1677618682994590,-0.06732280460822482,-0.003356984817273201,0.9949492637521935
1677618683010593,-0.06707866025787768,-0.00579842832074462,0.9937285420004578
1677618683026596,-0.06622415503166268,-0.004333562218661768,0.9947051194018464
1677618683042598,-0.06829938200961339,-0.0042114900434881974,0.9950713359273671
1677618683058601,-0.06878767071030767,-0.0036011291676203427,0.9973907072556649
1677618683074604,-0.06805523765926624,-0.0026245517662317752,0.9943389028763256
1677618683090606,-0.06659037155718339,-0.004333562218661768,0.9945830472266728
1677618683106609,-0.06707866025787768,-0.0038452735179674846,0.9951934081025406
1677618683122612,-0.06720073243305125,-0.004943923094529623,0.9960479133287556
1677618683138614,-0.0678110933089191,-0.0036011291676203427,0.9939726863508049
1677618683154617,-0.06903181506065481,-0.004455634393835339,0.9949492637521935
1677618683170620,-0.06805523765926624,-0.004455634393835339,0.9949492637521935
1677618683186622,-0.06878767071030767,-0.004333562218661768,0.9970244907301442
1677618683202625,-0.06707866025787768,-0.004699778744182481,0.9956816968032349
1677618683218628,-0.0678110933089191,-0.003112840466926059,0.9954375524528878
1677618683234630,-0.0686655985351341,-0.003356984817273201,0.9943389028763256
1677618683250633,-0.06683451590753053,-0.00323491264209963,0.9972686350804914
1677618683266636,-0.06683451590753053,-0.00457770656900891,0.9951934081025406
1677618683282653,-0.06659037155718339,-0.004455634393835339,0.9940947585259785
1677618683298657,-0.06927595941100195,-0.004821850919356052,0.9956816968032349
1677618683314660,-0.06817730983443981,-0.0036011291676203427,0.9969024185549706
1677618683330663,-0.06732280460822482,-0.005310139620050336,0.9964141298542764
1677618683346666,-0.06671244373235696,-0.00457770656900891,0.9944609750514992
1677618683362669,-0.06756694895857196,-0.005065995269703194,0.9937285420004578
1677618683378672,-0.06756694895857196,-0.0042114900434881974,0.9934843976501107
1677618683394675,-0.06671244373235696,-0.005065995269703194,0.9948271915770199
1677618683410678,-0.0678110933089191,-0.004821850919356052,0.9965362020294499
1677618683426682,-0.06768902113374553,-0.00323491264209963,0.9929961089494164
1677618683442685,-0.0695201037613491,-0.0018921187151903496,0.9956816968032349
1677618683458688,-0.0686655985351341,-0.00323491264209963,0.9964141298542764
1677618683474691,-0.06744487678339839,-0.0037232013427939137,0.9947051194018464
1677618683490694,-0.06878767071030767,-0.004333562218661768,0.9934843976501107
1677618683506697,-0.06805523765926624,-0.00323491264209963,0.9956816968032349
1677618683522700,-0.06659037155718339,-0.0025024795910582043,0.9931181811245899
1677618683538704,-0.06634622720683625,-0.0023804074158846333,0.9938506141756314
1677618683554707,-0.06768902113374553,-0.0036011291676203427,0.9937285420004578
1677618683570710,-0.06707866025787768,-0.004333562218661768,0.9945830472266728
1677618683586713,-0.06768902113374553,-0.004333562218661768,0.9938506141756314
1677618683602691,-0.0686655985351341,-0.002990768291752488,0.9950713359273671
1677618683618694,-0.06659037155718339,-0.003479056992446772,0.9943389028763256
1677618683634697,-0.06756694895857196,-0.002990768291752488,0.9950713359273671
1677618683650699,-0.06720073243305125,-0.00323491264209963,0.9937285420004578
1677618683666702,-0.06756694895857196,-0.002746623941405346,0.9943389028763256
1677618683682705,-0.06768902113374553,-0.0036011291676203427,0.9928740367742428
1677618683698707,-0.06768902113374553,-0.004821850919356052,0.9937285420004578
1677618683714710,-0.06646829938200982,-0.004943923094529623,0.9958037689784085
1677618683730713,-0.06646829938200982,-0.002990768291752488,0.9934843976501107
1677618683746715,-0.06768902113374553,-0.003356984817273201,0.9955596246280614
1677618683762718,-0.06598001068131554,-0.003356984817273201,0.9962920576791028
1677618683778720,-0.06671244373235696,-0.004333562218661768,0.9948271915770199
1677618683794723,-0.06817730983443981,-0.0042114900434881974,0.9954375524528878
1677618683810726,-0.06878767071030767,-0.00323491264209963,0.9937285420004578
1677618683826728,-0.0686655985351341,-0.003112840466926059,0.9958037689784085
1677618683842731,-0.06842145418478696,-0.0040894178683146265,0.9976348516060121
1677618683858734,-0.06829938200961339,-0.0023804074158846333,0.9962920576791028
1677618683874736,-0.06720073243305125,-0.0039673456931410556,0.9936064698252842
1677618683890739,-0.0678110933089191,-0.004333562218661768,0.9929961089494164
1677618683906742,-0.06842145418478696,-0.003356984817273201,0.9938506141756314
1677618683922760,-0.06732280460822482,-0.00323491264209963,0.9961699855039292
1677618683938762,-0.06646829938200982,-0.0023804074158846333,0.9934843976501107
1677618683954765,-0.06829938200961339,-0.004333562218661768,0.9944609750514992
1677618683970768,-0.06817730983443981,-0.004943923094529623,0.9948271915770199
1677618683986770,-0.06671244373235696,-0.003112840466926059,0.9926298924238957
1677618684002773,-0.06707866025787768,-0.00323491264209963,0.9954375524528878
1677618684018776,-0.06829938200961339,-0.0037232013427939137,0.9950713359273671
1677618684034778,-0.06805523765926624,-0.0042114900434881974,0.9975127794308385
1677618684050781,-0.06793316548409267,-0.00323491264209963,0.9943389028763256
1677618684066784,-0.06671244373235696,-0.003479056992446772,0.9939726863508049
1677618684082786,-0.06707866025787768,-0.0025024795910582043,0.9940947585259785
1677618684098789,-0.06634622720683625,-0.003479056992446772,0.9940947585259785
1677618684114791,-0.06756694895857196,-0.003112840466926059,0.9934843976501107
1677618684130794,-0.06720073243305125,-0.003356984817273201,0.9939726863508049
1677618684146797,-0.0678110933089191,-0.003356984817273201,0.9950713359273671
1677618684162799,-0.0686655985351341,-0.0021362630655374915,0.9937285420004578
1677618684178802,-0.06671244373235696,-0.004333562218661768,0.9948271915770199
1677618684194805,-0.06756694895857196,-0.0023804074158846333,0.9951934081025406
1677618684210807,-0.06683451590753053,-0.0037232013427939137,0.9959258411535821
1677618684226810,-0.06768902113374553,-0.0037232013427939137,0.9950713359273671
1677618684242828,-0.06707866025787768,-0.0036011291676203427,0.9949492637521935
1677618684258831,-0.06500343327992697,-0.0036011291676203427,0.9956816968032349
1677618684274834,-0.06622415503166268,-0.002746623941405346,0.9944609750514992
1677618684290837,-0.06768902113374553,-0.0038452735179674846,0.9982452124818799
1677618684306841,-0.06793316548409267,-0.003479056992446772,0.9961699855039292
1677618684322844,-0.0669565880827041,-0.002990768291752488,0.9971465629053178
1677618684338847,-0.0669565880827041,-0.0022583352407110624,0.9958037689784085
1677618684354850,-0.0669565880827041,-0.002868696116578917,0.9958037689784085
1677618684370853,-0.06707866025787768,-0.0042114900434881974,0.9960479133287556
1677618684386856,-0.06646829938200982,-0.005188067444876765,0.9956816968032349
1677618684402859,-0.06768902113374553,-0.003356984817273201,0.9950713359273671
1677618684418862,-0.06707866025787768,-0.0022583352407110624,0.9973907072556649
1677618684434866,-0.0678110933089191,-0.0040894178683146265,0.9945830472266728
1677618684450869,-0.06622415503166268,-0.0037232013427939137,0.9934843976501107
1677618684466872,-0.06878767071030767,-0.002868696116578917,0.9925078202487221
1677618684482875,-0.06744487678339839,-0.0037232013427939137,0.9967803463797971
1677618684498878,-0.0669565880827041,-0.0018921187151903496,0.9980010681315328
1677618684514881,-0.06817730983443981,-0.0020141908903639205,0.9962920576791028
1677618684530884,-0.06683451590753053,-0.0021362630655374915,0.9951934081025406
1677618684546887,-0.06829938200961339,-0.002746623941405346,0.9958037689784085
1677618684562896,-0.06659037155718339,-0.004333562218661768,0.9981231403067063
1677618684578899,-0.06756694895857196,-0.0026245517662317752,0.9959258411535821
1677618684594903,-0.06793316548409267,-0.002746623941405346,0.9947051194018464
1677618684610906,-0.06707866025787768,-0.0018921187151903496,0.9965362020294499
1677618684626909,-0.0678110933089191,-0.00323491264209963,0.9973907072556649
1677618684642912,-0.06744487678339839,-0.003112840466926059,0.9949492637521935
1677618684658915,-0.06707866025787768,-0.003356984817273201,0.9960479133287556
1677618684674918,-0.06854352635996053,-0.0037232013427939137,0.9961699855039292
1677618684690921,-0.0678110933089191,-0.002990768291752488,0.9949492637521935
1677618684706925,-0.06720073243305125,-0.0025024795910582043,0.9934843976501107
1677618684722928,-0.06646829938200982,-0.003356984817273201,0.9936064698252842
1677618684738931,-0.06744487678339839,-0.0037232013427939137,0.9961699855039292
1677618684754934,-0.06854352635996053,-0.003479056992446772,0.9967803463797971
1677618684770937,-0.0678110933089191,-0.003479056992446772,0.9949492637521935
1677618684786940,-0.0669565880827041,-0.0039673456931410556,0.9943389028763256
1677618684802943,-0.0686655985351341,-0.00323491264209963,0.9962920576791028
1677618684818946,-0.06720073243305125,-0.004821850919356052,0.9951934081025406
1677618684834950,-0.06744487678339839,-0.0022583352407110624,0.9938506141756314
1677618684850953,-0.06659037155718339,-0.0022583352407110624,0.9964141298542764
1677618684866956,-0.0669565880827041,-0.004943923094529623,0.9951934081025406
1677618684882934,-0.06817730983443981,-0.0038452735179674846,0.9953154802777142
1677618684898937,-0.06817730983443981,-0.0023804074158846333,0.9953154802777142
1677618684914940,-0.06720073243305125,-0.003356984817273201,0.9925078202487221
1677618684930942,-0.06842145418478696,-0.003479056992446772,0.9949492637521935
1677618684946945,-0.0678110933089191,-0.004455634393835339,0.9951934081025406
1677618684962947,-0.0678110933089191,-0.0040894178683146265,0.9966582742046235
1677618684978950,-0.06720073243305125,-0.004455634393835339,0.9951934081025406
1677618684994953,-0.06707866025787768,-0.00323491264209963,0.9962920576791028
1677618685010955,-0.06829938200961339,-0.003356984817273201,0.9967803463797971
1677618685026958,-0.06683451590753053,-0.0037232013427939137,0.9951934081025406
1677618685042961,-0.06768902113374553,-0.0021362630655374915,0.9921416037232014
1677618685058963,-0.06549172198062125,-0.0038452735179674846,0.9965362020294499
1677618685074966,-0.06634622720683625,-0.00323491264209963,0.9971465629053178
1677618685090969,-0.06683451590753053,-0.0036011291676203427,0.9949492637521935
1677618685106971,-0.06720073243305125,-0.0038452735179674846,0.9956816968032349
1677618685122974,-0.06829938200961339,-0.00457770656900891,0.9948271915770199
1677618685138977,-0.0669565880827041,-0.004333562218661768,0.9954375524528878
1677618685154979,-0.06817730983443981,-0.0025024795910582043,0.9945830472266728
1677618685170982,-0.06768902113374553,-0.003479056992446772,0.9960479133287556
1677618685186985,-0.06829938200961339,-0.003112840466926059,0.9965362020294499
1677618685203003,-0.06756694895857196,-0.00323491264209963,0.9965362020294499
1677618685219006,-0.06756694895857196,-0.0038452735179674846,0.9956816968032349
1677618685235009,-0.06805523765926624,-0.0036011291676203427,0.9940947585259785
1677618685251012,-0.06829938200961339,-0.002868696116578917,0.9947051194018464
1677618685267015,-0.06817730983443981,-0.0039673456931410556,0.9960479133287556
1677618685283018,-0.0678110933089191,-0.0039673456931410556,0.9962920576791028
1677618685299021,-0.06768902113374553,-0.0023804074158846333,0.9954375524528878
1677618685315024,-0.06805523765926624,-0.0037232013427939137,0.9944609750514992
1677618685331028,-0.06829938200961339,-0.003112840466926059,0.9975127794308385
1677618685347031,-0.06768902113374553,-0.0040894178683146265,0.9959258411535821
1677618685363034,-0.0669565880827041,-0.0037232013427939137,0.9942168307011521
1677618685379037,-0.0669565880827041,-0.003479056992446772,0.9958037689784085
1677618685395040,-0.06634622720683625,-0.0026245517662317752,0.9970244907301442
1677618685411043,-0.06610208285648911,-0.003356984817273201,0.9945830472266728
1677618685427046,-0.06817730983443981,-0.0022583352407110624,0.9944609750514992
1677618685443050,-0.06671244373235696,-0.004943923094529623,0.9947051194018464
1677618685459053,-0.06720073243305125,-0.0039673456931410556,0.9949492637521935
1677618685475056,-0.06732280460822482,-0.003479056992446772,0.9942168307011521
1677618685491059,-0.06817730983443981,-0.0026245517662317752,0.9950713359273671
1677618685507062,-0.06732280460822482,-0.003356984817273201,0.9953154802777142
1677618685523071,-0.06598001068131554,-0.003112840466926059,0.9942168307011521
1677618685539074,-0.06817730983443981,-0.002746623941405346,0.9959258411535821
1677618685555077,-0.06817730983443981,-0.0038452735179674846,0.9960479133287556
1677618685571080,-0.06720073243305125,-0.0023804074158846333,0.9962920576791028
1677618685587083,-0.06634622720683625,-0.0023804074158846333,0.9976348516060121
1677618685603087,-0.06842145418478696,-0.0042114900434881974,0.9967803463797971
1677618685619090,-0.06805523765926624,-0.00323491264209963,0.9947051194018464
1677618685635093,-0.06732280460822482,-0.0037232013427939137,0.9953154802777142
1677618685651096,-0.06707866025787768,-0.003112840466926059,0.9969024185549706
1677618685667099,-0.06634622720683625,-0.003112840466926059,0.9953154802777142
1677618685683102,-0.06829938200961339,-0.0037232013427939137,0.9950713359273671
1677618685699105,-0.06646829938200982,-0.0037232013427939137,0.9959258411535821
1677618685715108,-0.06756694895857196,-0.004333562218661768,0.9929961089494164
1677618685731112,-0.06683451590753053,-0.0040894178683146265,0.9932402532997635
1677618685747115,-0.06683451590753053,-0.0038452735179674846,0.9943389028763256
1677618685763118,-0.06646829938200982,-0.003356984817273201,0.9936064698252842
1677618685779121,-0.06720073243305125,-0.0042114900434881974,0.9932402532997635
1677618685795124,-0.06805523765926624,-0.0020141908903639205,0.9944609750514992
1677618685811127,-0.06683451590753053,-0.0036011291676203427,0.9954375524528878
1677618685827130,-0.06817730983443981,-0.005188067444876765,0.9960479133287556
1677618685843139,-0.06683451590753053,-0.0040894178683146265,0.9959258411535821
1677618685859142,-0.06744487678339839,-0.0022583352407110624,0.9960479133287556
1677618685875146,-0.06598001068131554,-0.002868696116578917,0.9945830472266728
1677618685891149,-0.06744487678339839,-0.002990768291752488,0.9945830472266728
1677618685907152,-0.06878767071030767,-0.0039673456931410556,0.9967803463797971
1677618685923155,-0.0678110933089191,-0.0040894178683146265,0.9964141298542764
1677618685939158,-0.0669565880827041,-0.003356984817273201,0.9923857480735485
1677618685955161,-0.06756694895857196,-0.00323491264209963,0.9953154802777142
1677618685971164,-0.06805523765926624,-0.0039673456931410556,0.9955596246280614
1677618685987167,-0.0686655985351341,-0.0036011291676203427,0.9964141298542764
1677618686003171,-0.06817730983443981,-0.0017700465400167786,0.9942168307011521
1677618686019174,-0.06732280460822482,-0.002746623941405346,0.9959258411535821
1677618686035177,-0.06768902113374553,-0.0025024795910582043,0.9951934081025406
1677618686051180,-0.06671244373235696,-0.002746623941405346,0.9937285420004578
1677618686067183,-0.06756694895857196,-0.003479056992446772,0.9951934081025406
1677618686083186,-0.06683451590753053,-0.0040894178683146265,0.9943389028763256
1677618686099189,-0.0686655985351341,-0.0040894178683146265,0.9959258411535821
1677618686115193,-0.06732280460822482,-0.0042114900434881974,0.9948271915770199
1677618686131196,-0.06732280460822482,-0.0023804074158846333,0.9944609750514992
1677618686147199,-0.06659037155718339,-0.0023804074158846333,0.9956816968032349
1677618686163177,-0.06683451590753053,-0.004333562218661768,0.9966582742046235
1677618686179180,-0.06805523765926624,-0.0026245517662317752,0.9940947585259785
1677618686195183,-0.06768902113374553,-0.0037232013427939137,0.9954375524528878
1677618686211187,-0.06707866025787768,-0.005188067444876765,0.9959258411535821
1677618686227190,-0.06646829938200982,-0.005188067444876765,0.9936064698252842
1677618686243193,-0.06768902113374553,-0.003112840466926059,0.9929961089494164
1677618686259196,-0.06683451590753053,-0.003479056992446772,0.9947051194018464
1677618686275199,-0.06854352635996053,-0.003356984817273201,0.9961699855039292
1677618686291202,-0.0678110933089191,-0.004821850919356052,0.9950713359273671
1677618686307205,-0.06683451590753053,-0.0036011291676203427,0.9964141298542764
1677618686323208,-0.06768902113374553,-0.0039673456931410556,0.9947051194018464
1677618686339212,-0.06768902113374553,-0.004455634393835339,0.9937285420004578
1677618686355215,-0.06756694895857196,-0.0040894178683146265,0.9931181811245899
1677618686371218,-0.06720073243305125,-0.002746623941405346,0.9956816968032349
1677618686387221,-0.06829938200961339,-0.003112840466926059,0.9955596246280614
1677618686403224,-0.0669565880827041,-0.0040894178683146265,0.9961699855039292
1677618686419227,-0.06720073243305125,-0.003479056992446772,0.9954375524528878
1677618686435230,-0.0678110933089191,-0.004333562218661768,0.9970244907301442
1677618686451233,-0.06793316548409267,-0.003356984817273201,0.9951934081025406
1677618686467237,-0.06805523765926624,-0.003112840466926059,0.9960479133287556
1677618686483245,-0.0648813611047534,-0.0040894178683146265,0.9948271915770199
1677618686499249,-0.0678110933089191,-0.0037232013427939137,0.9955596246280614
1677618686515252,-0.06756694895857196,-0.0039673456931410556,0.9936064698252842
1677618686531255,-0.06720073243305125,-0.003479056992446772,0.9942168307011521
1677618686547258,-0.0678110933089191,-0.0042114900434881974,0.9971465629053178
1677618686563261,-0.06646829938200982,-0.0037232013427939137,0.9961699855039292
1677618686579264,-0.06707866025787768,-0.0042114900434881974,0.9959258411535821
1677618686595267,-0.06744487678339839,-0.0036011291676203427,0.9945830472266728
1677618686611271,-0.06756694895857196,-0.0036011291676203427,0.9956816968032349
1677618686627274,-0.06854352635996053,-0.0037232013427939137,0.9977569237811856
1677618686643277,-0.06768902113374553,-0.004821850919356052,0.9955596246280614
1677618686659280,-0.06622415503166268,-0.0037232013427939137,0.9933623254749371
1677618686675283,-0.06659037155718339,-0.0037232013427939137,0.9943389028763256
1677618686691286,-0.06817730983443981,-0.005554283970397478,0.9976348516060121
1677618686707289,-0.06671244373235696,-0.00323491264209963,0.9949492637521935
1677618686723292,-0.06842145418478696,-0.0040894178683146265,0.9949492637521935
1677618686739296,-0.06744487678339839,-0.0042114900434881974,0.9955596246280614
1677618686755299,-0.06768902113374553,-0.0023804074158846333,0.9956816968032349
1677618686771302,-0.06829938200961339,-0.0037232013427939137,0.9959258411535821
1677618686787305,-0.06793316548409267,-0.004943923094529623,0.9945830472266728
1677618686803314,-0.06683451590753053,-0.002868696116578917,0.9951934081025406
1677618686819317,-0.06744487678339839,-0.0038452735179674846,0.9960479133287556
1677618686835320,-0.06707866025787768,-0.00323491264209963,0.9964141298542764
1677618686851323,-0.06707866025787768,-0.0037232013427939137,0.9949492637521935
1677618686867326,-0.0678110933089191,-0.004699778744182481,0.9945830472266728
1677618686883329,-0.0678110933089191,-0.0042114900434881974,0.9940947585259785
1677618686899333,-0.06720073243305125,-0.0037232013427939137,0.9953154802777142
1677618686915336,-0.06793316548409267,-0.0042114900434881974,0.9943389028763256
1677618686931339,-0.06829938200961339,-0.0026245517662317752,0.9950713359273671
1677618686947342,-0.06817730983443981,-0.0038452735179674846,0.9973907072556649
1677618686963345,-0.06768902113374553,-0.004699778744182481,0.9955596246280614
1677618686979348,-0.06793316548409267,-0.003112840466926059,0.9938506141756314
1677618686995351,-0.06890974288548124,-0.002990768291752488,0.9955596246280614
1677618687011355,-0.06707866025787768,-0.003479056992446772,0.9943389028763256
1677618687027358,-0.06829938200961339,-0.00323491264209963,0.9944609750514992
1677618687043361,-0.06732280460822482,-0.004821850919356052,0.9938506141756314
1677618687059364,-0.06744487678339839,-0.004699778744182481,0.9947051194018464
1677618687075367,-0.06683451590753053,-0.0022583352407110624,0.9981231403067063
1677618687091370,-0.06707866025787768,-0.002990768291752488,0.9961699855039292
1677618687107373,-0.06842145418478696,-0.0039673456931410556,0.9955596246280614
1677618687123382,-0.06744487678339839,-0.002990768291752488,0.9978789959563592
1677618687139385,-0.06744487678339839,-0.0040894178683146265,0.9961699855039292
1677618687155388,-0.06756694895857196,-0.004455634393835339,0.9961699855039292
1677618687171392,-0.06610208285648911,-0.0037232013427939137,0.9942168307011521
1677618687187395,-0.06878767071030767,-0.0038452735179674846,0.9949492637521935
1677618687203398,-0.06707866025787768,-0.00323491264209963,0.9958037689784085
1677618687219401,-0.06805523765926624,-0.00323491264209963,0.9964141298542764
1677618687235404,-0.06707866025787768,-0.0038452735179674846,0.9951934081025406
1677618687251407,-0.06842145418478696,-0.0039673456931410556,0.9964141298542764
1677618687267410,-0.06793316548409267,-0.002990768291752488,0.9977569237811856
1677618687283414,-0.06793316548409267,-0.0037232013427939137,0.9960479133287556
1677618687299417,-0.06671244373235696,-0.0039673456931410556,0.9953154802777142
1677618687315420,-0.06659037155718339,-0.002746623941405346,0.9954375524528878
1677618687331423,-0.06805523765926624,-0.0036011291676203427,0.9984893568322271
1677618687347426,-0.06744487678339839,-0.003112840466926059,0.9947051194018464
1677618687363429,-0.06732280460822482,-0.00457770656900891,0.9948271915770199
1677618687379432,-0.06598001068131554,-0.0037232013427939137,0.9943389028763256
1677618687395435,-0.06622415503166268,-0.0040894178683146265,0.9975127794308385
1677618687411439,-0.06598001068131554,-0.004333562218661768,0.9970244907301442
1677618687427442,-0.06610208285648911,-0.005188067444876765,0.9954375524528878
1677618687443420,-0.06622415503166268,-0.005065995269703194,0.9933623254749371
1677618687459423,-0.06622415503166268,-0.005188067444876765,0.9960479133287556
1677618687475426,-0.06768902113374553,-0.0040894178683146265,0.9945830472266728
1677618687491429,-0.06793316548409267,-0.0023804074158846333,0.9949492637521935
1677618687507433,-0.0678110933089191,-0.005188067444876765,0.9937285420004578
1677618687523436,-0.06683451590753053,-0.004699778744182481,0.9951934081025406
1677618687539439,-0.06720073243305125,-0.0026245517662317752,0.9962920576791028
1677618687555442,-0.06634622720683625,-0.004455634393835339,0.9953154802777142
1677618687571445,-0.06720073243305125,-0.003356984817273201,0.9954375524528878
1677618687587448,-0.06768902113374553,-0.002868696116578917,0.9976348516060121
1677618687603451,-0.0669565880827041,-0.002990768291752488,0.9940947585259785
1677618687619454,-0.06610208285648911,-0.0023804074158846333,0.9933623254749371
1677618687635458,-0.0686655985351341,-0.0036011291676203427,0.9943389028763256
1677618687651461,-0.06756694895857196,-0.0036011291676203427,0.9967803463797971
1677618687667464,-0.0678110933089191,-0.003479056992446772,0.9962920576791028
1677618687683467,-0.0678110933089191,-0.003479056992446772,0.9926298924238957
1677618687699470,-0.06720073243305125,-0.004333562218661768,0.9951934081025406
1677618687715473,-0.06903181506065481,-0.0038452735179674846,0.9982452124818799
1677618687731476,-0.06805523765926624,-0.0038452735179674846,0.9964141298542764
1677618687747480,-0.06744487678339839,-0.0021362630655374915,0.9945830472266728
1677618687763488,-0.06671244373235696,-0.004455634393835339,0.9980010681315328
1677618687779492,-0.06744487678339839,-0.005065995269703194,0.9953154802777142
1677618687795495,-0.06683451590753053,-0.002868696116578917,0.9964141298542764
1677618687811498,-0.06732280460822482,-0.00323491264209963,0.9965362020294499
1677618687827501,-0.0678110933089191,-0.00457770656900891,0.9964141298542764
1677618687843504,-0.06817730983443981,-0.004943923094529623,0.9972686350804914
1677618687859507,-0.06744487678339839,-0.0039673456931410556,0.9940947585259785
1677618687875510,-0.06732280460822482,-0.003479056992446772,0.9929961089494164
1677618687891513,-0.06768902113374553,-0.0038452735179674846,0.9944609750514992
1677618687907517,-0.06646829938200982,-0.0039673456931410556,0.9960479133287556
1677618687923520,-0.06659037155718339,-0.002868696116578917,0.9956816968032349
1677618687939523,-0.06793316548409267,-0.0023804074158846333,0.9954375524528878
1677618687955526,-0.06732280460822482,-0.00323491264209963,0.9949492637521935
1677618687971529,-0.06854352635996053,-0.0038452735179674846,0.9962920576791028
1677618687987532,-0.06585793850614197,-0.00457770656900891,0.9943389028763256
1677618688003535,-0.06756694895857196,-0.0042114900434881974,0.9939726863508049
1677618688019539,-0.06768902113374553,-0.004455634393835339,0.9948271915770199
1677618688035542,-0.0695201037613491,-0.0038452735179674846,0.9972686350804914
1677618688051545,-0.06842145418478696,-0.0042114900434881974,0.9944609750514992
1677618688067548,-0.06732280460822482,-0.0026245517662317752,0.9949492637521935
1677618688083557,-0.06720073243305125,-0.0042114900434881974,0.9943389028763256
1677618688099560,-0.06805523765926624,-0.0020141908903639205,0.9932402532997635
1677618688115563,-0.06842145418478696,-0.002868696116578917,0.9947051194018464
1677618688131566,-0.06732280460822482,-0.004699778744182481,0.9973907072556649
1677618688147569,-0.06805523765926624,-0.0042114900434881974,0.9940947585259785
1677618688163572,-0.0678110933089191,-0.00457770656900891,0.9947051194018464
1677618688179576,-0.06707866025787768,-0.005554283970397478,0.9951934081025406
1677618688195579,-0.06842145418478696,-0.005310139620050336,0.9950713359273671
1677618688211582,-0.06817730983443981,-0.004943923094529623,0.9959258411535821
1677618688227585,-0.06720073243305125,-0.00457770656900891,0.9940947585259785
1677618688243588,-0.06829938200961339,-0.002746623941405346,0.9961699855039292
1677618688259591,-0.06829938200961339,-0.004699778744182481,0.9972686350804914
1677618688275594,-0.06646829938200982,-0.002990768291752488,0.9953154802777142
1677618688291597,-0.06671244373235696,-0.0042114900434881974,0.9945830472266728
1677618688307601,-0.06671244373235696,-0.0037232013427939137,0.9958037689784085
1677618688323604,-0.0678110933089191,-0.004333562218661768,0.9942168307011521
1677618688339607,-0.06732280460822482,-0.0042114900434881974,0.9937285420004578
1677618688355610,-0.06817730983443981,-0.00457770656900891,0.9959258411535821
1677618688371613,-0.06756694895857196,-0.004943923094529623,0.9956816968032349
1677618688387616,-0.06756694895857196,-0.0037232013427939137,0.9958037689784085
1677618688403625,-0.06793316548409267,-0.003356984817273201,0.9964141298542764
1677618688419628,-0.0678110933089191,-0.0042114900434881974,0.9940947585259785
1677618688435631,-0.06842145418478696,-0.003479056992446772,0.9955596246280614
1677618688451635,-0.06878767071030767,-0.0040894178683146265,0.9928740367742428
1677618688467638,-0.06817730983443981,-0.0023804074158846333,0.9960479133287556
1677618688483641,-0.06720073243305125,-0.003356984817273201,0.9959258411535821
1677618688499644,-0.06890974288548124,-0.00457770656900891,0.9944609750514992
1677618688515647,-0.06817730983443981,-0.00323491264209963,0.9933623254749371
1677618688531650,-0.06805523765926624,-0.0036011291676203427,0.9956816968032349
1677618688547653,-0.06720073243305125,-0.00457770656900891,0.9949492637521935
1677618688563656,-0.06854352635996053,-0.0025024795910582043,0.9971465629053178
1677618688579660,-0.06732280460822482,-0.0022583352407110624,0.9960479133287556
1677618688595663,-0.06671244373235696,-0.004333562218661768,0.9936064698252842
1677618688611666,-0.06878767071030767,-0.004821850919356052,0.9948271915770199
1677618688627669,-0.06720073243305125,-0.0038452735179674846,0.9965362020294499
1677618688643672,-0.06829938200961339,-0.0036011291676203427,0.9958037689784085
1677618688659675,-0.06720073243305125,-0.004455634393835339,0.9947051194018464
1677618688675678,-0.06829938200961339,-0.002868696116578917,0.9948271915770199
1677618688691681,-0.06756694895857196,-0.0023804074158846333,0.9948271915770199
1677618688707685,-0.06829938200961339,-0.003356984817273201,0.9944609750514992
1677618688723663,-0.06805523765926624,-0.0023804074158846333,0.9945830472266728
1677618688739666,-0.06756694895857196,-0.005188067444876765,0.9965362020294499
1677618688755669,-0.06793316548409267,-0.0040894178683146265,0.9944609750514992
1677618688771672,-0.06805523765926624,-0.004821850919356052,0.9933623254749371
1677618688787675,-0.06976424811169624,-0.002868696116578917,0.9954375524528878
1677618688803679,-0.06854352635996053,-0.002746623941405346,0.9938506141756314
1677618688819682,-0.06939803158617552,-0.005554283970397478,0.9960479133287556
1677618688835685,-0.0669565880827041,-0.002990768291752488,0.9950713359273671
1677618688851688,-0.06732280460822482,-0.00457770656900891,0.9948271915770199
1677618688867691,-0.06829938200961339,-0.005188067444876765,0.9951934081025406
1677618688883694,-0.06732280460822482,-0.003356984817273201,0.9973907072556649
1677618688899697,-0.06756694895857196,-0.003479056992446772,0.9943389028763256
1677618688915701,-0.06817730983443981,-0.004699778744182481,0.9947051194018464
1677618688931704,-0.06890974288548124,-0.004699778744182481,0.9945830472266728
1677618688947707,-0.06805523765926624,-0.003356984817273201,0.9961699855039292
1677618688963710,-0.06720073243305125,-0.002990768291752488,0.9966582742046235
1677618688979713,-0.06756694895857196,-0.0036011291676203427,0.9960479133287556
1677618688995716,-0.06683451590753053,-0.0037232013427939137,0.9956816968032349
1677618689011719,-0.06683451590753053,-0.004699778744182481,0.9933623254749371
1677618689027722,-0.06683451590753053,-0.004333562218661768,0.9960479133287556
1677618689043731,-0.06793316548409267,-0.003356984817273201,0.9939726863508049
1677618689059734,-0.06646829938200982,-0.00457770656900891,0.9942168307011521
1677618689075738,-0.06842145418478696,-0.002990768291752488,0.9944609750514992
1677618689091741,-0.0657358663309684,-0.003112840466926059,0.9923857480735485
1677618689107744,-0.06683451590753053,-0.0036011291676203427,0.9928740367742428
1677618689123747,-0.06744487678339839,-0.002990768291752488,0.9942168307011521
1677618689139750,-0.06817730983443981,-0.0036011291676203427,0.9949492637521935
1677618689155753,-0.06659037155718339,-0.0038452735179674846,0.9956816968032349
1677618689171756,-0.06598001068131554,-0.0036011291676203427,0.9942168307011521
1677618689187760,-0.06707866025787768,-0.002990768291752488,0.9949492637521935
1677618689203763,-0.06829938200961339,-0.0036011291676203427,0.9969024185549706
1677618689219766,-0.06768902113374553,-0.0040894178683146265,0.9933623254749371
1677618689235769,-0.06768902113374553,-0.002990768291752488,0.9939726863508049
1677618689251772,-0.06842145418478696,-0.005188067444876765,0.9939726863508049
1677618689267775,-0.06756694895857196,-0.0036011291676203427,0.9975127794308385
1677618689283778,-0.06707866025787768,-0.003112840466926059,0.9961699855039292
1677618689299781,-0.06659037155718339,-0.0040894178683146265,0.9965362020294499
1677618689315785,-0.06890974288548124,-0.00457770656900891,0.9953154802777142
1677618689331788,-0.0678110933089191,-0.0036011291676203427,0.9949492637521935
1677618689347791,-0.06768902113374553,-0.0020141908903639205,0.9958037689784085
1677618689363800,-0.06707866025787768,-0.0020141908903639205,0.9940947585259785
1677618689379803,-0.06756694895857196,-0.004943923094529623,0.9932402532997635
1677618689395806,-0.06756694895857196,-0.0038452735179674846,0.9966582742046235
1677618689411809,-0.06707866025787768,-0.002990768291752488,0.9956816968032349
1677618689427812,-0.06829938200961339,-0.0038452735179674846,0.9932402532997635
1677618689443815,-0.06805523765926624,-0.0025024795910582043,0.9967803463797971
1677618689459818,-0.06683451590753053,-0.0042114900434881974,0.9954375524528878
1677618689475822,-0.06683451590753053,-0.0037232013427939137,0.9956816968032349
1677618689491825,-0.06671244373235696,-0.002990768291752488,0.9953154802777142
1677618689507828,-0.06659037155718339,-0.004333562218661768,0.9947051194018464
1677618689523831,-0.06610208285648911,-0.0020141908903639205,0.9966582742046235
1677618689539834,-0.06720073243305125,-0.002868696116578917,0.9975127794308385
1677618689555837,-0.06756694895857196,-0.002868696116578917,0.9947051194018464
1677618689571840,-0.06793316548409267,-0.003479056992446772,0.9960479133287556
1677618689587844,-0.0678110933089191,-0.0038452735179674846,0.9980010681315328
1677618689603847,-0.06756694895857196,-0.003112840466926059,0.9960479133287556
1677618689619850,-0.06768902113374553,-0.0021362630655374915,0.9956816968032349
1677618689635853,-0.06756694895857196,-0.00323491264209963,0.9947051194018464
1677618689651856,-0.06756694895857196,-0.0038452735179674846,0.9959258411535821
1677618689667859,-0.06683451590753053,-0.0037232013427939137,0.9954375524528878
1677618689683868,-0.06756694895857196,-0.0037232013427939137,0.9955596246280614
1677618689699871,-0.0669565880827041,-0.004333562218661768,0.9962920576791028
1677618689715874,-0.0669565880827041,-0.003479056992446772,0.9959258411535821
1677618689731877,-0.06817730983443981,-0.004333562218661768,0.9982452124818799
1677618689747881,-0.06756694895857196,-0.00323491264209963,0.9931181811245899
1677618689763884,-0.06744487678339839,-0.0042114900434881974,0.9967803463797971
1677618689779887,-0.06768902113374553,-0.004455634393835339,0.9969024185549706
1677618689795890,-0.06817730983443981,-0.002868696116578917,0.9942168307011521
1677618689811893,-0.06854352635996053,-0.002868696116578917,0.9939726863508049
1677618689827896,-0.06744487678339839,-0.00323491264209963,0.9937285420004578
1677618689843899,-0.06756694895857196,-0.0026245517662317752,0.9959258411535821
1677618689859902,-0.06683451590753053,-0.0020141908903639205,0.9942168307011521
1677618689875906,-0.0678110933089191,-0.00457770656900891,0.9932402532997635
1677618689891909,-0.06671244373235696,-0.00457770656900891,0.9940947585259785
1677618689907912,-0.06817730983443981,-0.005188067444876765,0.9956816968032349
1677618689923915,-0.06903181506065481,-0.0038452735179674846,0.9947051194018464
1677618689939918,-0.06671244373235696,-0.002868696116578917,0.9956816968032349
1677618689955921,-0.06720073243305125,-0.0038452735179674846,0.9950713359273671
1677618689971924,-0.0686655985351341,-0.004333562218661768,0.9972686350804914
1677618689987928,-0.0669565880827041,-0.005188067444876765,0.9967803463797971
1677618690003906,-0.06732280460822482,-0.0023804074158846333,0.9926298924238957
1677618690019909,-0.06756694895857196,-0.0042114900434881974,0.9942168307011521
1677618690035912,-0.06805523765926624,-0.0026245517662317752,0.9945830472266728
1677618690051915,-0.06805523765926624,-0.0037232013427939137,0.9940947585259785
1677618690067918,-0.06829938200961339,-0.0040894178683146265,0.9951934081025406
1677618690083922,-0.06768902113374553,-0.005065995269703194,0.9947051194018464
1677618690099925,-0.06659037155718339,-0.0037232013427939137,0.9971465629053178
1677618690115928,-0.06744487678339839,-0.0018921187151903496,0.9986114290074006
1677618690131931,-0.06890974288548124,-0.0037232013427939137,0.9960479133287556
1677618690147934,-0.0669565880827041,-0.0036011291676203427,0.9955596246280614
1677618690163937,-0.06744487678339839,-0.002868696116578917,0.9953154802777142
1677618690179940,-0.06732280460822482,-0.0040894178683146265,0.9966582742046235
1677618690195943,-0.06707866025787768,-0.00323491264209963,0.9951934081025406
1677618690211947,-0.0678110933089191,-0.00323491264209963,0.9937285420004578
1677618690227950,-0.06720073243305125,-0.0021362630655374915,0.9960479133287556
1677618690243953,-0.0678110933089191,-0.0036011291676203427,0.9951934081025406
1677618690259956,-0.06756694895857196,-0.004455634393835339,0.9945830472266728
1677618690275959,-0.06768902113374553,-0.004333562218661768,0.9940947585259785
1677618690291962,-0.0669565880827041,-0.0037232013427939137,0.9960479133287556
1677618690307965,-0.06659037155718339,-0.004821850919356052,0.9955596246280614
1677618690323974,-0.06842145418478696,-0.00457770656900891,0.9945830472266728
1677618690339977,-0.06659037155718339,-0.0026245517662317752,0.9953154802777142
1677618690355980,-0.0678110933089191,-0.0038452735179674846,0.9953154802777142
1677618690371984,-0.06598001068131554,-0.003479056992446772,0.9944609750514992
1677618690387987,-0.0669565880827041,-0.00457770656900891,0.9939726863508049
1677618690403990,-0.06671244373235696,-0.002868696116578917,0.9918974593728542
1677618690419993,-0.06793316548409267,-0.00457770656900891,0.9951934081025406
1677618690435996,-0.06683451590753053,-0.0036011291676203427,0.9951934081025406
1677618690451999,-0.06659037155718339,-0.00457770656900891,0.9959258411535821
1677618690468002,-0.06659037155718339,-0.0039673456931410556,0.9938506141756314
1677618690484006,-0.0678110933089191,-0.00457770656900891,0.9961699855039292
1677618690500009,-0.06671244373235696,-0.004333562218661768,0.9962920576791028
1677618690516012,-0.06671244373235696,-0.00323491264209963,0.9950713359273671
1677618690532015,-0.06585793850614197,-0.0042114900434881974,0.9945830472266728
1677618690548018,-0.06805523765926624,-0.0037232013427939137,0.9955596246280614
1677618690564021,-0.06903181506065481,-0.0038452735179674846,0.9937285420004578
1677618690580024,-0.06659037155718339,-0.005188067444876765,0.9948271915770199
1677618690596027,-0.06646829938200982,-0.0026245517662317752,0.9931181811245899
1677618690612031,-0.06890974288548124,-0.0040894178683146265,0.9943389028763256
1677618690628034,-0.0678110933089191,-0.00323491264209963,0.9975127794308385
1677618690644043,-0.06659037155718339,-0.0036011291676203427,0.9939726863508049
1677618690660046,-0.06756694895857196,-0.004943923094529623,0.9950713359273671
1677618690676049,-0.06878767071030767,-0.0042114900434881974,0.9966582742046235
1677618690692052,-0.0678110933089191,-0.0039673456931410556,0.9965362020294499
1677618690708055,-0.06671244373235696,-0.002868696116578917,0.9961699855039292
1677618690724058,-0.06598001068131554,-0.003112840466926059,0.9954375524528878
1677618690740061,-0.07000839246204338,-0.0042114900434881974,0.9959258411535821
1677618690756065,-0.06744487678339839,-0.004943923094529623,0.9954375524528878
1677618690772068,-0.06610208285648911,-0.003356984817273201,0.9929961089494164
1677618690788071,-0.0686655985351341,-0.002746623941405346,0.9942168307011521
1677618690804074,-0.06768902113374553,-0.0038452735179674846,0.9944609750514992
1677618690820077,-0.07013046463721695,-0.0038452735179674846,0.9953154802777142
1677618690836080,-0.0678110933089191,-0.004455634393835339,0.9937285420004578
1677618690852083,-0.06805523765926624,-0.003356984817273201,0.9915312428473335
1677618690868086,-0.06671244373235696,-0.005310139620050336,0.9945830472266728
1677618690884090,-0.06610208285648911,-0.0042114900434881974,0.9948271915770199
1677618690900093,-0.06756694895857196,-0.00457770656900891,0.9921416037232014
1677618690916096,-0.06878767071030767,-0.004699778744182481,0.9934843976501107
1677618690932099,-0.06768902113374553,-0.0039673456931410556,0.9933623254749371
1677618690948102,-0.0669565880827041,-0.003356984817273201,0.9950713359273671
1677618690964111,-0.06805523765926624,-0.004821850919356052,0.9945830472266728
1677618690980114,-0.0678110933089191,-0.0036011291676203427,0.9937285420004578
1677618690996117,-0.06842145418478696,-0.0042114900434881974,0.9965362020294499
1677618691012120,-0.06890974288548124,-0.005310139620050336,0.9955596246280614
1677618691028123,-0.06842145418478696,-0.002746623941405346,0.9950713359273671
1677618691044127,-0.06817730983443981,-0.002990768291752488,0.9936064698252842
1677618691060130,-0.06756694895857196,-0.004821850919356052,0.9950713359273671
1677618691076133,-0.06707866025787768,-0.005676356145571049,0.9949492637521935
1677618691092136,-0.06768902113374553,-0.0039673456931410556,0.9948271915770199
1677618691108139,-0.06732280460822482,-0.0037232013427939137,0.9921416037232014
1677618691124142,-0.06756694895857196,-0.0042114900434881974,0.9956816968032349
1677618691140145,-0.0678110933089191,-0.0018921187151903496,0.9972686350804914
1677618691156149,-0.06671244373235696,-0.0042114900434881974,0.9929961089494164
1677618691172152,-0.06756694895857196,-0.002990768291752488,0.9923857480735485
1677618691188155,-0.0686655985351341,-0.0037232013427939137,0.9948271915770199
1677618691204158,-0.06854352635996053,-0.0038452735179674846,0.9944609750514992
1677618691220161,-0.06720073243305125,-0.002868696116578917,0.9934843976501107
1677618691236164,-0.06634622720683625,-0.002868696116578917,0.9931181811245899
1677618691252167,-0.06793316548409267,-0.003479056992446772,0.9960479133287556
1677618691268170,-0.06805523765926624,-0.003479056992446772,0.9960479133287556
1677618691284149,-0.06890974288548124,-0.004821850919356052,0.9950713359273671
1677618691300152,-0.06829938200961339,-0.005065995269703194,0.9942168307011521
1677618691316155,-0.06854352635996053,-0.0042114900434881974,0.9953154802777142
1677618691332158,-0.06915388723582838,-0.003356984817273201,0.9972686350804914
1677618691348161,-0.0669565880827041,-0.002868696116578917,0.9960479133287556
1677618691364164,-0.0669565880827041,-0.0039673456931410556,0.9973907072556649
1677618691380168,-0.06756694895857196,-0.003356984817273201,0.9962920576791028
1677618691396171,-0.06634622720683625,-0.005920500495918191,0.9956816968032349
1677618691412174,-0.06732280460822482,-0.0061646448462653325,0.9947051194018464
1677618691428177,-0.06793316548409267,-0.0039673456931410556,0.9943389028763256
1677618691444180,-0.06744487678339839,-0.003479056992446772,0.9932402532997635
1677618691460183,-0.06817730983443981,-0.0039673456931410556,0.9950713359273671
1677618691476186,-0.06768902113374553,-0.005188067444876765,0.9959258411535821
1677618691492190,-0.06829938200961339,-0.004943923094529623,0.9934843976501107
1677618691508193,-0.06744487678339839,-0.003112840466926059,0.9937285420004578
1677618691524196,-0.06744487678339839,-0.00579842832074462,0.9977569237811856
1677618691540199,-0.06732280460822482,-0.003479056992446772,0.9956816968032349
1677618691556202,-0.06817730983443981,-0.004333562218661768,0.9931181811245899
1677618691572205,-0.06805523765926624,-0.00457770656900891,0.9934843976501107
1677618691588208,-0.06744487678339839,-0.0060425726710917615,0.9951934081025406
1677618691604217,-0.06683451590753053,-0.0036011291676203427,0.9960479133287556
1677618691620220,-0.06622415503166268,-0.005920500495918191,0.9951934081025406
1677618691636223,-0.06646829938200982,-0.003479056992446772,0.9948271915770199
1677618691652227,-0.06634622720683625,-0.00323491264209963,0.9967803463797971
1677618691668230,-0.06720073243305125,-0.005676356145571049,0.9945830472266728
1677618691684233,-0.06744487678339839,-0.003356984817273201,0.9944609750514992
1677618691700236,-0.0678110933089191,-0.0037232013427939137,0.9948271915770199
1677618691716239,-0.06817730983443981,-0.0037232013427939137,0.9958037689784085
1677618691732242,-0.06744487678339839,-0.003112840466926059,0.9953154802777142
1677618691748245,-0.06622415503166268,-0.003356984817273201,0.9933623254749371
1677618691764248,-0.06805523765926624,-0.00323491264209963,0.9939726863508049
1677618691780252,-0.06720073243305125,-0.002990768291752488,0.9971465629053178
1677618691796255,-0.06646829938200982,-0.0038452735179674846,0.9951934081025406
1677618691812258,-0.06805523765926624,-0.004333562218661768,0.9944609750514992
1677618691828261,-0.06671244373235696,-0.003479056992446772,0.9937285420004578
1677618691844264,-0.06805523765926624,-0.004455634393835339,0.9945830472266728
1677618691860267,-0.0669565880827041,-0.0040894178683146265,0.9969024185549706
1677618691876270,-0.06744487678339839,-0.0023804074158846333,0.9942168307011521
1677618691892274,-0.06890974288548124,-0.0037232013427939137,0.9944609750514992
1677618691908277,-0.06561379415579482,-0.00323491264209963,0.9945830472266728
1677618691924286,-0.06634622720683625,-0.004333562218661768,0.9960479133287556
1677618691940289,-0.06829938200961339,-0.004455634393835339,0.9967803463797971
1677618691956292,-0.06793316548409267,-0.003479056992446772,0.9944609750514992
1677618691972295,-0.06842145418478696,-0.002990768291752488,0.9962920576791028
1677618691988298,-0.06732280460822482,-0.005188067444876765,0.9960479133287556
1677618692004301,-0.06842145418478696,-0.002868696116578917,0.9978789959563592
1677618692020304,-0.06842145418478696,-0.0037232013427939137,0.9953154802777142
1677618692036307,-0.06915388723582838,-0.0036011291676203427,0.9975127794308385
1677618692052311,-0.0686655985351341,-0.004455634393835339,0.9953154802777142
1677618692068314,-0.06854352635996053,-0.0025024795910582043,0.9975127794308385
1677618692084317,-0.0686655985351341,-0.0038452735179674846,0.9966582742046235
1677618692100320,-0.06683451590753053,-0.004333562218661768,0.9966582742046235
1677618692116323,-0.06585793850614197,-0.002868696116578917,0.9956816968032349
1677618692132326,-0.06671244373235696,-0.0042114900434881974,0.9922636758983749
1677618692148329,-0.06622415503166268,-0.0022583352407110624,0.9938506141756314
1677618692164332,-0.0678110933089191,-0.003479056992446772,0.9965362020294499
1677618692180336,-0.06878767071030767,-0.0042114900434881974,0.9962920576791028
1677618692196339,-0.06805523765926624,-0.0040894178683146265,0.9960479133287556
1677618692212342,-0.06793316548409267,-0.004943923094529623,0.9969024185549706
1677618692228345,-0.06646829938200982,-0.00457770656900891,0.9965362020294499
1677618692244354,-0.06768902113374553,-0.0037232013427939137,0.9950713359273671
1677618692260357,-0.06878767071030767,-0.005920500495918191,0.9955596246280614
1677618692276360,-0.0678110933089191,-0.004455634393835339,0.9928740367742428
1677618692292363,-0.06915388723582838,-0.0039673456931410556,0.9942168307011521
1677618692308366,-0.06793316548409267,-0.005188067444876765,0.9961699855039292
1677618692324370,-0.06756694895857196,-0.005310139620050336,0.9947051194018464
1677618692340373,-0.06732280460822482,-0.0037232013427939137,0.9937285420004578
1677618692356376,-0.06659037155718339,-0.004455634393835339,0.9944609750514992
1677618692372379,-0.06756694895857196,-0.0036011291676203427,0.9955596246280614
1677618692388382,-0.06744487678339839,-0.0037232013427939137,0.9948271915770199
1677618692404385,-0.06634622720683625,-0.0036011291676203427,0.9948271915770199
1677618692420388,-0.06707866025787768,-0.0039673456931410556,0.9950713359273671
1677618692436391,-0.06793316548409267,-0.0042114900434881974,0.9949492637521935
1677618692452395,-0.06744487678339839,-0.002990768291752488,0.9955596246280614
1677618692468398,-0.06683451590753053,-0.0040894178683146265,0.9961699855039292
1677618692484401,-0.06732280460822482,-0.004333562218661768,0.9936064698252842
1677618692500404,-0.0686655985351341,-0.00323491264209963,0.9931181811245899
1677618692516407,-0.0678110933089191,-0.0036011291676203427,0.9962920576791028
1677618692532410,-0.06817730983443981,-0.0039673456931410556,0.9933623254749371
1677618692548413,-0.06720073243305125,-0.0039673456931410556,0.9956816968032349
1677618692564392,-0.06732280460822482,-0.004455634393835339,0.9959258411535821
1677618692580395,-0.06707866025787768,-0.005065995269703194,0.9970244907301442
1677618692596398,-0.06744487678339839,-0.002746623941405346,0.9933623254749371
1677618692612401,-0.06768902113374553,-0.004821850919356052,0.9953154802777142
1677618692628404,-0.06878767071030767,-0.005188067444876765,0.9940947585259785
1677618692644407,-0.06720073243305125,-0.0038452735179674846,0.9958037689784085
1677618692660411,-0.06707866025787768,-0.003356984817273201,0.9943389028763256
1677618692676414,-0.06707866025787768,-0.0039673456931410556,0.9950713359273671
1677618692692417,-0.06744487678339839,-0.0039673456931410556,0.9948271915770199
1677618692708420,-0.06756694895857196,-0.00323491264209963,0.9951934081025406
1677618692724423,-0.06768902113374553,-0.0037232013427939137,0.9943389028763256
1677618692740426,-0.06671244373235696,-0.0036011291676203427,0.9956816968032349
1677618692756429,-0.06732280460822482,-0.0025024795910582043,0.9961699855039292
1677618692772432,-0.06756694895857196,-0.003112840466926059,0.9954375524528878
1677618692788436,-0.06805523765926624,-0.00457770656900891,0.9945830472266728
1677618692804439,-0.06744487678339839,-0.0037232013427939137,0.9955596246280614
1677618692820442,-0.06622415503166268,-0.0042114900434881974,0.9959258411535821
1677618692836445,-0.06805523765926624,-0.005310139620050336,0.9960479133287556
1677618692852448,-0.06756694895857196,-0.0040894178683146265,0.9950713359273671
1677618692868451,-0.0678110933089191,-0.004333562218661768,0.9940947585259785
1677618692884460,-0.0669565880827041,-0.002990768291752488,0.9950713359273671
1677618692900463,-0.0669565880827041,-0.0040894178683146265,0.9939726863508049
1677618692916466,-0.0669565880827041,-0.0038452735179674846,0.9966582742046235
1677618692932469,-0.06878767071030767,-0.003479056992446772,0.9959258411535821
1677618692948473,-0.06829938200961339,-0.004943923094529623,0.9948271915770199
1677618692964476,-0.06720073243305125,-0.004333562218661768,0.9961699855039292
1677618692980479,-0.0686655985351341,-0.0040894178683146265,0.9944609750514992
1677618692996482,-0.06683451590753053,-0.0060425726710917615,0.9944609750514992
1677618693012485,-0.06817730983443981,-0.004699778744182481,0.9926298924238957
1677618693028488,-0.06854352635996053,-0.004333562218661768,0.9969024185549706
1677618693044491,-0.06683451590753053,-0.002868696116578917,0.9967803463797971
1677618693060495,-0.0669565880827041,-0.0042114900434881974,0.9970244907301442
1677618693076498,-0.06805523765926624,-0.0025024795910582043,0.9955596246280614
1677618693092501,-0.06805523765926624,-0.0039673456931410556,0.9956816968032349
1677618693108504,-0.06732280460822482,-0.0037232013427939137,0.9955596246280614
1677618693124507,-0.0669565880827041,-0.0042114900434881974,0.9955596246280614
1677618693140510,-0.06756694895857196,-0.0042114900434881974,0.9950713359273671
1677618693156513,-0.06683451590753053,-0.005065995269703194,0.9947051194018464
1677618693172516,-0.06927595941100195,-0.005065995269703194,0.9938506141756314
1677618693188520,-0.06634622720683625,-0.00457770656900891,0.9947051194018464
1677618693204528,-0.06768902113374553,-0.0038452735179674846,0.9942168307011521
1677618693220532,-0.06805523765926624,-0.004333562218661768,0.9962920576791028
1677618693236535,-0.0669565880827041,-0.0036011291676203427,0.9925078202487221
1677618693252538,-0.06744487678339839,-0.00323491264209963,0.9949492637521935
1677618693268541,-0.06829938200961339,-0.003479056992446772,0.9965362020294499
1677618693284544,-0.06793316548409267,-0.0042114900434881974,0.9956816968032349
1677618693300547,-0.06732280460822482,-0.0039673456931410556,0.9944609750514992
1677618693316550,-0.06720073243305125,-0.005310139620050336,0.9931181811245899
1677618693332553,-0.0669565880827041,-0.003356984817273201,0.9948271915770199
1677618693348557,-0.06768902113374553,-0.00323491264209963,0.9954375524528878
1677618693364560,-0.06793316548409267,-0.0025024795910582043,0.9943389028763256
1677618693380563,-0.06744487678339839,-0.003479056992446772,0.9943389028763256
1677618693396566,-0.0669565880827041,-0.0042114900434881974,0.9973907072556649
1677618693412569,-0.0678110933089191,-0.005310139620050336,0.9944609750514992
1677618693428572,-0.06732280460822482,-0.0039673456931410556,0.9942168307011521
1677618693444575,-0.0678110933089191,-0.0036011291676203427,0.9958037689784085
1677618693460579,-0.06756694895857196,-0.0026245517662317752,0.9964141298542764
1677618693476582,-0.0669565880827041,-0.003356984817273201,0.9972686350804914
1677618693492585,-0.06720073243305125,-0.005188067444876765,0.9959258411535821
1677618693508588,-0.0678110933089191,-0.004699778744182481,0.9954375524528878
1677618693524597,-0.06829938200961339,-0.002990768291752488,0.9965362020294499
1677618693540600,-0.06805523765926624,-0.003479056992446772,0.9969024185549706
1677618693556603,-0.0678110933089191,-0.003112840466926059,0.9947051194018464
1677618693572606,-0.06671244373235696,-0.00579842832074462,0.9959258411535821
1677618693588609,-0.06878767071030767,-0.004821850919356052,0.9945830472266728
1677618693604612,-0.06768902113374553,-0.005310139620050336,0.9960479133287556
1677618693620616,-0.06622415503166268,-0.004821850919356052,0.9958037689784085
1677618693636619,-0.06671244373235696,-0.004455634393835339,0.9954375524528878
1677618693652622,-0.06817730983443981,-0.0036011291676203427,0.9956816968032349
1677618693668625,-0.06768902113374553,-0.0042114900434881974,0.9947051194018464
1677618693684628,-0.06854352635996053,-0.0036011291676203427,0.9961699855039292
1677618693700631,-0.06683451590753053,-0.005065995269703194,0.9960479133287556
1677618693716634,-0.06829938200961339,-0.0037232013427939137,0.9961699855039292
1677618693732638,-0.06805523765926624,-0.0042114900434881974,0.9956816968032349
1677618693748641,-0.06817730983443981,-0.005065995269703194,0.9923857480735485
1677618693764644,-0.06805523765926624,-0.0026245517662317752,0.9951934081025406
1677618693780647,-0.06817730983443981,-0.004699778744182481,0.9971465629053178
1677618693796650,-0.06720073243305125,-0.0039673456931410556,0.9956816968032349
1677618693812653,-0.06732280460822482,-0.0037232013427939137,0.9965362020294499
1677618693828656,-0.0686655985351341,-0.0039673456931410556,0.9937285420004578
1677618693844635,-0.06793316548409267,-0.005188067444876765,0.9958037689784085
1677618693860638,-0.06817730983443981,-0.0037232013427939137,0.9942168307011521
1677618693876641,-0.06854352635996053,-0.004821850919356052,0.9936064698252842
1677618693892644,-0.06768902113374553,-0.004333562218661768,0.9937285420004578
1677618693908647,-0.06744487678339839,-0.0038452735179674846,0.9949492637521935
1677618693924650,-0.06732280460822482,-0.004455634393835339,0.9958037689784085
1677618693940653,-0.06744487678339839,-0.0038452735179674846,0.9961699855039292
1677618693956657,-0.06878767071030767,-0.004699778744182481,0.9921416037232014
1677618693972660,-0.06768902113374553,-0.004699778744182481,0.9960479133287556
1677618693988663,-0.06842145418478696,-0.0042114900434881974,0.9971465629053178
1677618694004666,-0.06854352635996053,-0.004333562218661768,0.9962920576791028
1677618694020669,-0.06817730983443981,-0.0042114900434881974,0.9947051194018464
1677618694036672,-0.06805523765926624,-0.003356984817273201,0.9942168307011521
1677618694052675,-0.06829938200961339,-0.002746623941405346,0.9944609750514992
1677618694068678,-0.06659037155718339,-0.0042114900434881974,0.9964141298542764
1677618694084682,-0.06720073243305125,-0.0037232013427939137,0.9938506141756314
1677618694100685,-0.06732280460822482,-0.003479056992446772,0.9967803463797971
1677618694116688,-0.06817730983443981,-0.0036011291676203427,0.9940947585259785
1677618694132691,-0.06890974288548124,-0.003479056992446772,0.9945830472266728
1677618694148694,-0.06976424811169624,-0.0042114900434881974,0.9947051194018464
1677618694164703,-0.06707866025787768,-0.0026245517662317752,0.9942168307011521
1677618694180706,-0.06756694895857196,-0.0042114900434881974,0.9998321507591363
1677618694196709,-0.06842145418478696,-0.004821850919356052,0.9970244907301442
1677618694212712,-0.0678110933089191,-0.0018921187151903496,0.9940947585259785
1677618694228716,-0.06915388723582838,-0.00457770656900891,0.9931181811245899
1677618694244719,-0.06732280460822482,-0.003479056992446772,0.9964141298542764
1677618694260722,-0.06683451590753053,-0.0036011291676203427,0.9953154802777142
1677618694276725,-0.06854352635996053,-0.003112840466926059,0.9939726863508049
1677618694292728,-0.06793316548409267,-0.003479056992446772,0.9931181811245899
1677618694308731,-0.06707866025787768,-0.00457770656900891,0.9962920576791028
1677618694324734,-0.06793316548409267,-0.003479056992446772,0.9940947585259785
1677618694340737,-0.06768902113374553,-0.0036011291676203427,0.9934843976501107
1677618694356741,-0.06720073243305125,-0.003479056992446772,0.9939726863508049
1677618694372744,-0.0678110933089191,-0.0042114900434881974,0.9988555733577478
1677618694388747,-0.06793316548409267,-0.004455634393835339,0.9945830472266728
1677618694404750,-0.0678110933089191,-0.003112840466926059,0.9927519645990692
1677618694420753,-0.06634622720683625,-0.0038452735179674846,0.9949492637521935
1677618694436756,-0.06646829938200982,-0.00457770656900891,0.9975127794308385
1677618694452759,-0.06756694895857196,-0.0037232013427939137,0.9958037689784085
1677618694468762,-0.06671244373235696,-0.004455634393835339,0.9959258411535821
1677618694484771,-0.06768902113374553,-0.0040894178683146265,0.9956816968032349
1677618694500774,-0.0669565880827041,-0.0020141908903639205,0.9939726863508049
1677618694516778,-0.06756694895857196,-0.0036011291676203427,0.9973907072556649
1677618694532781,-0.0669565880827041,-0.0040894178683146265,0.9944609750514992
1677618694548784,-0.06756694895857196,-0.0038452735179674846,0.9947051194018464
1677618694564787,-0.06793316548409267,-0.003112840466926059,0.9947051194018464
1677618694580790,-0.06878767071030767,-0.004333562218661768,0.9933623254749371
1677618694596793,-0.06842145418478696,-0.00457770656900891,0.9936064698252842
1677618694612796,-0.06915388723582838,-0.004821850919356052,0.9951934081025406
1677618694628800,-0.06939803158617552,-0.0037232013427939137,0.9956816968032349
1677618694644803,-0.0669565880827041,-0.0026245517662317752,0.9965362020294499
1677618694660806,-0.06744487678339839,-0.003479056992446772,0.9964141298542764
1677618694676809,-0.0678110933089191,-0.0039673456931410556,0.9933623254749371
1677618694692812,-0.0669565880827041,-0.0036011291676203427,0.9962920576791028
1677618694708815,-0.06707866025787768,-0.0036011291676203427,0.9950713359273671
1677618694724818,-0.06805523765926624,-0.004821850919356052,0.9938506141756314
1677618694740821,-0.0678110933089191,-0.0042114900434881974,0.9927519645990692
1677618694756825,-0.06793316548409267,-0.0042114900434881974,0.9982452124818799
1677618694772828,-0.06683451590753053,-0.003112840466926059,0.9961699855039292
1677618694788831,-0.06671244373235696,-0.00457770656900891,0.9945830472266728
1677618694804809,-0.06659037155718339,-0.0036011291676203427,0.9959258411535821
1677618694820812,-0.06805523765926624,-0.0037232013427939137,0.9975127794308385
1677618694836815,-0.0678110933089191,-0.0036011291676203427,0.9990997177080949
1677618694852819,-0.06659037155718339,-0.0040894178683146265,0.9970244907301442
1677618694868822,-0.06683451590753053,-0.003479056992446772,0.9953154802777142
1677618694884825,-0.06659037155718339,-0.003356984817273201,0.9959258411535821
1677618694900828,-0.06768902113374553,-0.003479056992446772,0.9950713359273671
1677618694916831,-0.06744487678339839,-0.0042114900434881974,0.9951934081025406
1677618694932834,-0.06768902113374553,-0.005432211795223907,0.9927519645990692
1677618694948837,-0.06842145418478696,-0.004699778744182481,0.9958037689784085
1677618694964841,-0.06768902113374553,-0.004333562218661768,0.9956816968032349
1677618694980844,-0.06829938200961339,-0.0026245517662317752,0.9950713359273671
1677618694996847,-0.06585793850614197,-0.004333562218661768,0.9942168307011521
1677618695012850,-0.06768902113374553,-0.00457770656900891,0.99140917067216
1677618695028853,-0.06744487678339839,-0.004943923094529623,0.9934843976501107
1677618695044856,-0.0686655985351341,-0.0042114900434881974,0.9961699855039292
1677618695060859,-0.06854352635996053,-0.004699778744182481,0.9948271915770199
1677618695076862,-0.06720073243305125,-0.004821850919356052,0.9942168307011521
1677618695092866,-0.06720073243305125,-0.004699778744182481,0.9960479133287556
1677618695108869,-0.06744487678339839,-0.0038452735179674846,0.9936064698252842
1677618695124878,-0.06671244373235696,-0.004455634393835339,0.9953154802777142
1677618695140881,-0.06744487678339839,-0.0042114900434881974,0.9953154802777142
1677618695156884,-0.06646829938200982,-0.00323491264209963,0.9961699855039292
1677618695172887,-0.06793316548409267,-0.004455634393835339,0.9962920576791028
1677618695188890,-0.06805523765926624,-0.00457770656900891,0.9955596246280614
1677618695204893,-0.0669565880827041,-0.00457770656900891,0.9976348516060121
1677618695220896,-0.06793316548409267,-0.004821850919356052,0.9959258411535821
1677618695236899,-0.0669565880827041,-0.00457770656900891,0.9953154802777142
1677618695252903,-0.06732280460822482,-0.005432211795223907,0.9925078202487221
1677618695268906,-0.06598001068131554,-0.0038452735179674846,0.9948271915770199
1677618695284909,-0.06720073243305125,-0.0038452735179674846,0.9950713359273671
1677618695300912,-0.06768902113374553,-0.003479056992446772,0.9947051194018464
1677618695316915,-0.06854352635996053,-0.0042114900434881974,0.9940947585259785
1677618695332918,-0.06817730983443981,-0.005188067444876765,0.9966582742046235
1677618695348921,-0.0686655985351341,-0.0038452735179674846,0.9966582742046235
1677618695364925,-0.06890974288548124,-0.0026245517662317752,0.9953154802777142
1677618695380928,-0.0669565880827041,-0.005432211795223907,0.9934843976501107
1677618695396931,-0.06720073243305125,-0.0040894178683146265,0.9950713359273671
1677618695412934,-0.06756694895857196,-0.0037232013427939137,0.9965362020294499
1677618695428937,-0.06829938200961339,-0.004943923094529623,0.9928740367742428
1677618695444946,-0.06610208285648911,-0.002868696116578917,0.9937285420004578
1677618695460949,-0.06768902113374553,-0.003479056992446772,0.9969024185549706
1677618695476952,-0.0686655985351341,-0.003479056992446772,0.9950713359273671
1677618695492955,-0.06707866025787768,-0.004821850919356052,0.9947051194018464
1677618695508958,-0.06732280460822482,-0.004943923094529623,0.9938506141756314
1677618695524962,-0.06829938200961339,-0.004333562218661768,0.9947051194018464
1677618695540965,-0.06768902113374553,-0.002990768291752488,0.9961699855039292
1677618695556968,-0.06756694895857196,-0.0039673456931410556,0.9955596246280614
1677618695572971,-0.06854352635996053,-0.0040894178683146265,0.9943389028763256
1677618695588974,-0.06768902113374553,-0.005188067444876765,0.9945830472266728
1677618695604977,-0.06829938200961339,-0.005065995269703194,0.9940947585259785
1677618695620980,-0.0669565880827041,-0.0042114900434881974,0.9949492637521935
1677618695636983,-0.06720073243305125,-0.005310139620050336,0.9940947585259785
1677618695652987,-0.06744487678339839,-0.004821850919356052,0.9962920576791028
