Timestamp (microseconds),Gyro X (°/s),Gyro Y (°/s),Gyro Z (°/s)
1677618671440551,2.059967956054038,-0.015259021896667946,0.16784924086368846
1677618671456552,2.059967956054038,-0.015259021896667946,0.16784924086368846
1677618671472552,2.059967956054038,-0.045777065690117524,0.16784924086368846
1677618671488552,2.090485999847374,-0.015259021896667946,0.1373311970702389
1677618671504552,2.0294499122605885,-0.045777065690117524,0.16784924086368846
1677618671520553,2.059967956054038,0.015259021896667946,0.1373311970702389
1677618671536553,2.059967956054038,-0.015259021896667946,0.1373311970702389
1677618671552553,2.059967956054038,-0.015259021896667946,0.16784924086368846
1677618671568554,1.9989318684672526,0.015259021896667946,0.106813153276903
1677618671584554,2.059967956054038,-0.045777065690117524,0.1373311970702389
1677618671600554,2.059967956054038,-0.045777065690117524,0.19836728465702436
1677618671616554,2.0294499122605885,-0.07629510948345342,0.1373311970702389
1677618671632555,2.059967956054038,-0.045777065690117524,0.16784924086368846
1677618671648555,2.090485999847374,-0.045777065690117524,0.1373311970702389
1677618671664555,2.0294499122605885,-0.045777065690117524,0.16784924086368846
1677618671680555,1.9989318684672526,-0.045777065690117524,0.1373311970702389
1677618671696556,1.9989318684672526,-0.015259021896667946,0.1373311970702389
1677618671712556,2.0294499122605885,-0.045777065690117524,0.1373311970702389
1677618671728556,2.0294499122605885,-0.106813153276903,0.1373311970702389
1677618671744557,2.0294499122605885,-0.015259021896667946,0.16784924086368846
1677618671760589,1.9989318684672526,-0.015259021896667946,0.16784924086368846
1677618671776589,2.0294499122605885,0.045777065690117524,0.1373311970702389
1677618671792590,2.0294499122605885,0.015259021896667946,0.16784924086368846
1677618671808590,2.0294499122605885,-0.015259021896667946,0.16784924086368846
1677618671824590,2.059967956054038,0.015259021896667946,0.1373311970702389
1677618671840591,2.0294499122605885,0.015259021896667946,0.1373311970702389
1677618671856591,2.0294499122605885,0.015259021896667946,0.106813153276903
1677618671872591,2.059967956054038,-0.045777065690117524,0.1373311970702389
1677618671888591,1.9989318684672526,-0.045777065690117524,0.16784924086368846
1677618671904592,1.9989318684672526,-0.045777065690117524,0.16784924086368846
1677618671920592,2.059967956054038,-0.045777065690117524,0.1373311970702389
1677618671936592,2.059967956054038,-0.045777065690117524,0.106813153276903
1677618671952592,2.0294499122605885,-0.07629510948345342,0.106813153276903
1677618671968593,2.059967956054038,-0.015259021896667946,0.1373311970702389
1677618671984593,2.0294499122605885,-0.015259021896667946,0.16784924086368846
1677618672000593,2.0294499122605885,-0.045777065690117524,0.16784924086368846
1677618672016594,1.9989318684672526,0.015259021896667946,0.1373311970702389
1677618672032594,2.0294499122605885,-0.015259021896667946,0.19836728465702436
1677618672048594,2.0294499122605885,-0.015259021896667946,0.16784924086368846
1677618672064594,1.9989318684672526,-0.045777065690117524,0.1373311970702389
1677618672080597,2.0294499122605885,-0.015259021896667946,0.1373311970702389
1677618672096597,2.059967956054038,-0.07629510948345342,0.106813153276903
1677618672112597,2.059967956054038,-0.045777065690117524,0.16784924086368846
1677618672128597,2.0294499122605885,-0.045777065690117524,0.1373311970702389
1677618672144598,2.0294499122605885,0.07629510948345342,0.106813153276903
1677618672160598,2.0294499122605885,0.045777065690117524,0.1373311970702389
1677618672176598,1.9989318684672526,-0.015259021896667946,0.106813153276903
1677618672192598,2.059967956054038,-0.015259021896667946,0.16784924086368846
1677618672208599,2.059967956054038,-0.045777065690117524,0.19836728465702436
1677618672224599,2.0294499122605885,0.015259021896667946,0.1373311970702389
1677618672240599,2.090485999847374,0.015259021896667946,0.16784924086368846
1677618672256600,2.059967956054038,-0.015259021896667946,0.19836728465702436
1677618672272600,2.090485999847374,-0.015259021896667946,0.1373311970702389
1677618672288600,2.090485999847374,-0.015259021896667946,0.19836728465702436
1677618672304600,2.059967956054038,-0.045777065690117524,0.19836728465702436
1677618672320601,2.0294499122605885,-0.045777065690117524,0.1373311970702389
1677618672336601,2.090485999847374,-0.07629510948345342,0.16784924086368846
1677618672352601,2.090485999847374,-0.015259021896667946,0.19836728465702436
1677618672368601,2.059967956054038,-0.045777065690117524,0.16784924086368846
1677618672384602,2.059967956054038,-0.106813153276903,0.16784924086368846
1677618672400634,2.0294499122605885,-0.106813153276903,0.106813153276903
1677618672416635,2.0294499122605885,-0.07629510948345342,0.1373311970702389
1677618672432636,2.059967956054038,-0.015259021896667946,0.1373311970702389
1677618672448637,2.0294499122605885,0.015259021896667946,0.16784924086368846
1677618672464637,2.0294499122605885,-0.045777065690117524,0.16784924086368846
1677618672480638,2.0294499122605885,-0.015259021896667946,0.106813153276903
1677618672496639,1.9989318684672526,0.045777065690117524,0.106813153276903
1677618672512640,1.9989318684672526,-0.015259021896667946,0.1373311970702389
1677618672528640,2.090485999847374,-0.07629510948345342,0.16784924086368846
1677618672544641,1.9989318684672526,-0.07629510948345342,0.16784924086368846
1677618672560642,2.059967956054038,-0.015259021896667946,0.16784924086368846
1677618672576643,2.0294499122605885,-0.015259021896667946,0.19836728465702436
1677618672592643,2.059967956054038,-0.015259021896667946,0.16784924086368846
1677618672608644,2.1210040436408235,0.015259021896667946,0.1373311970702389
1677618672624645,2.059967956054038,-0.045777065690117524,0.16784924086368846
1677618672640646,2.059967956054038,-0.045777065690117524,0.1373311970702389
1677618672656646,2.090485999847374,-0.045777065690117524,0.106813153276903
1677618672672647,2.090485999847374,0.045777065690117524,0.106813153276903
1677618672688648,2.059967956054038,-0.015259021896667946,0.106813153276903
1677618672704649,2.059967956054038,-0.015259021896667946,0.106813153276903
1677618672720703,2.090485999847374,-0.015259021896667946,0.1373311970702389
1677618672736703,2.0294499122605885,-0.015259021896667946,0.07629510948345342
1677618672752704,2.059967956054038,-0.045777065690117524,0.106813153276903
1677618672768705,2.090485999847374,-0.045777065690117524,0.1373311970702389
1677618672784706,2.0294499122605885,-0.015259021896667946,0.1373311970702389
1677618672800706,2.0294499122605885,-0.045777065690117524,0.1373311970702389
1677618672816707,2.059967956054038,0.015259021896667946,0.16784924086368846
1677618672832708,2.0294499122605885,-0.015259021896667946,0.1373311970702389
1677618672848709,2.059967956054038,-0.07629510948345342,0.106813153276903
1677618672864709,2.0294499122605885,-0.045777065690117524,0.16784924086368846
1677618672880710,2.0294499122605885,0.015259021896667946,0.16784924086368846
1677618672896711,2.0294499122605885,-0.015259021896667946,0.106813153276903
1677618672912712,2.0294499122605885,-0.015259021896667946,0.07629510948345342
1677618672928712,2.059967956054038,0.015259021896667946,0.1373311970702389
1677618672944713,1.9989318684672526,-0.07629510948345342,0.1373311970702389
1677618672960714,1.9989318684672526,-0.015259021896667946,0.16784924086368846
1677618672976715,1.9989318684672526,-0.045777065690117524,0.106813153276903
1677618672992715,2.0294499122605885,0.015259021896667946,0.106813153276903
1677618673008716,2.090485999847374,0.015259021896667946,0.106813153276903
1677618673024717,2.059967956054038,-0.045777065690117524,0.1373311970702389
1677618673040771,1.9989318684672526,-0.07629510948345342,0.1373311970702389
1677618673056772,2.0294499122605885,-0.07629510948345342,0.16784924086368846
1677618673072774,2.0294499122605885,-0.045777065690117524,0.16784924086368846
1677618673088775,2.0294499122605885,-0.015259021896667946,0.19836728465702436
1677618673104776,1.968413824673803,0.015259021896667946,0.1373311970702389
1677618673120777,2.059967956054038,-0.015259021896667946,0.1373311970702389
1677618673136778,1.9989318684672526,-0.045777065690117524,0.07629510948345342
1677618673152780,2.0294499122605885,-0.07629510948345342,0.1373311970702389
1677618673168781,2.0294499122605885,-0.07629510948345342,0.1373311970702389
1677618673184782,2.0294499122605885,-0.07629510948345342,0.19836728465702436
1677618673200783,2.0294499122605885,-0.045777065690117524,0.16784924086368846
1677618673216785,2.059967956054038,0.015259021896667946,0.16784924086368846
1677618673232786,1.968413824673803,-0.015259021896667946,0.106813153276903
1677618673248787,2.0294499122605885,0.015259021896667946,0.1373311970702389
1677618673264788,2.0294499122605885,-0.07629510948345342,0.16784924086368846
1677618673280789,2.0294499122605885,-0.07629510948345342,0.16784924086368846
1677618673296791,2.059967956054038,-0.07629510948345342,0.106813153276903
1677618673312792,1.9989318684672526,-0.045777065690117524,0.1373311970702389
1677618673328793,2.090485999847374,0.045777065690117524,0.1373311970702389
1677618673344794,2.1210040436408235,-0.045777065690117524,0.106813153276903
1677618673360809,2.090485999847374,-0.045777065690117524,0.1373311970702389
1677618673376810,2.059967956054038,-0.07629510948345342,0.16784924086368846
1677618673392811,2.059967956054038,-0.045777065690117524,0.1373311970702389
1677618673408813,2.059967956054038,-0.07629510948345342,0.16784924086368846
1677618673424814,2.059967956054038,-0.015259021896667946,0.106813153276903
1677618673440815,2.090485999847374,-0.015259021896667946,0.1373311970702389
1677618673456816,2.059967956054038,-0.045777065690117524,0.1373311970702389
1677618673472818,2.059967956054038,0.015259021896667946,0.106813153276903
1677618673488819,2.090485999847374,-0.045777065690117524,0.106813153276903
1677618673504820,2.0294499122605885,-0.045777065690117524,0.106813153276903
1677618673520821,2.059967956054038,0.015259021896667946,0.16784924086368846
1677618673536822,2.059967956054038,-0.015259021896667946,0.16784924086368846
1677618673552824,2.059967956054038,-0.07629510948345342,0.1373311970702389
1677618673568825,2.059967956054038,-0.045777065690117524,0.1373311970702389
1677618673584826,2.059967956054038,-0.045777065690117524,0.1373311970702389
1677618673600827,2.059967956054038,-0.07629510948345342,0.1373311970702389
1677618673616829,2.090485999847374,-0.045777065690117524,0.106813153276903
1677618673632830,2.059967956054038,-0.07629510948345342,0.1373311970702389
1677618673648831,2.059967956054038,0.015259021896667946,0.16784924086368846
1677618673664832,2.090485999847374,-0.015259021896667946,0.16784924086368846
1677618673680847,2.090485999847374,-0.07629510948345342,0.1373311970702389
1677618673696848,2.1210040436408235,-0.045777065690117524,0.19836728465702436
1677618673712849,2.090485999847374,0.015259021896667946,0.19836728465702436
1677618673728850,2.059967956054038,-0.07629510948345342,0.19836728465702436
1677618673744852,2.059967956054038,-0.07629510948345342,0.16784924086368846
1677618673760853,2.090485999847374,0.015259021896667946,0.16784924086368846
1677618673776854,1.9989318684672526,-0.015259021896667946,0.16784924086368846
1677618673792855,2.0294499122605885,-0.045777065690117524,0.1373311970702389
1677618673808857,2.059967956054038,-0.07629510948345342,0.1373311970702389
1677618673824858,2.059967956054038,-0.045777065690117524,0.106813153276903
1677618673840859,2.1210040436408235,0.015259021896667946,0.16784924086368846
1677618673856860,2.0294499122605885,-0.045777065690117524,0.1373311970702389
1677618673872861,2.059967956054038,-0.07629510948345342,0.106813153276903
1677618673888863,2.059967956054038,-0.07629510948345342,0.1373311970702389
1677618673904864,2.090485999847374,-0.07629510948345342,0.16784924086368846
1677618673920865,2.090485999847374,0.015259021896667946,0.106813153276903
1677618673936866,2.059967956054038,-0.015259021896667946,0.1373311970702389
1677618673952868,2.1210040436408235,-0.045777065690117524,0.1373311970702389
1677618673968869,2.059967956054038,-0.015259021896667946,0.1373311970702389
1677618673984870,2.090485999847374,-0.07629510948345342,0.16784924086368846
1677618674000915,2.059967956054038,-0.045777065690117524,0.106813153276903
1677618674016916,2.059967956054038,-0.16784924086368846,0.1373311970702389
1677618674032918,2.059967956054038,-0.015259021896667946,0.16784924086368846
1677618674048919,2.059967956054038,0.015259021896667946,0.16784924086368846
1677618674064920,2.059967956054038,-0.07629510948345342,0.16784924086368846
1677618674080921,2.059967956054038,-0.045777065690117524,0.106813153276903
1677618674096922,2.0294499122605885,-0.07629510948345342,0.106813153276903
1677618674112924,2.059967956054038,-0.015259021896667946,0.16784924086368846
1677618674128925,2.0294499122605885,-0.045777065690117524,0.1373311970702389
1677618674144926,2.059967956054038,-0.07629510948345342,0.106813153276903
1677618674160927,2.059967956054038,-0.045777065690117524,0.1373311970702389
1677618674176929,2.059967956054038,-0.045777065690117524,0.19836728465702436
1677618674192930,2.059967956054038,-0.07629510948345342,0.16784924086368846
1677618674208931,2.0294499122605885,-0.106813153276903,0.106813153276903
1677618674224932,2.059967956054038,-0.045777065690117524,0.07629510948345342
1677618674240934,2.059967956054038,-0.045777065690117524,0.1373311970702389
1677618674256935,2.059967956054038,-0.07629510948345342,0.07629510948345342
1677618674272936,2.090485999847374,-0.1373311970702389,0.1373311970702389
1677618674288937,2.0294499122605885,-0.106813153276903,0.16784924086368846
1677618674304938,2.090485999847374,-0.045777065690117524,0.16784924086368846
1677618674320984,2.0294499122605885,-0.045777065690117524,0.16784924086368846
1677618674336985,2.0294499122605885,-0.07629510948345342,0.1373311970702389
1677618674352987,1.9989318684672526,-0.015259021896667946,0.1373311970702389
1677618674368989,2.059967956054038,-0.045777065690117524,0.16784924086368846
1677618674384990,2.059967956054038,-0.1373311970702389,0.16784924086368846
1677618674400992,2.090485999847374,-0.07629510948345342,0.16784924086368846
1677618674416994,2.059967956054038,-0.015259021896667946,0.106813153276903
1677618674432995,2.0294499122605885,-0.045777065690117524,0.106813153276903
1677618674448997,2.059967956054038,-0.045777065690117524,0.106813153276903
1677618674464999,2.0294499122605885,-0.07629510948345342,0.1373311970702389
1677618674481001,2.059967956054038,-0.015259021896667946,0.1373311970702389
1677618674497002,2.090485999847374,0.015259021896667946,0.16784924086368846
1677618674513004,2.090485999847374,-0.015259021896667946,0.1373311970702389
1677618674529006,2.059967956054038,-0.015259021896667946,0.106813153276903
1677618674545007,2.059967956054038,0.015259021896667946,0.1373311970702389
1677618674561009,2.0294499122605885,0.015259021896667946,0.16784924086368846
1677618674577011,1.9989318684672526,-0.015259021896667946,0.19836728465702436
1677618674593012,2.0294499122605885,-0.045777065690117524,0.16784924086368846
1677618674609014,2.059967956054038,-0.045777065690117524,0.16784924086368846
1677618674625016,2.059967956054038,-0.015259021896667946,0.1373311970702389
1677618674641021,2.090485999847374,-0.015259021896667946,0.106813153276903
1677618674657023,2.059967956054038,0.015259021896667946,0.106813153276903
1677618674673025,2.1210040436408235,-0.045777065690117524,0.07629510948345342
1677618674689026,2.059967956054038,-0.015259021896667946,0.106813153276903
1677618674705028,2.0294499122605885,-0.045777065690117524,0.1373311970702389
1677618674721030,1.9989318684672526,-0.045777065690117524,0.1373311970702389
1677618674737032,2.090485999847374,-0.015259021896667946,0.16784924086368846
1677618674753033,2.090485999847374,-0.015259021896667946,0.1373311970702389
1677618674769035,2.059967956054038,-0.07629510948345342,0.16784924086368846
1677618674785037,2.0294499122605885,-0.07629510948345342,0.16784924086368846
1677618674801038,1.9989318684672526,-0.07629510948345342,0.16784924086368846
1677618674817040,2.090485999847374,-0.07629510948345342,0.1373311970702389
1677618674833042,2.059967956054038,-0.045777065690117524,0.07629510948345342
1677618674849043,2.1515220874341594,-0.015259021896667946,0.106813153276903
1677618674865045,2.0294499122605885,-0.07629510948345342,0.1373311970702389
1677618674881047,2.090485999847374,-0.045777065690117524,0.16784924086368846
1677618674897049,2.059967956054038,-0.07629510948345342,0.16784924086368846
1677618674913050,2.0294499122605885,-0.106813153276903,0.1373311970702389
1677618674929052,2.059967956054038,-0.045777065690117524,0.07629510948345342
1677618674945054,2.1210040436408235,-0.015259021896667946,0.1373311970702389
1677618674961090,2.0294499122605885,-0.045777065690117524,0.16784924086368846
1677618674977091,1.9989318684672526,-0.106813153276903,0.16784924086368846
1677618674993093,2.059967956054038,-0.1373311970702389,0.1373311970702389
1677618675009095,2.059967956054038,-0.015259021896667946,0.16784924086368846
1677618675025097,1.9989318684672526,0.015259021896667946,0.106813153276903
1677618675041098,2.059967956054038,-0.07629510948345342,0.1373311970702389
1677618675057100,2.0294499122605885,-0.015259021896667946,0.19836728465702436
1677618675073102,2.090485999847374,-0.015259021896667946,0.16784924086368846
1677618675089103,1.968413824673803,-0.045777065690117524,0.1373311970702389
1677618675105105,1.968413824673803,-0.045777065690117524,0.106813153276903
1677618675121107,2.059967956054038,-0.015259021896667946,0.16784924086368846
1677618675137108,2.059967956054038,-0.045777065690117524,0.16784924086368846
1677618675153110,2.059967956054038,-0.015259021896667946,0.1373311970702389
1677618675169112,2.059967956054038,-0.015259021896667946,0.16784924086368846
1677618675185114,2.059967956054038,-0.045777065690117524,0.1373311970702389
1677618675201115,2.0294499122605885,-0.015259021896667946,0.16784924086368846
1677618675217117,2.059967956054038,-0.045777065690117524,0.1373311970702389
1677618675233119,2.0294499122605885,-0.106813153276903,0.16784924086368846
1677618675249120,2.090485999847374,-0.07629510948345342,0.1373311970702389
1677618675265122,2.059967956054038,-0.07629510948345342,0.16784924086368846
1677618675281158,2.0294499122605885,-0.045777065690117524,0.16784924086368846
1677618675297160,2.0294499122605885,-0.106813153276903,0.16784924086368846
1677618675313161,1.9989318684672526,-0.045777065690117524,0.1373311970702389
1677618675329163,2.0294499122605885,-0.015259021896667946,0.16784924086368846
1677618675345165,2.0294499122605885,-0.045777065690117524,0.16784924086368846
1677618675361167,1.9989318684672526,-0.07629510948345342,0.1373311970702389
1677618675377168,2.0294499122605885,-0.045777065690117524,0.1373311970702389
1677618675393170,2.0294499122605885,-0.045777065690117524,0.1373311970702389
1677618675409172,2.090485999847374,-0.07629510948345342,0.16784924086368846
1677618675425173,2.090485999847374,-0.045777065690117524,0.07629510948345342
1677618675441175,2.059967956054038,-0.015259021896667946,0.16784924086368846
1677618675457177,2.0294499122605885,-0.045777065690117524,0.106813153276903
1677618675473178,2.059967956054038,-0.015259021896667946,0.106813153276903
1677618675489180,2.090485999847374,-0.045777065690117524,0.1373311970702389
1677618675505182,2.090485999847374,-0.045777065690117524,0.1373311970702389
1677618675521184,2.0294499122605885,0.015259021896667946,0.16784924086368846
1677618675537185,2.0294499122605885,-0.045777065690117524,0.1373311970702389
1677618675553187,2.0294499122605885,-0.045777065690117524,0.1373311970702389
1677618675569189,2.059967956054038,-0.1373311970702389,0.1373311970702389
1677618675585190,2.090485999847374,-0.045777065690117524,0.1373311970702389
1677618675601226,2.0294499122605885,-0.015259021896667946,0.1373311970702389
1677618675617229,2.0294499122605885,-0.045777065690117524,0.1373311970702389
1677618675633231,2.0294499122605885,-0.07629510948345342,0.1373311970702389
1677618675649233,2.059967956054038,-0.045777065690117524,0.16784924086368846
1677618675665235,2.090485999847374,-0.015259021896667946,0.16784924086368846
1677618675681237,2.0294499122605885,-0.07629510948345342,0.1373311970702389
1677618675697240,2.0294499122605885,-0.106813153276903,0.16784924086368846
1677618675713242,2.059967956054038,-0.015259021896667946,0.106813153276903
1677618675729244,2.0294499122605885,-0.045777065690117524,0.106813153276903
1677618675745246,2.059967956054038,-0.045777065690117524,0.16784924086368846
1677618675761248,2.0294499122605885,-0.07629510948345342,0.1373311970702389
1677618675777250,2.090485999847374,-0.07629510948345342,0.16784924086368846
1677618675793253,2.059967956054038,-0.045777065690117524,0.1373311970702389
1677618675809255,1.9989318684672526,-0.07629510948345342,0.106813153276903
1677618675825257,2.059967956054038,-0.07629510948345342,0.106813153276903
1677618675841259,2.059967956054038,-0.045777065690117524,0.106813153276903
1677618675857261,1.9989318684672526,-0.015259021896667946,0.1373311970702389
1677618675873263,2.059967956054038,-0.045777065690117524,0.106813153276903
1677618675889266,2.090485999847374,-0.07629510948345342,0.106813153276903
1677618675905268,2.090485999847374,-0.045777065690117524,0.07629510948345342
1677618675921264,2.0294499122605885,-0.045777065690117524,0.07629510948345342
1677618675937266,2.0294499122605885,-0.015259021896667946,0.1373311970702389
1677618675953269,2.0294499122605885,-0.045777065690117524,0.16784924086368846
1677618675969271,2.059967956054038,-0.015259021896667946,0.1373311970702389
1677618675985273,2.0294499122605885,-0.015259021896667946,0.16784924086368846
1677618676001275,2.0294499122605885,-0.015259021896667946,0.07629510948345342
1677618676017277,2.0294499122605885,-0.015259021896667946,0.106813153276903
1677618676033280,2.0294499122605885,-0.045777065690117524,0.16784924086368846
1677618676049282,2.090485999847374,-0.045777065690117524,0.19836728465702436
1677618676065284,2.059967956054038,-0.045777065690117524,0.16784924086368846
1677618676081286,2.0294499122605885,-0.07629510948345342,0.1373311970702389
1677618676097288,2.059967956054038,-0.07629510948345342,0.1373311970702389
1677618676113290,2.059967956054038,-0.07629510948345342,0.106813153276903
1677618676129293,2.1210040436408235,-0.106813153276903,0.106813153276903
1677618676145295,2.090485999847374,-0.106813153276903,0.16784924086368846
1677618676161297,2.090485999847374,-0.07629510948345342,0.16784924086368846
1677618676177299,2.090485999847374,-0.07629510948345342,0.1373311970702389
1677618676193301,2.0294499122605885,-0.106813153276903,0.16784924086368846
1677618676209303,2.0294499122605885,-0.045777065690117524,0.19836728465702436
1677618676225306,2.059967956054038,-0.015259021896667946,0.16784924086368846
1677618676241333,2.059967956054038,-0.015259021896667946,0.1373311970702389
1677618676257335,2.0294499122605885,-0.045777065690117524,0.16784924086368846
1677618676273337,2.0294499122605885,-0.045777065690117524,0.19836728465702436
1677618676289339,2.0294499122605885,-0.07629510948345342,0.1373311970702389
1677618676305341,2.059967956054038,-0.015259021896667946,0.106813153276903
1677618676321344,2.090485999847374,-0.045777065690117524,0.106813153276903
1677618676337346,2.0294499122605885,-0.07629510948345342,0.1373311970702389
1677618676353348,2.090485999847374,-0.015259021896667946,0.1373311970702389
1677618676369350,2.090485999847374,-0.015259021896667946,0.1373311970702389
1677618676385352,2.090485999847374,-0.045777065690117524,0.19836728465702436
1677618676401354,2.090485999847374,-0.045777065690117524,0.16784924086368846
1677618676417357,2.0294499122605885,-0.07629510948345342,0.106813153276903
1677618676433359,2.0294499122605885,-0.07629510948345342,0.07629510948345342
1677618676449361,2.090485999847374,-0.015259021896667946,0.106813153276903
1677618676465363,2.059967956054038,-0.045777065690117524,0.16784924086368846
1677618676481365,1.9989318684672526,-0.045777065690117524,0.1373311970702389
1677618676497367,2.059967956054038,-0.045777065690117524,0.16784924086368846
1677618676513370,2.0294499122605885,-0.045777065690117524,0.16784924086368846
1677618676529372,2.090485999847374,-0.07629510948345342,0.106813153276903
1677618676545374,2.0294499122605885,-0.045777065690117524,0.106813153276903
1677618676561401,2.059967956054038,-0.045777065690117524,0.1373311970702389
1677618676577403,2.059967956054038,-0.015259021896667946,0.1373311970702389
1677618676593405,2.059967956054038,-0.045777065690117524,0.1373311970702389
1677618676609408,2.059967956054038,-0.07629510948345342,0.1373311970702389
1677618676625410,2.090485999847374,-0.015259021896667946,0.106813153276903
1677618676641412,2.0294499122605885,-0.045777065690117524,0.106813153276903
1677618676657414,2.059967956054038,0.015259021896667946,0.1373311970702389
1677618676673416,2.0294499122605885,-0.045777065690117524,0.106813153276903
1677618676689418,2.0294499122605885,-0.015259021896667946,0.106813153276903
1677618676705421,2.0294499122605885,0.015259021896667946,0.16784924086368846
1677618676721423,2.0294499122605885,-0.07629510948345342,0.19836728465702436
1677618676737425,2.0294499122605885,-0.015259021896667946,0.1373311970702389
1677618676753427,2.0294499122605885,-0.045777065690117524,0.106813153276903
1677618676769429,2.059967956054038,-0.015259021896667946,0.07629510948345342
1677618676785431,2.059967956054038,-0.045777065690117524,0.106813153276903
1677618676801434,2.1210040436408235,-0.106813153276903,0.106813153276903
1677618676817436,2.059967956054038,-0.045777065690117524,0.16784924086368846
1677618676833438,2.090485999847374,-0.045777065690117524,0.106813153276903
1677618676849440,2.059967956054038,-0.1373311970702389,0.106813153276903
1677618676865442,1.9989318684672526,-0.106813153276903,0.1373311970702389
1677618676881469,1.9989318684672526,-0.045777065690117524,0.1373311970702389
1677618676897472,2.0294499122605885,0.015259021896667946,0.1373311970702389
1677618676913474,2.0294499122605885,-0.07629510948345342,0.106813153276903
1677618676929476,2.0294499122605885,-0.015259021896667946,0.106813153276903
1677618676945478,2.090485999847374,-0.015259021896667946,0.106813153276903
1677618676961480,2.0294499122605885,-0.045777065690117524,0.106813153276903
1677618676977482,2.090485999847374,-0.045777065690117524,0.16784924086368846
1677618676993485,2.0294499122605885,-0.045777065690117524,0.1373311970702389
1677618677009487,2.090485999847374,-0.015259021896667946,0.1373311970702389
1677618677025489,2.0294499122605885,0.015259021896667946,0.1373311970702389
1677618677041491,1.9989318684672526,-0.015259021896667946,0.1373311970702389
1677618677057493,2.0294499122605885,-0.045777065690117524,0.1373311970702389
1677618677073495,2.059967956054038,-0.015259021896667946,0.1373311970702389
1677618677089498,2.059967956054038,0.015259021896667946,0.106813153276903
1677618677105500,2.090485999847374,-0.015259021896667946,0.1373311970702389
1677618677121502,2.059967956054038,-0.045777065690117524,0.1373311970702389
1677618677137504,2.0294499122605885,0.015259021896667946,0.1373311970702389
1677618677153506,2.0294499122605885,-0.015259021896667946,0.1373311970702389
1677618677169509,2.0294499122605885,-0.045777065690117524,0.16784924086368846
1677618677185511,1.9989318684672526,-0.045777065690117524,0.16784924086368846
1677618677201507,1.9989318684672526,0.015259021896667946,0.16784924086368846
1677618677217509,1.9989318684672526,-0.015259021896667946,0.16784924086368846
1677618677233512,1.9989318684672526,-0.045777065690117524,0.16784924086368846
1677618677249514,2.059967956054038,-0.045777065690117524,0.106813153276903
1677618677265516,2.059967956054038,0.015259021896667946,0.16784924086368846
1677618677281518,2.1210040436408235,-0.045777065690117524,0.16784924086368846
1677618677297520,2.090485999847374,-0.015259021896667946,0.106813153276903
1677618677313522,2.059967956054038,-0.015259021896667946,0.1373311970702389
1677618677329525,2.059967956054038,-0.015259021896667946,0.1373311970702389
1677618677345527,2.090485999847374,-0.045777065690117524,0.1373311970702389
1677618677361529,2.059967956054038,-0.07629510948345342,0.1373311970702389
1677618677377531,2.059967956054038,-0.045777065690117524,0.1373311970702389
1677618677393533,2.059967956054038,-0.045777065690117524,0.1373311970702389
1677618677409536,2.0294499122605885,-0.015259021896667946,0.1373311970702389
1677618677425538,1.9989318684672526,-0.045777065690117524,0.19836728465702436
1677618677441540,2.059967956054038,-0.045777065690117524,0.16784924086368846
1677618677457542,2.0294499122605885,-0.015259021896667946,0.106813153276903
1677618677473544,2.059967956054038,-0.045777065690117524,0.106813153276903
1677618677489546,2.0294499122605885,-0.015259021896667946,0.16784924086368846
1677618677505549,2.1210040436408235,-0.045777065690117524,0.106813153276903
1677618677521576,2.090485999847374,-0.045777065690117524,0.106813153276903
1677618677537578,2.090485999847374,-0.015259021896667946,0.106813153276903
1677618677553580,2.059967956054038,-0.07629510948345342,0.106813153276903
1677618677569582,2.059967956054038,-0.07629510948345342,0.1373311970702389
1677618677585584,2.090485999847374,-0.015259021896667946,0.1373311970702389
1677618677601586,2.059967956054038,-0.015259021896667946,0.1373311970702389
1677618677617589,2.0294499122605885,-0.1373311970702389,0.1373311970702389
1677618677633591,2.090485999847374,-0.07629510948345342,0.16784924086368846
1677618677649593,2.1210040436408235,-0.015259021896667946,0.1373311970702389
1677618677665595,2.0294499122605885,-0.045777065690117524,0.16784924086368846
1677618677681597,2.059967956054038,-0.045777065690117524,0.1373311970702389
1677618677697600,2.090485999847374,-0.07629510948345342,0.106813153276903
1677618677713602,2.059967956054038,-0.106813153276903,0.1373311970702389
1677618677729604,2.059967956054038,-0.07629510948345342,0.1373311970702389
1677618677745606,2.0294499122605885,-0.015259021896667946,0.1373311970702389
1677618677761608,2.0294499122605885,-0.07629510948345342,0.1373311970702389
1677618677777610,2.059967956054038,-0.07629510948345342,0.19836728465702436
1677618677793613,2.059967956054038,-0.045777065690117524,0.16784924086368846
1677618677809615,2.059967956054038,-0.015259021896667946,0.1373311970702389
1677618677825617,2.059967956054038,-0.045777065690117524,0.1373311970702389
1677618677841644,2.0294499122605885,-0.045777065690117524,0.16784924086368846
1677618677857647,2.0294499122605885,-0.07629510948345342,0.19836728465702436
1677618677873649,2.0294499122605885,-0.045777065690117524,0.16784924086368846
1677618677889652,2.059967956054038,-0.07629510948345342,0.16784924086368846
1677618677905655,2.0294499122605885,-0.045777065690117524,0.16784924086368846
1677618677921657,1.9989318684672526,-0.106813153276903,0.19836728465702436
1677618677937660,1.968413824673803,-0.07629510948345342,0.1373311970702389
1677618677953662,1.9989318684672526,-0.045777065690117524,0.1373311970702389
1677618677969665,2.059967956054038,-0.07629510948345342,0.106813153276903
1677618677985668,2.059967956054038,-0.045777065690117524,0.106813153276903
1677618678001670,2.0294499122605885,-0.106813153276903,0.1373311970702389
1677618678017673,2.1210040436408235,-0.106813153276903,0.106813153276903
1677618678033676,2.0294499122605885,-0.045777065690117524,0.16784924086368846
1677618678049678,1.968413824673803,-0.045777065690117524,0.19836728465702436
1677618678065681,1.9989318684672526,-0.045777065690117524,0.16784924086368846
1677618678081684,1.968413824673803,-0.045777065690117524,0.1373311970702389
1677618678097686,2.059967956054038,-0.015259021896667946,0.1373311970702389
1677618678113689,2.090485999847374,-0.015259021896667946,0.1373311970702389
1677618678129692,2.0294499122605885,-0.045777065690117524,0.1373311970702389
1677618678145694,2.0294499122605885,-0.07629510948345342,0.1373311970702389
1677618678161712,2.0294499122605885,-0.015259021896667946,0.1373311970702389
1677618678177715,2.059967956054038,-0.045777065690117524,0.1373311970702389
1677618678193718,2.059967956054038,-0.045777065690117524,0.16784924086368846
1677618678209720,2.0294499122605885,-0.045777065690117524,0.16784924086368846
1677618678225723,2.059967956054038,-0.106813153276903,0.1373311970702389
1677618678241726,2.059967956054038,-0.07629510948345342,0.16784924086368846
1677618678257728,2.059967956054038,-0.045777065690117524,0.1373311970702389
1677618678273731,2.059967956054038,-0.07629510948345342,0.106813153276903
1677618678289734,2.0294499122605885,-0.045777065690117524,0.1373311970702389
1677618678305736,2.0294499122605885,-0.045777065690117524,0.1373311970702389
1677618678321739,2.0294499122605885,-0.015259021896667946,0.1373311970702389
1677618678337741,2.090485999847374,-0.07629510948345342,0.1373311970702389
1677618678353744,2.059967956054038,-0.015259021896667946,0.1373311970702389
1677618678369747,2.090485999847374,-0.015259021896667946,0.1373311970702389
1677618678385749,1.9989318684672526,-0.045777065690117524,0.1373311970702389
1677618678401752,2.059967956054038,-0.045777065690117524,0.106813153276903
1677618678417755,2.059967956054038,-0.045777065690117524,0.106813153276903
1677618678433757,2.0294499122605885,-0.045777065690117524,0.16784924086368846
1677618678449760,2.059967956054038,-0.045777065690117524,0.16784924086368846
1677618678465763,1.9989318684672526,-0.045777065690117524,0.19836728465702436
1677618678481750,2.090485999847374,-0.07629510948345342,0.16784924086368846
1677618678497753,2.059967956054038,-0.045777065690117524,0.16784924086368846
1677618678513755,1.9989318684672526,-0.07629510948345342,0.106813153276903
1677618678529758,2.0294499122605885,-0.015259021896667946,0.1373311970702389
1677618678545761,2.059967956054038,-0.015259021896667946,0.106813153276903
1677618678561763,2.059967956054038,-0.015259021896667946,0.106813153276903
1677618678577766,2.0294499122605885,-0.106813153276903,0.106813153276903
1677618678593769,2.059967956054038,-0.07629510948345342,0.16784924086368846
1677618678609771,2.059967956054038,-0.045777065690117524,0.106813153276903
1677618678625774,2.0294499122605885,-0.015259021896667946,0.16784924086368846
1677618678641777,2.0294499122605885,-0.07629510948345342,0.19836728465702436
1677618678657779,2.059967956054038,-0.045777065690117524,0.16784924086368846
1677618678673782,2.0294499122605885,-0.07629510948345342,0.1373311970702389
1677618678689785,2.1210040436408235,-0.07629510948345342,0.1373311970702389
1677618678705787,2.090485999847374,-0.106813153276903,0.106813153276903
1677618678721790,2.059967956054038,-0.07629510948345342,0.1373311970702389
1677618678737793,2.0294499122605885,-0.045777065690117524,0.16784924086368846
1677618678753795,2.0294499122605885,0.015259021896667946,0.16784924086368846
1677618678769798,2.059967956054038,-0.07629510948345342,0.1373311970702389
1677618678785801,2.059967956054038,-0.1373311970702389,0.16784924086368846
1677618678801818,2.059967956054038,-0.07629510948345342,0.16784924086368846
1677618678817821,2.059967956054038,-0.015259021896667946,0.1373311970702389
1677618678833824,2.059967956054038,-0.015259021896667946,0.07629510948345342
1677618678849826,2.059967956054038,-0.015259021896667946,0.1373311970702389
1677618678865829,2.0294499122605885,-0.045777065690117524,0.16784924086368846
1677618678881832,1.9989318684672526,0.015259021896667946,0.19836728465702436
1677618678897834,2.059967956054038,-0.015259021896667946,0.16784924086368846
1677618678913837,2.090485999847374,-0.07629510948345342,0.1373311970702389
1677618678929840,2.090485999847374,-0.015259021896667946,0.1373311970702389
1677618678945842,2.090485999847374,0.015259021896667946,0.1373311970702389
1677618678961845,2.0294499122605885,-0.015259021896667946,0.106813153276903
1677618678977848,2.059967956054038,0.015259021896667946,0.106813153276903
1677618678993850,2.059967956054038,-0.015259021896667946,0.1373311970702389
1677618679009853,2.090485999847374,-0.015259021896667946,0.16784924086368846
1677618679025856,2.090485999847374,-0.045777065690117524,0.1373311970702389
1677618679041858,2.059967956054038,-0.015259021896667946,0.16784924086368846
1677618679057861,2.090485999847374,-0.045777065690117524,0.16784924086368846
1677618679073864,2.090485999847374,-0.045777065690117524,0.1373311970702389
1677618679089866,2.0294499122605885,0.015259021896667946,0.106813153276903
1677618679105869,2.059967956054038,-0.015259021896667946,0.16784924086368846
1677618679121887,2.090485999847374,-0.015259021896667946,0.16784924086368846
1677618679137889,1.9989318684672526,0.015259021896667946,0.19836728465702436
1677618679153892,2.0294499122605885,0.015259021896667946,0.19836728465702436
1677618679169895,2.0294499122605885,-0.015259021896667946,0.16784924086368846
1677618679185897,2.059967956054038,-0.015259021896667946,0.106813153276903
1677618679201900,2.090485999847374,-0.015259021896667946,0.1373311970702389
1677618679217903,2.059967956054038,-0.045777065690117524,0.19836728465702436
1677618679233905,2.059967956054038,-0.015259021896667946,0.16784924086368846
1677618679249908,2.090485999847374,0.015259021896667946,0.16784924086368846
1677618679265911,2.059967956054038,-0.045777065690117524,0.16784924086368846
1677618679281913,2.0294499122605885,-0.045777065690117524,0.106813153276903
1677618679297916,1.9989318684672526,-0.015259021896667946,0.045777065690117524
1677618679313919,2.0294499122605885,0.015259021896667946,0.1373311970702389
1677618679329921,1.9989318684672526,-0.015259021896667946,0.07629510948345342
1677618679345924,2.059967956054038,-0.045777065690117524,0.106813153276903
1677618679361927,2.0294499122605885,-0.07629510948345342,0.1373311970702389
1677618679377929,2.059967956054038,-0.015259021896667946,0.19836728465702436
1677618679393932,2.0294499122605885,-0.015259021896667946,0.1373311970702389
1677618679409935,2.090485999847374,0.015259021896667946,0.16784924086368846
1677618679425937,2.059967956054038,-0.045777065690117524,0.1373311970702389
1677618679441925,2.1210040436408235,-0.015259021896667946,0.1373311970702389
1677618679457927,2.059967956054038,-0.045777065690117524,0.1373311970702389
1677618679473930,2.059967956054038,-0.015259021896667946,0.1373311970702389
1677618679489933,2.0294499122605885,0.015259021896667946,0.1373311970702389
1677618679505935,2.090485999847374,-0.045777065690117524,0.16784924086368846
1677618679521938,2.0294499122605885,-0.045777065690117524,0.16784924086368846
1677618679537941,2.059967956054038,-0.07629510948345342,0.16784924086368846
1677618679553943,2.059967956054038,-0.07629510948345342,0.16784924086368846
1677618679569946,2.0294499122605885,-0.07629510948345342,0.16784924086368846
1677618679585949,2.059967956054038,-0.045777065690117524,0.1373311970702389
1677618679601951,2.059967956054038,0.045777065690117524,0.07629510948345342
1677618679617954,1.9989318684672526,-0.015259021896667946,0.106813153276903
1677618679633957,2.0294499122605885,-0.045777065690117524,0.1373311970702389
1677618679649959,2.0294499122605885,-0.015259021896667946,0.19836728465702436
1677618679665962,1.9989318684672526,-0.015259021896667946,0.16784924086368846
1677618679681964,2.0294499122605885,-0.015259021896667946,0.16784924086368846
1677618679697967,2.090485999847374,-0.015259021896667946,0.1373311970702389
1677618679713970,2.0294499122605885,-0.015259021896667946,0.1373311970702389
1677618679729972,2.0294499122605885,-0.015259021896667946,0.1373311970702389
1677618679745975,2.059967956054038,0.015259021896667946,0.045777065690117524
1677618679761993,2.059967956054038,-0.015259021896667946,0.106813153276903
1677618679777996,2.059967956054038,-0.015259021896667946,0.106813153276903
1677618679793998,2.0294499122605885,-0.045777065690117524,0.16784924086368846
1677618679810001,1.9989318684672526,-0.07629510948345342,0.1373311970702389
1677618679826004,1.9989318684672526,-0.07629510948345342,0.1373311970702389
1677618679842006,1.9989318684672526,0.015259021896667946,0.16784924086368846
1677618679858009,2.0294499122605885,0.015259021896667946,0.16784924086368846
1677618679874012,1.9989318684672526,-0.045777065690117524,0.16784924086368846
1677618679890014,1.9989318684672526,-0.045777065690117524,0.106813153276903
1677618679906017,2.0294499122605885,-0.07629510948345342,0.106813153276903
1677618679922020,2.1210040436408235,-0.07629510948345342,0.1373311970702389
1677618679938022,2.0294499122605885,-0.015259021896667946,0.16784924086368846
1677618679954025,2.059967956054038,-0.015259021896667946,0.1373311970702389
1677618679970028,2.059967956054038,-0.015259021896667946,0.16784924086368846
1677618679986030,2.059967956054038,-0.015259021896667946,0.19836728465702436
1677618680002033,2.0294499122605885,-0.045777065690117524,0.1373311970702389
1677618680018036,2.059967956054038,-0.07629510948345342,0.1373311970702389
1677618680034038,2.0294499122605885,-0.045777065690117524,0.16784924086368846
1677618680050041,2.0294499122605885,0.015259021896667946,0.19836728465702436
1677618680066043,1.9989318684672526,-0.015259021896667946,0.16784924086368846
1677618680082031,1.9989318684672526,-0.045777065690117524,0.1373311970702389
1677618680098034,2.0294499122605885,-0.045777065690117524,0.16784924086368846
1677618680114036,2.059967956054038,-0.015259021896667946,0.19836728465702436
1677618680130039,2.0294499122605885,0.015259021896667946,0.07629510948345342
1677618680146041,2.0294499122605885,-0.015259021896667946,0.106813153276903
1677618680162044,2.090485999847374,0.045777065690117524,0.16784924086368846
1677618680178047,2.0294499122605885,-0.045777065690117524,0.19836728465702436
1677618680194049,2.059967956054038,-0.07629510948345342,0.22888532845047393
1677618680210052,2.059967956054038,-0.045777065690117524,0.19836728465702436
1677618680226055,2.090485999847374,-0.045777065690117524,0.16784924086368846
1677618680242057,2.1210040436408235,-0.015259021896667946,0.16784924086368846
1677618680258060,2.090485999847374,-0.015259021896667946,0.16784924086368846
1677618680274063,2.0294499122605885,-0.07629510948345342,0.16784924086368846
1677618680290065,2.0294499122605885,-0.07629510948345342,0.1373311970702389
1677618680306068,2.0294499122605885,-0.045777065690117524,0.1373311970702389
1677618680322071,2.0294499122605885,-0.045777065690117524,0.1373311970702389
1677618680338073,2.0294499122605885,0.015259021896667946,0.19836728465702436
1677618680354076,2.059967956054038,-0.045777065690117524,0.16784924086368846
1677618680370079,2.090485999847374,-0.07629510948345342,0.16784924086368846
1677618680386081,2.059967956054038,-0.045777065690117524,0.22888532845047393
1677618680402099,2.059967956054038,-0.015259021896667946,0.19836728465702436
1677618680418102,1.9989318684672526,-0.045777065690117524,0.19836728465702436
1677618680434105,2.090485999847374,-0.07629510948345342,0.19836728465702436
1677618680450107,2.1210040436408235,0.045777065690117524,0.19836728465702436
1677618680466110,2.059967956054038,0.015259021896667946,0.19836728465702436
1677618680482113,2.059967956054038,-0.015259021896667946,0.1373311970702389
1677618680498115,2.0294499122605885,0.015259021896667946,0.1373311970702389
1677618680514118,2.0294499122605885,0.015259021896667946,0.106813153276903
1677618680530120,2.0294499122605885,-0.045777065690117524,0.16784924086368846
1677618680546123,1.9989318684672526,-0.015259021896667946,0.106813153276903
1677618680562126,2.090485999847374,-0.015259021896667946,0.106813153276903
1677618680578128,2.059967956054038,-0.07629510948345342,0.16784924086368846
1677618680594131,1.9989318684672526,-0.07629510948345342,0.106813153276903
1677618680610134,1.9989318684672526,-0.07629510948345342,0.1373311970702389
1677618680626136,2.059967956054038,-0.045777065690117524,0.1373311970702389
1677618680642139,2.059967956054038,-0.045777065690117524,0.106813153276903
1677618680658142,2.0294499122605885,-0.045777065690117524,0.106813153276903
1677618680674144,1.9989318684672526,-0.045777065690117524,0.106813153276903
1677618680690147,2.090485999847374,-0.045777065690117524,0.16784924086368846
1677618680706150,2.059967956054038,-0.045777065690117524,0.106813153276903
1677618680722168,2.059967956054038,-0.045777065690117524,0.16784924086368846
1677618680738170,1.9989318684672526,-0.07629510948345342,0.16784924086368846
1677618680754173,2.059967956054038,-0.045777065690117524,0.16784924086368846
1677618680770176,2.059967956054038,-0.015259021896667946,0.106813153276903
1677618680786178,2.0294499122605885,-0.015259021896667946,0.1373311970702389
1677618680802181,2.059967956054038,-0.015259021896667946,0.16784924086368846
1677618680818184,2.059967956054038,-0.015259021896667946,0.16784924086368846
1677618680834186,2.0294499122605885,-0.045777065690117524,0.1373311970702389
1677618680850189,2.0294499122605885,-0.045777065690117524,0.16784924086368846
1677618680866191,2.0294499122605885,-0.045777065690117524,0.22888532845047393
1677618680882194,2.090485999847374,-0.106813153276903,0.19836728465702436
1677618680898197,2.090485999847374,-0.045777065690117524,0.106813153276903
1677618680914199,2.0294499122605885,0.015259021896667946,0.1373311970702389
1677618680930202,2.059967956054038,0.015259021896667946,0.106813153276903
1677618680946205,2.059967956054038,-0.07629510948345342,0.106813153276903
1677618680962207,2.059967956054038,-0.045777065690117524,0.1373311970702389
1677618680978210,2.059967956054038,-0.045777065690117524,0.19836728465702436
1677618680994213,2.1515220874341594,-0.045777065690117524,0.16784924086368846
1677618681010215,2.1210040436408235,-0.07629510948345342,0.22888532845047393
1677618681026218,2.059967956054038,-0.045777065690117524,0.16784924086368846
1677618681042205,2.090485999847374,0.045777065690117524,0.16784924086368846
1677618681058208,2.059967956054038,-0.045777065690117524,0.07629510948345342
1677618681074211,2.090485999847374,-0.07629510948345342,0.16784924086368846
1677618681090213,2.0294499122605885,-0.015259021896667946,0.1373311970702389
1677618681106216,2.090485999847374,-0.07629510948345342,0.16784924086368846
1677618681122219,2.059967956054038,-0.07629510948345342,0.16784924086368846
1677618681138221,2.059967956054038,-0.045777065690117524,0.1373311970702389
1677618681154224,2.0294499122605885,-0.045777065690117524,0.106813153276903
1677618681170227,2.0294499122605885,-0.07629510948345342,0.1373311970702389
1677618681186229,2.0294499122605885,0.015259021896667946,0.1373311970702389
1677618681202232,2.090485999847374,0.015259021896667946,0.1373311970702389
1677618681218235,2.090485999847374,0.015259021896667946,0.1373311970702389
1677618681234237,2.059967956054038,-0.015259021896667946,0.16784924086368846
1677618681250240,1.9989318684672526,-0.015259021896667946,0.1373311970702389
1677618681266243,2.059967956054038,0.015259021896667946,0.106813153276903
1677618681282245,2.0294499122605885,-0.015259021896667946,0.106813153276903
1677618681298248,2.059967956054038,-0.045777065690117524,0.07629510948345342
1677618681314251,2.0294499122605885,-0.106813153276903,0.106813153276903
1677618681330253,2.0294499122605885,-0.045777065690117524,0.1373311970702389
1677618681346256,2.090485999847374,0.015259021896667946,0.1373311970702389
1677618681362274,2.090485999847374,-0.045777065690117524,0.106813153276903
1677618681378276,1.9989318684672526,-0.07629510948345342,0.16784924086368846
1677618681394279,2.059967956054038,-0.015259021896667946,0.16784924086368846
1677618681410282,2.0294499122605885,-0.015259021896667946,0.1373311970702389
1677618681426284,2.0294499122605885,-0.015259021896667946,0.19836728465702436
1677618681442287,2.059967956054038,-0.015259021896667946,0.19836728465702436
1677618681458290,2.090485999847374,-0.045777065690117524,0.1373311970702389
1677618681474292,2.059967956054038,0.015259021896667946,0.106813153276903
1677618681490295,2.059967956054038,-0.015259021896667946,0.106813153276903
1677618681506298,2.059967956054038,-0.015259021896667946,0.106813153276903
1677618681522300,2.059967956054038,-0.015259021896667946,0.1373311970702389
1677618681538303,2.090485999847374,-0.015259021896667946,0.1373311970702389
1677618681554306,2.0294499122605885,-0.07629510948345342,0.1373311970702389
1677618681570308,2.059967956054038,-0.106813153276903,0.106813153276903
1677618681586311,2.059967956054038,-0.07629510948345342,0.07629510948345342
1677618681602314,2.059967956054038,-0.015259021896667946,0.045777065690117524
1677618681618316,2.0294499122605885,-0.045777065690117524,0.106813153276903
1677618681634319,2.0294499122605885,-0.045777065690117524,0.16784924086368846
1677618681650322,2.059967956054038,-0.07629510948345342,0.106813153276903
1677618681666324,2.059967956054038,-0.07629510948345342,0.1373311970702389
1677618681682342,2.0294499122605885,-0.045777065690117524,0.16784924086368846
1677618681698345,2.0294499122605885,-0.045777065690117524,0.16784924086368846
1677618681714347,1.9989318684672526,-0.015259021896667946,0.16784924086368846
1677618681730350,2.1210040436408235,-0.106813153276903,0.1373311970702389
1677618681746353,2.059967956054038,-0.07629510948345342,0.106813153276903
1677618681762355,2.059967956054038,-0.106813153276903,0.1373311970702389
1677618681778358,2.0294499122605885,-0.07629510948345342,0.16784924086368846
1677618681794361,2.0294499122605885,-0.015259021896667946,0.22888532845047393
1677618681810363,2.059967956054038,-0.015259021896667946,0.19836728465702436
1677618681826366,2.0294499122605885,-0.015259021896667946,0.16784924086368846
1677618681842369,2.0294499122605885,-0.07629510948345342,0.1373311970702389
1677618681858371,2.090485999847374,-0.07629510948345342,0.16784924086368846
1677618681874374,2.059967956054038,-0.07629510948345342,0.16784924086368846
1677618681890377,1.9989318684672526,-0.045777065690117524,0.1373311970702389
1677618681906379,1.9989318684672526,-0.07629510948345342,0.1373311970702389
1677618681922382,2.059967956054038,0.015259021896667946,0.1373311970702389
1677618681938385,2.059967956054038,0.015259021896667946,0.106813153276903
1677618681954387,2.059967956054038,0.015259021896667946,0.1373311970702389
1677618681970390,2.059967956054038,-0.045777065690117524,0.1373311970702389
1677618681986393,2.090485999847374,-0.045777065690117524,0.1373311970702389
1677618682002411,2.0294499122605885,-0.07629510948345342,0.07629510948345342
1677618682018413,2.0294499122605885,-0.07629510948345342,0.07629510948345342
1677618682034416,1.9989318684672526,-0.045777065690117524,0.1373311970702389
1677618682050418,1.9989318684672526,-0.07629510948345342,0.1373311970702389
1677618682066421,2.059967956054038,-0.07629510948345342,0.16784924086368846
1677618682082424,2.059967956054038,-0.045777065690117524,0.106813153276903
1677618682098426,2.059967956054038,-0.07629510948345342,0.16784924086368846
1677618682114429,2.0294499122605885,0.015259021896667946,0.16784924086368846
1677618682130432,1.968413824673803,0.015259021896667946,0.1373311970702389
1677618682146434,2.0294499122605885,-0.015259021896667946,0.1373311970702389
1677618682162437,2.059967956054038,-0.015259021896667946,0.16784924086368846
1677618682178440,2.059967956054038,0.045777065690117524,0.1373311970702389
1677618682194442,2.0294499122605885,0.015259021896667946,0.16784924086368846
1677618682210445,2.059967956054038,-0.015259021896667946,0.1373311970702389
1677618682226448,2.059967956054038,-0.045777065690117524,0.16784924086368846
1677618682242450,2.0294499122605885,-0.07629510948345342,0.106813153276903
1677618682258453,2.059967956054038,-0.045777065690117524,0.16784924086368846
1677618682274456,2.059967956054038,-0.015259021896667946,0.16784924086368846
1677618682290458,2.059967956054038,-0.07629510948345342,0.16784924086368846
1677618682306461,2.090485999847374,-0.015259021896667946,0.19836728465702436
1677618682322448,2.090485999847374,-0.015259021896667946,0.16784924086368846
1677618682338451,2.090485999847374,0.015259021896667946,0.16784924086368846
1677618682354454,2.059967956054038,-0.045777065690117524,0.16784924086368846
1677618682370456,2.0294499122605885,-0.015259021896667946,0.16784924086368846
1677618682386459,2.0294499122605885,-0.045777065690117524,0.16784924086368846
1677618682402462,1.9989318684672526,-0.106813153276903,0.19836728465702436
1677618682418464,2.059967956054038,-0.07629510948345342,0.19836728465702436
1677618682434467,2.059967956054038,-0.07629510948345342,0.16784924086368846
1677618682450470,2.090485999847374,-0.106813153276903,0.16784924086368846
1677618682466472,2.090485999847374,-0.106813153276903,0.16784924086368846
1677618682482475,2.059967956054038,-0.015259021896667946,0.1373311970702389
1677618682498478,2.059967956054038,-0.045777065690117524,0.16784924086368846
1677618682514480,2.059967956054038,-0.045777065690117524,0.16784924086368846
1677618682530483,2.0294499122605885,-0.07629510948345342,0.16784924086368846
1677618682546486,2.0294499122605885,-0.106813153276903,0.16784924086368846
1677618682562488,2.0294499122605885,-0.106813153276903,0.1373311970702389
1677618682578491,1.9989318684672526,-0.015259021896667946,0.07629510948345342
1677618682594493,2.059967956054038,-0.045777065690117524,0.106813153276903
1677618682610496,2.0294499122605885,-0.07629510948345342,0.16784924086368846
1677618682626499,2.0294499122605885,0.015259021896667946,0.1373311970702389
1677618682642517,2.0294499122605885,0.015259021896667946,0.16784924086368846
1677618682658519,2.0294499122605885,0.015259021896667946,0.16784924086368846
1677618682674522,2.0294499122605885,-0.015259021896667946,0.16784924086368846
1677618682690525,2.0294499122605885,-0.045777065690117524,0.16784924086368846
1677618682706527,1.968413824673803,-0.045777065690117524,0.16784924086368846
1677618682722530,2.0294499122605885,-0.07629510948345342,0.1373311970702389
1677618682738533,2.059967956054038,-0.07629510948345342,0.1373311970702389
1677618682754535,1.9989318684672526,-0.045777065690117524,0.1373311970702389
1677618682770538,1.9989318684672526,0.015259021896667946,0.1373311970702389
1677618682786541,2.0294499122605885,-0.015259021896667946,0.1373311970702389
1677618682802543,2.0294499122605885,-0.015259021896667946,0.1373311970702389
1677618682818546,2.059967956054038,-0.015259021896667946,0.16784924086368846
1677618682834549,2.090485999847374,-0.015259021896667946,0.16784924086368846
1677618682850551,2.0294499122605885,-0.07629510948345342,0.106813153276903
1677618682866554,2.090485999847374,-0.045777065690117524,0.16784924086368846
1677618682882557,2.059967956054038,-0.045777065690117524,0.16784924086368846
1677618682898559,2.090485999847374,-0.015259021896667946,0.16784924086368846
1677618682914562,2.0294499122605885,-0.045777065690117524,0.16784924086368846
1677618682930565,2.0294499122605885,-0.07629510948345342,0.1373311970702389
1677618682946567,2.0294499122605885,-0.015259021896667946,0.1373311970702389
1677618682962585,2.0294499122605885,-0.07629510948345342,0.106813153276903
1677618682978588,2.059967956054038,-0.106813153276903,0.106813153276903
1677618682994590,2.059967956054038,-0.07629510948345342,0.1373311970702389
1677618683010593,2.059967956054038,-0.07629510948345342,0.16784924086368846
1677618683026596,2.059967956054038,-0.045777065690117524,0.16784924086368846
1677618683042598,1.9989318684672526,-0.07629510948345342,0.1373311970702389
1677618683058601,2.0294499122605885,-0.045777065690117524,0.1373311970702389
1677618683074604,2.0294499122605885,-0.045777065690117524,0.106813153276903
1677618683090606,2.090485999847374,-0.045777065690117524,0.1373311970702389
1677618683106609,2.0294499122605885,-0.015259021896667946,0.16784924086368846
1677618683122612,2.0294499122605885,-0.045777065690117524,0.19836728465702436
1677618683138614,2.090485999847374,0.015259021896667946,0.1373311970702389
1677618683154617,2.059967956054038,0.045777065690117524,0.1373311970702389
1677618683170620,1.9989318684672526,-0.015259021896667946,0.106813153276903
1677618683186622,2.0294499122605885,-0.015259021896667946,0.16784924086368846
1677618683202625,2.090485999847374,-0.015259021896667946,0.1373311970702389
1677618683218628,2.0294499122605885,-0.045777065690117524,0.1373311970702389
1677618683234630,1.968413824673803,-0.015259021896667946,0.16784924086368846
1677618683250633,1.9989318684672526,-0.07629510948345342,0.07629510948345342
1677618683266636,1.9989318684672526,-0.045777065690117524,0.106813153276903
1677618683282653,1.9989318684672526,-0.045777065690117524,0.16784924086368846
1677618683298657,2.059967956054038,-0.045777065690117524,0.16784924086368846
1677618683314660,2.059967956054038,-0.045777065690117524,0.1373311970702389
1677618683330663,2.059967956054038,-0.015259021896667946,0.07629510948345342
1677618683346666,2.0294499122605885,-0.045777065690117524,0.16784924086368846
1677618683362669,2.0294499122605885,-0.045777065690117524,0.16784924086368846
1677618683378672,2.0294499122605885,-0.015259021896667946,0.1373311970702389
1677618683394675,2.059967956054038,-0.045777065690117524,0.16784924086368846
1677618683410678,2.059967956054038,-0.015259021896667946,0.16784924086368846
1677618683426682,2.059967956054038,-0.015259021896667946,0.16784924086368846
1677618683442685,2.0294499122605885,-0.045777065690117524,0.16784924086368846
1677618683458688,2.0294499122605885,-0.045777065690117524,0.16784924086368846
1677618683474691,1.9989318684672526,-0.045777065690117524,0.16784924086368846
1677618683490694,2.059967956054038,-0.106813153276903,0.22888532845047393
1677618683506697,2.090485999847374,-0.07629510948345342,0.16784924086368846
1677618683522700,2.090485999847374,-0.015259021896667946,0.1373311970702389
1677618683538704,2.0294499122605885,-0.015259021896667946,0.16784924086368846
1677618683554707,1.9989318684672526,-0.045777065690117524,0.19836728465702436
1677618683570710,2.0294499122605885,-0.106813153276903,0.16784924086368846
1677618683586713,2.0294499122605885,-0.07629510948345342,0.106813153276903
1677618683602691,2.0294499122605885,-0.07629510948345342,0.1373311970702389
1677618683618694,2.0294499122605885,-0.015259021896667946,0.16784924086368846
1677618683634697,2.059967956054038,-0.045777065690117524,0.19836728465702436
1677618683650699,2.1210040436408235,-0.015259021896667946,0.1373311970702389
1677618683666702,2.059967956054038,-0.015259021896667946,0.16784924086368846
1677618683682705,1.9989318684672526,-0.045777065690117524,0.1373311970702389
1677618683698707,1.9989318684672526,-0.106813153276903,0.19836728465702436
1677618683714710,2.0294499122605885,-0.045777065690117524,0.1373311970702389
1677618683730713,2.090485999847374,-0.015259021896667946,0.19836728465702436
1677618683746715,2.059967956054038,-0.015259021896667946,0.1373311970702389
1677618683762718,1.9989318684672526,-0.015259021896667946,0.16784924086368846
1677618683778720,1.9989318684672526,0.015259021896667946,0.16784924086368846
1677618683794723,1.9989318684672526,0.045777065690117524,0.1373311970702389
1677618683810726,2.0294499122605885,-0.07629510948345342,0.106813153276903
1677618683826728,2.0294499122605885,-0.045777065690117524,0.16784924086368846
1677618683842731,2.059967956054038,-0.07629510948345342,0.16784924086368846
1677618683858734,2.0294499122605885,-0.07629510948345342,0.19836728465702436
1677618683874736,2.090485999847374,-0.015259021896667946,0.19836728465702436
1677618683890739,2.0294499122605885,-0.045777065690117524,0.16784924086368846
1677618683906742,2.0294499122605885,-0.045777065690117524,0.106813153276903
1677618683922760,1.968413824673803,-0.07629510948345342,0.1373311970702389
1677618683938762,2.0294499122605885,-0.015259021896667946,0.19836728465702436
1677618683954765,2.059967956054038,0.015259021896667946,0.2594033722438098
1677618683970768,2.059967956054038,-0.045777065690117524,0.16784924086368846
1677618683986770,2.090485999847374,-0.015259021896667946,0.1373311970702389
1677618684002773,2.059967956054038,-0.106813153276903,0.1373311970702389
1677618684018776,2.059967956054038,-0.045777065690117524,0.106813153276903
1677618684034778,2.059967956054038,-0.106813153276903,0.1373311970702389
1677618684050781,2.090485999847374,-0.015259021896667946,0.16784924086368846
1677618684066784,2.090485999847374,-0.045777065690117524,0.16784924086368846
1677618684082786,2.059967956054038,-0.015259021896667946,0.1373311970702389
1677618684098789,1.968413824673803,0.045777065690117524,0.106813153276903
1677618684114791,2.0294499122605885,-0.015259021896667946,0.16784924086368846
1677618684130794,2.0294499122605885,-0.015259021896667946,0.106813153276903
1677618684146797,2.059967956054038,-0.045777065690117524,0.07629510948345342
1677618684162799,2.0294499122605885,-0.045777065690117524,0.1373311970702389
1677618684178802,2.0294499122605885,-0.015259021896667946,0.106813153276903
1677618684194805,2.090485999847374,-0.045777065690117524,0.16784924086368846
1677618684210807,2.059967956054038,-0.045777065690117524,0.19836728465702436
1677618684226810,2.0294499122605885,-0.106813153276903,0.106813153276903
1677618684242828,2.090485999847374,-0.045777065690117524,0.106813153276903
1677618684258831,2.090485999847374,-0.015259021896667946,0.16784924086368846
1677618684274834,2.090485999847374,-0.045777065690117524,0.1373311970702389
1677618684290837,2.0294499122605885,-0.045777065690117524,0.106813153276903
1677618684306841,2.0294499122605885,-0.07629510948345342,0.045777065690117524
1677618684322844,2.0294499122605885,-0.015259021896667946,0.1373311970702389
1677618684338847,2.0294499122605885,-0.07629510948345342,0.16784924086368846
1677618684354850,2.0294499122605885,-0.015259021896667946,0.16784924086368846
1677618684370853,2.059967956054038,-0.045777065690117524,0.16784924086368846
1677618684386856,2.059967956054038,-0.015259021896667946,0.106813153276903
1677618684402859,2.059967956054038,-0.045777065690117524,0.1373311970702389
1677618684418862,2.0294499122605885,-0.07629510948345342,0.1373311970702389
1677618684434866,2.059967956054038,-0.015259021896667946,0.1373311970702389
1677618684450869,2.0294499122605885,-0.045777065690117524,0.106813153276903
1677618684466872,2.0294499122605885,-0.015259021896667946,0.16784924086368846
1677618684482875,2.059967956054038,-0.045777065690117524,0.16784924086368846
1677618684498878,2.059967956054038,0.015259021896667946,0.16784924086368846
1677618684514881,2.090485999847374,-0.045777065690117524,0.1373311970702389
1677618684530884,2.059967956054038,-0.045777065690117524,0.106813153276903
1677618684546887,2.0294499122605885,-0.045777065690117524,0.1373311970702389
1677618684562896,2.059967956054038,-0.015259021896667946,0.16784924086368846
1677618684578899,2.1210040436408235,-0.045777065690117524,0.1373311970702389
1677618684594903,2.090485999847374,-0.07629510948345342,0.19836728465702436
1677618684610906,2.059967956054038,-0.07629510948345342,0.1373311970702389
1677618684626909,2.059967956054038,-0.07629510948345342,0.1373311970702389
1677618684642912,2.059967956054038,-0.045777065690117524,0.1373311970702389
1677618684658915,2.1210040436408235,-0.015259021896667946,0.1373311970702389
1677618684674918,2.1210040436408235,-0.045777065690117524,0.1373311970702389
1677618684690921,2.090485999847374,0.015259021896667946,0.16784924086368846
1677618684706925,2.059967956054038,-0.015259021896667946,0.1373311970702389
1677618684722928,2.059967956054038,-0.015259021896667946,0.16784924086368846
1677618684738931,2.0294499122605885,-0.045777065690117524,0.106813153276903
1677618684754934,2.0294499122605885,-0.045777065690117524,0.16784924086368846
1677618684770937,2.0294499122605885,-0.015259021896667946,0.19836728465702436
1677618684786940,2.090485999847374,-0.07629510948345342,0.1373311970702389
1677618684802943,2.090485999847374,-0.045777065690117524,0.106813153276903
1677618684818946,2.059967956054038,-0.045777065690117524,0.16784924086368846
1677618684834950,2.059967956054038,-0.045777065690117524,0.1373311970702389
1677618684850953,2.090485999847374,-0.015259021896667946,0.07629510948345342
1677618684866956,2.0294499122605885,-0.045777065690117524,0.16784924086368846
1677618684882934,2.059967956054038,-0.045777065690117524,0.16784924086368846
1677618684898937,2.090485999847374,-0.045777065690117524,0.19836728465702436
1677618684914940,2.0294499122605885,-0.07629510948345342,0.1373311970702389
1677618684930942,2.090485999847374,-0.07629510948345342,0.1373311970702389
1677618684946945,2.090485999847374,-0.106813153276903,0.1373311970702389
1677618684962947,2.090485999847374,0.015259021896667946,0.1373311970702389
1677618684978950,2.0294499122605885,0.015259021896667946,0.1373311970702389
1677618684994953,2.090485999847374,-0.045777065690117524,0.1373311970702389
1677618685010955,2.059967956054038,-0.045777065690117524,0.16784924086368846
1677618685026958,2.0294499122605885,-0.07629510948345342,0.16784924086368846
1677618685042961,2.059967956054038,-0.015259021896667946,0.19836728465702436
1677618685058963,2.059967956054038,-0.07629510948345342,0.19836728465702436
1677618685074966,2.0294499122605885,-0.045777065690117524,0.16784924086368846
1677618685090969,2.059967956054038,-0.045777065690117524,0.1373311970702389
1677618685106971,2.059967956054038,-0.045777065690117524,0.106813153276903
1677618685122974,2.059967956054038,-0.07629510948345342,0.16784924086368846
1677618685138977,2.090485999847374,-0.07629510948345342,0.19836728465702436
1677618685154979,2.059967956054038,-0.015259021896667946,0.22888532845047393
1677618685170982,2.090485999847374,-0.015259021896667946,0.16784924086368846
1677618685186985,2.059967956054038,-0.07629510948345342,0.106813153276903
1677618685203003,2.059967956054038,-0.106813153276903,0.16784924086368846
1677618685219006,2.0294499122605885,-0.045777065690117524,0.16784924086368846
1677618685235009,2.0294499122605885,-0.07629510948345342,0.16784924086368846
1677618685251012,2.0294499122605885,-0.07629510948345342,0.106813153276903
1677618685267015,2.059967956054038,-0.07629510948345342,0.106813153276903
1677618685283018,2.090485999847374,-0.045777065690117524,0.19836728465702436
1677618685299021,2.090485999847374,-0.07629510948345342,0.16784924086368846
1677618685315024,2.059967956054038,-0.045777065690117524,0.1373311970702389
1677618685331028,2.0294499122605885,-0.106813153276903,0.07629510948345342
1677618685347031,2.059967956054038,-0.045777065690117524,0.1373311970702389
1677618685363034,2.0294499122605885,-0.015259021896667946,0.106813153276903
1677618685379037,2.090485999847374,-0.045777065690117524,0.19836728465702436
1677618685395040,2.090485999847374,-0.07629510948345342,0.1373311970702389
1677618685411043,1.9989318684672526,0.015259021896667946,0.16784924086368846
1677618685427046,1.9989318684672526,-0.045777065690117524,0.1373311970702389
1677618685443050,2.090485999847374,-0.045777065690117524,0.1373311970702389
1677618685459053,2.059967956054038,-0.015259021896667946,0.16784924086368846
1677618685475056,2.059967956054038,0.015259021896667946,0.16784924086368846
1677618685491059,2.0294499122605885,0.015259021896667946,0.1373311970702389
1677618685507062,2.059967956054038,-0.07629510948345342,0.16784924086368846
1677618685523071,2.059967956054038,-0.015259021896667946,0.106813153276903
1677618685539074,1.9989318684672526,-0.045777065690117524,0.07629510948345342
1677618685555077,1.9989318684672526,-0.015259021896667946,0.1373311970702389
1677618685571080,2.0294499122605885,-0.015259021896667946,0.16784924086368846
1677618685587083,1.9989318684672526,-0.045777065690117524,0.16784924086368846
1677618685603087,1.9989318684672526,-0.045777065690117524,0.1373311970702389
1677618685619090,2.090485999847374,-0.045777065690117524,0.1373311970702389
1677618685635093,2.059967956054038,-0.015259021896667946,0.106813153276903
1677618685651096,2.090485999847374,0.015259021896667946,0.1373311970702389
1677618685667099,2.090485999847374,-0.015259021896667946,0.106813153276903
1677618685683102,2.059967956054038,-0.07629510948345342,0.1373311970702389
1677618685699105,2.059967956054038,-0.015259021896667946,0.106813153276903
1677618685715108,2.059967956054038,-0.015259021896667946,0.1373311970702389
1677618685731112,2.0294499122605885,0.015259021896667946,0.106813153276903
1677618685747115,2.059967956054038,-0.015259021896667946,0.106813153276903
1677618685763118,1.9989318684672526,-0.015259021896667946,0.106813153276903
1677618685779121,1.9989318684672526,0.045777065690117524,0.1373311970702389
1677618685795124,2.059967956054038,-0.015259021896667946,0.07629510948345342
1677618685811127,1.9989318684672526,-0.015259021896667946,0.106813153276903
1677618685827130,1.937895780880467,-0.045777065690117524,0.16784924086368846
1677618685843139,2.0294499122605885,0.015259021896667946,0.1373311970702389
1677618685859142,2.0294499122605885,-0.015259021896667946,0.16784924086368846
1677618685875146,1.9989318684672526,-0.015259021896667946,0.16784924086368846
1677618685891149,2.059967956054038,-0.015259021896667946,0.1373311970702389
1677618685907152,2.059967956054038,-0.07629510948345342,0.1373311970702389
1677618685923155,2.0294499122605885,0.015259021896667946,0.16784924086368846
1677618685939158,2.0294499122605885,-0.045777065690117524,0.07629510948345342
1677618685955161,2.0294499122605885,-0.07629510948345342,0.106813153276903
1677618685971164,1.9989318684672526,-0.045777065690117524,0.16784924086368846
1677618685987167,2.059967956054038,-0.045777065690117524,0.1373311970702389
1677618686003171,1.9989318684672526,0.015259021896667946,0.106813153276903
1677618686019174,2.0294499122605885,0.015259021896667946,0.1373311970702389
1677618686035177,1.9989318684672526,-0.045777065690117524,0.1373311970702389
1677618686051180,2.059967956054038,-0.015259021896667946,0.106813153276903
1677618686067183,2.0294499122605885,0.015259021896667946,0.1373311970702389
1677618686083186,2.059967956054038,-0.045777065690117524,0.1373311970702389
1677618686099189,2.0294499122605885,-0.045777065690117524,0.106813153276903
1677618686115193,2.059967956054038,-0.07629510948345342,0.1373311970702389
1677618686131196,2.059967956054038,-0.045777065690117524,0.106813153276903
1677618686147199,2.090485999847374,-0.045777065690117524,0.1373311970702389
1677618686163177,2.059967956054038,-0.07629510948345342,0.1373311970702389
1677618686179180,2.059967956054038,-0.045777065690117524,0.106813153276903
1677618686195183,2.090485999847374,0.015259021896667946,0.106813153276903
1677618686211187,2.059967956054038,-0.07629510948345342,0.1373311970702389
1677618686227190,2.059967956054038,-0.07629510948345342,0.106813153276903
1677618686243193,2.0294499122605885,-0.015259021896667946,0.07629510948345342
1677618686259196,2.0294499122605885,-0.015259021896667946,0.1373311970702389
1677618686275199,2.0294499122605885,-0.045777065690117524,0.16784924086368846
1677618686291202,1.9989318684672526,-0.07629510948345342,0.16784924086368846
1677618686307205,2.059967956054038,-0.07629510948345342,0.16784924086368846
1677618686323208,2.090485999847374,-0.07629510948345342,0.1373311970702389
1677618686339212,2.090485999847374,-0.07629510948345342,0.1373311970702389
1677618686355215,2.059967956054038,-0.045777065690117524,0.1373311970702389
1677618686371218,2.059967956054038,-0.07629510948345342,0.106813153276903
1677618686387221,2.059967956054038,-0.015259021896667946,0.1373311970702389
1677618686403224,2.059967956054038,-0.07629510948345342,0.1373311970702389
1677618686419227,2.059967956054038,-0.07629510948345342,0.1373311970702389
1677618686435230,2.059967956054038,-0.015259021896667946,0.1373311970702389
1677618686451233,2.059967956054038,-0.015259021896667946,0.106813153276903
1677618686467237,2.090485999847374,-0.045777065690117524,0.1373311970702389
1677618686483245,2.059967956054038,-0.045777065690117524,0.07629510948345342
1677618686499249,2.059967956054038,-0.1373311970702389,0.16784924086368846
1677618686515252,2.059967956054038,-0.045777065690117524,0.1373311970702389
1677618686531255,2.0294499122605885,-0.07629510948345342,0.1373311970702389
1677618686547258,2.059967956054038,-0.045777065690117524,0.1373311970702389
1677618686563261,2.059967956054038,-0.045777065690117524,0.106813153276903
1677618686579264,2.059967956054038,0.015259021896667946,0.1373311970702389
1677618686595267,2.059967956054038,0.015259021896667946,0.16784924086368846
1677618686611271,2.0294499122605885,-0.045777065690117524,0.16784924086368846
1677618686627274,2.059967956054038,-0.045777065690117524,0.106813153276903
1677618686643277,2.090485999847374,0.015259021896667946,0.106813153276903
1677618686659280,2.0294499122605885,-0.015259021896667946,0.1373311970702389
1677618686675283,2.059967956054038,-0.015259021896667946,0.16784924086368846
1677618686691286,1.9989318684672526,-0.015259021896667946,0.1373311970702389
1677618686707289,2.059967956054038,0.015259021896667946,0.1373311970702389
1677618686723292,2.059967956054038,-0.045777065690117524,0.07629510948345342
1677618686739296,2.0294499122605885,-0.045777065690117524,0.16784924086368846
1677618686755299,2.090485999847374,-0.045777065690117524,0.16784924086368846
1677618686771302,2.090485999847374,-0.015259021896667946,0.19836728465702436
1677618686787305,2.059967956054038,-0.045777065690117524,0.16784924086368846
1677618686803314,2.059967956054038,0.015259021896667946,0.1373311970702389
1677618686819317,2.0294499122605885,-0.015259021896667946,0.106813153276903
1677618686835320,1.9989318684672526,-0.015259021896667946,0.1373311970702389
1677618686851323,1.968413824673803,-0.015259021896667946,0.1373311970702389
1677618686867326,2.0294499122605885,-0.045777065690117524,0.106813153276903
1677618686883329,2.059967956054038,-0.015259021896667946,0.1373311970702389
1677618686899333,2.090485999847374,-0.015259021896667946,0.16784924086368846
1677618686915336,2.090485999847374,-0.015259021896667946,0.16784924086368846
1677618686931339,2.059967956054038,-0.045777065690117524,0.16784924086368846
1677618686947342,1.9989318684672526,-0.045777065690117524,0.1373311970702389
1677618686963345,2.0294499122605885,-0.015259021896667946,0.07629510948345342
1677618686979348,2.090485999847374,-0.015259021896667946,0.106813153276903
1677618686995351,2.090485999847374,-0.015259021896667946,0.106813153276903
1677618687011355,1.9989318684672526,-0.015259021896667946,0.106813153276903
1677618687027358,2.059967956054038,-0.015259021896667946,0.1373311970702389
1677618687043361,2.0294499122605885,-0.015259021896667946,0.1373311970702389
1677618687059364,2.059967956054038,-0.015259021896667946,0.106813153276903
1677618687075367,2.0294499122605885,-0.106813153276903,0.19836728465702436
1677618687091370,2.059967956054038,-0.045777065690117524,0.16784924086368846
1677618687107373,2.059967956054038,0.015259021896667946,0.16784924086368846
1677618687123382,2.059967956054038,-0.015259021896667946,0.1373311970702389
1677618687139385,2.059967956054038,-0.015259021896667946,0.1373311970702389
1677618687155388,2.0294499122605885,-0.045777065690117524,0.16784924086368846
1677618687171392,2.059967956054038,-0.07629510948345342,0.16784924086368846
1677618687187395,2.059967956054038,-0.045777065690117524,0.1373311970702389
1677618687203398,2.0294499122605885,-0.015259021896667946,0.1373311970702389
1677618687219401,2.0294499122605885,-0.015259021896667946,0.106813153276903
1677618687235404,1.9989318684672526,0.015259021896667946,0.1373311970702389
1677618687251407,2.059967956054038,-0.015259021896667946,0.16784924086368846
1677618687267410,2.090485999847374,-0.045777065690117524,0.19836728465702436
1677618687283414,2.0294499122605885,-0.015259021896667946,0.19836728465702436
1677618687299417,2.1210040436408235,-0.015259021896667946,0.1373311970702389
1677618687315420,2.0294499122605885,-0.07629510948345342,0.16784924086368846
1677618687331423,2.059967956054038,-0.045777065690117524,0.1373311970702389
1677618687347426,2.059967956054038,0.015259021896667946,0.16784924086368846
1677618687363429,2.059967956054038,0.045777065690117524,0.16784924086368846
1677618687379432,2.059967956054038,0.015259021896667946,0.19836728465702436
1677618687395435,2.0294499122605885,-0.07629510948345342,0.16784924086368846
1677618687411439,1.9989318684672526,0.045777065690117524,0.106813153276903
1677618687427442,2.059967956054038,-0.015259021896667946,0.1373311970702389
1677618687443420,2.059967956054038,-0.045777065690117524,0.106813153276903
1677618687459423,2.059967956054038,-0.015259021896667946,0.16784924086368846
1677618687475426,2.1210040436408235,0.015259021896667946,0.1373311970702389
1677618687491429,2.0294499122605885,-0.045777065690117524,0.1373311970702389
1677618687507433,2.059967956054038,-0.07629510948345342,0.07629510948345342
1677618687523436,2.0294499122605885,-0.106813153276903,0.07629510948345342
1677618687539439,2.059967956054038,-0.015259021896667946,0.106813153276903
1677618687555442,2.059967956054038,-0.015259021896667946,0.1373311970702389
1677618687571445,2.0294499122605885,0.015259021896667946,0.106813153276903
1677618687587448,2.0294499122605885,-0.045777065690117524,0.16784924086368846
1677618687603451,2.090485999847374,-0.045777065690117524,0.16784924086368846
1677618687619454,2.059967956054038,-0.07629510948345342,0.1373311970702389
1677618687635458,2.059967956054038,-0.045777065690117524,0.1373311970702389
1677618687651461,1.9989318684672526,-0.015259021896667946,0.1373311970702389
1677618687667464,2.090485999847374,-0.045777065690117524,0.1373311970702389
1677618687683467,2.090485999847374,0.015259021896667946,0.1373311970702389
1677618687699470,2.059967956054038,-0.045777065690117524,0.19836728465702436
1677618687715473,1.9989318684672526,-0.07629510948345342,0.16784924086368846
1677618687731476,2.059967956054038,-0.015259021896667946,0.19836728465702436
1677618687747480,2.059967956054038,0.015259021896667946,0.22888532845047393
1677618687763488,2.059967956054038,-0.045777065690117524,0.106813153276903
1677618687779492,2.0294499122605885,-0.015259021896667946,0.1373311970702389
1677618687795495,2.0294499122605885,-0.045777065690117524,0.07629510948345342
1677618687811498,1.9989318684672526,-0.045777065690117524,0.106813153276903
1677618687827501,2.059967956054038,-0.106813153276903,0.106813153276903
1677618687843504,2.059967956054038,-0.106813153276903,0.106813153276903
1677618687859507,2.0294499122605885,-0.106813153276903,0.16784924086368846
1677618687875510,2.0294499122605885,-0.045777065690117524,0.19836728465702436
1677618687891513,2.0294499122605885,-0.045777065690117524,0.16784924086368846
1677618687907517,2.090485999847374,-0.045777065690117524,0.106813153276903
1677618687923520,2.090485999847374,-0.07629510948345342,0.16784924086368846
1677618687939523,2.090485999847374,-0.015259021896667946,0.19836728465702436
1677618687955526,2.0294499122605885,-0.045777065690117524,0.16784924086368846
1677618687971529,2.090485999847374,-0.045777065690117524,0.1373311970702389
1677618687987532,2.0294499122605885,-0.015259021896667946,0.1373311970702389
1677618688003535,2.0294499122605885,0.045777065690117524,0.1373311970702389
1677618688019539,1.9989318684672526,-0.045777065690117524,0.1373311970702389
1677618688035542,2.0294499122605885,-0.045777065690117524,0.1373311970702389
1677618688051545,2.059967956054038,0.015259021896667946,0.16784924086368846
1677618688067548,2.090485999847374,-0.015259021896667946,0.1373311970702389
1677618688083557,2.0294499122605885,-0.015259021896667946,0.07629510948345342
1677618688099560,2.059967956054038,-0.045777065690117524,0.106813153276903
1677618688115563,1.9989318684672526,-0.015259021896667946,0.16784924086368846
1677618688131566,2.0294499122605885,0.015259021896667946,0.1373311970702389
1677618688147569,1.9989318684672526,0.015259021896667946,0.19836728465702436
1677618688163572,2.059967956054038,0.015259021896667946,0.1373311970702389
1677618688179576,2.0294499122605885,-0.015259021896667946,0.16784924086368846
1677618688195579,2.0294499122605885,-0.015259021896667946,0.1373311970702389
1677618688211582,2.090485999847374,0.015259021896667946,0.106813153276903
1677618688227585,2.059967956054038,-0.015259021896667946,0.16784924086368846
1677618688243588,2.059967956054038,-0.015259021896667946,0.1373311970702389
1677618688259591,2.090485999847374,-0.015259021896667946,0.106813153276903
1677618688275594,2.0294499122605885,-0.045777065690117524,0.106813153276903
1677618688291597,2.0294499122605885,-0.07629510948345342,0.1373311970702389
1677618688307601,2.059967956054038,-0.07629510948345342,0.16784924086368846
1677618688323604,2.090485999847374,-0.07629510948345342,0.1373311970702389
1677618688339607,2.0294499122605885,-0.015259021896667946,0.1373311970702389
1677618688355610,1.9989318684672526,-0.045777065690117524,0.16784924086368846
1677618688371613,1.9989318684672526,-0.015259021896667946,0.07629510948345342
1677618688387616,2.059967956054038,-0.07629510948345342,0.106813153276903
1677618688403625,2.059967956054038,-0.07629510948345342,0.106813153276903
1677618688419628,2.090485999847374,-0.07629510948345342,0.16784924086368846
1677618688435631,2.0294499122605885,-0.045777065690117524,0.1373311970702389
1677618688451635,2.059967956054038,-0.045777065690117524,0.106813153276903
1677618688467638,1.9989318684672526,-0.07629510948345342,0.1373311970702389
1677618688483641,1.9989318684672526,-0.045777065690117524,0.19836728465702436
1677618688499644,1.937895780880467,-0.045777065690117524,0.1373311970702389
1677618688515647,1.968413824673803,-0.015259021896667946,0.16784924086368846
1677618688531650,2.059967956054038,-0.045777065690117524,0.1373311970702389
1677618688547653,2.059967956054038,-0.045777065690117524,0.106813153276903
1677618688563656,2.0294499122605885,0.015259021896667946,0.16784924086368846
1677618688579660,2.0294499122605885,-0.045777065690117524,0.106813153276903
1677618688595663,2.0294499122605885,-0.045777065690117524,0.106813153276903
1677618688611666,2.0294499122605885,-0.045777065690117524,0.106813153276903
1677618688627669,2.059967956054038,-0.07629510948345342,0.1373311970702389
1677618688643672,2.0294499122605885,-0.015259021896667946,0.1373311970702389
1677618688659675,1.968413824673803,-0.07629510948345342,0.16784924086368846
1677618688675678,1.9989318684672526,0.015259021896667946,0.1373311970702389
1677618688691681,1.9989318684672526,-0.07629510948345342,0.106813153276903
1677618688707685,1.9989318684672526,-0.015259021896667946,0.1373311970702389
1677618688723663,2.0294499122605885,-0.015259021896667946,0.16784924086368846
1677618688739666,2.090485999847374,0.015259021896667946,0.1373311970702389
1677618688755669,2.090485999847374,-0.045777065690117524,0.1373311970702389
1677618688771672,2.059967956054038,-0.045777065690117524,0.16784924086368846
1677618688787675,2.059967956054038,-0.045777065690117524,0.1373311970702389
1677618688803679,2.0294499122605885,-0.07629510948345342,0.07629510948345342
1677618688819682,2.090485999847374,0.015259021896667946,0.16784924086368846
1677618688835685,2.0294499122605885,-0.015259021896667946,0.19836728465702436
1677618688851688,1.9989318684672526,-0.045777065690117524,0.16784924086368846
1677618688867691,1.968413824673803,-0.045777065690117524,0.1373311970702389
1677618688883694,2.090485999847374,0.015259021896667946,0.16784924086368846
1677618688899697,2.0294499122605885,-0.015259021896667946,0.1373311970702389
1677618688915701,2.090485999847374,-0.015259021896667946,0.16784924086368846
1677618688931704,2.090485999847374,-0.015259021896667946,0.1373311970702389
1677618688947707,2.0294499122605885,-0.045777065690117524,0.16784924086368846
1677618688963710,2.059967956054038,-0.045777065690117524,0.19836728465702436
1677618688979713,1.9989318684672526,-0.015259021896667946,0.19836728465702436
1677618688995716,1.9989318684672526,-0.015259021896667946,0.16784924086368846
1677618689011719,2.059967956054038,-0.015259021896667946,0.1373311970702389
1677618689027722,2.059967956054038,-0.015259021896667946,0.1373311970702389
1677618689043731,2.0294499122605885,-0.07629510948345342,0.16784924086368846
1677618689059734,2.0294499122605885,-0.015259021896667946,0.1373311970702389
1677618689075738,2.059967956054038,-0.045777065690117524,0.1373311970702389
1677618689091741,2.0294499122605885,-0.015259021896667946,0.19836728465702436
1677618689107744,1.9989318684672526,-0.045777065690117524,0.16784924086368846
1677618689123747,1.9989318684672526,-0.045777065690117524,0.19836728465702436
1677618689139750,1.968413824673803,-0.045777065690117524,0.1373311970702389
1677618689155753,2.0294499122605885,-0.045777065690117524,0.106813153276903
1677618689171756,2.0294499122605885,-0.045777065690117524,0.16784924086368846
1677618689187760,2.0294499122605885,-0.106813153276903,0.1373311970702389
1677618689203763,2.059967956054038,-0.07629510948345342,0.106813153276903
1677618689219766,2.0294499122605885,-0.07629510948345342,0.106813153276903
1677618689235769,1.9989318684672526,-0.07629510948345342,0.16784924086368846
1677618689251772,2.090485999847374,-0.045777065690117524,0.1373311970702389
1677618689267775,2.0294499122605885,-0.045777065690117524,0.1373311970702389
1677618689283778,2.0294499122605885,-0.045777065690117524,0.19836728465702436
1677618689299781,2.059967956054038,-0.045777065690117524,0.1373311970702389
1677618689315785,2.0294499122605885,-0.106813153276903,0.1373311970702389
1677618689331788,2.059967956054038,-0.1373311970702389,0.16784924086368846
1677618689347791,2.0294499122605885,-0.07629510948345342,0.16784924086368846
1677618689363800,2.0294499122605885,-0.07629510948345342,0.1373311970702389
1677618689379803,2.059967956054038,-0.07629510948345342,0.16784924086368846
1677618689395806,2.0294499122605885,-0.07629510948345342,0.1373311970702389
1677618689411809,2.0294499122605885,-0.045777065690117524,0.1373311970702389
1677618689427812,2.059967956054038,-0.045777065690117524,0.1373311970702389
1677618689443815,2.059967956054038,-0.045777065690117524,0.19836728465702436
1677618689459818,2.0294499122605885,-0.045777065690117524,0.16784924086368846
1677618689475822,2.090485999847374,-0.106813153276903,0.16784924086368846
1677618689491825,2.0294499122605885,-0.045777065690117524,0.19836728465702436
1677618689507828,1.968413824673803,-0.045777065690117524,0.106813153276903
1677618689523831,1.968413824673803,-0.07629510948345342,0.16784924086368846
1677618689539834,1.9989318684672526,-0.015259021896667946,0.106813153276903
1677618689555837,2.0294499122605885,-0.015259021896667946,0.1373311970702389
1677618689571840,2.0294499122605885,-0.106813153276903,0.1373311970702389
1677618689587844,2.0294499122605885,-0.106813153276903,0.16784924086368846
1677618689603847,2.1210040436408235,-0.07629510948345342,0.1373311970702389
1677618689619850,2.090485999847374,-0.015259021896667946,0.1373311970702389
1677618689635853,2.090485999847374,-0.015259021896667946,0.1373311970702389
1677618689651856,2.059967956054038,-0.045777065690117524,0.1373311970702389
1677618689667859,2.059967956054038,-0.045777065690117524,0.16784924086368846
1677618689683868,2.0294499122605885,-0.015259021896667946,0.16784924086368846
1677618689699871,1.9989318684672526,-0.015259021896667946,0.1373311970702389
1677618689715874,2.0294499122605885,-0.015259021896667946,0.22888532845047393
1677618689731877,2.090485999847374,-0.07629510948345342,0.1373311970702389
1677618689747881,2.059967956054038,-0.015259021896667946,0.19836728465702436
1677618689763884,2.0294499122605885,-0.015259021896667946,0.19836728465702436
1677618689779887,2.0294499122605885,-0.07629510948345342,0.16784924086368846
1677618689795890,2.090485999847374,-0.045777065690117524,0.19836728465702436
1677618689811893,2.059967956054038,-0.045777065690117524,0.106813153276903
1677618689827896,2.0294499122605885,-0.045777065690117524,0.1373311970702389
1677618689843899,2.090485999847374,-0.045777065690117524,0.106813153276903
1677618689859902,2.059967956054038,-0.045777065690117524,0.16784924086368846
1677618689875906,2.090485999847374,-0.015259021896667946,0.16784924086368846
1677618689891909,1.9989318684672526,-0.045777065690117524,0.16784924086368846
1677618689907912,2.0294499122605885,-0.07629510948345342,0.19836728465702436
1677618689923915,2.0294499122605885,-0.045777065690117524,0.1373311970702389
1677618689939918,2.090485999847374,-0.045777065690117524,0.07629510948345342
1677618689955921,2.090485999847374,-0.07629510948345342,0.1373311970702389
1677618689971924,2.090485999847374,-0.07629510948345342,0.19836728465702436
1677618689987928,2.059967956054038,-0.045777065690117524,0.16784924086368846
1677618690003906,2.0294499122605885,-0.106813153276903,0.1373311970702389
1677618690019909,2.059967956054038,-0.106813153276903,0.16784924086368846
1677618690035912,2.090485999847374,-0.07629510948345342,0.1373311970702389
1677618690051915,2.059967956054038,-0.07629510948345342,0.106813153276903
1677618690067918,2.0294499122605885,0.015259021896667946,0.1373311970702389
1677618690083922,2.0294499122605885,-0.015259021896667946,0.1373311970702389
1677618690099925,2.0294499122605885,-0.015259021896667946,0.16784924086368846
1677618690115928,2.0294499122605885,-0.07629510948345342,0.16784924086368846
1677618690131931,2.059967956054038,-0.045777065690117524,0.16784924086368846
1677618690147934,2.059967956054038,-0.045777065690117524,0.045777065690117524
1677618690163937,2.059967956054038,-0.106813153276903,0.106813153276903
1677618690179940,2.1210040436408235,-0.1373311970702389,0.1373311970702389
1677618690195943,2.059967956054038,-0.045777065690117524,0.106813153276903
1677618690211947,2.059967956054038,-0.07629510948345342,0.07629510948345342
1677618690227950,1.9989318684672526,-0.07629510948345342,0.1373311970702389
1677618690243953,2.0294499122605885,-0.07629510948345342,0.1373311970702389
1677618690259956,2.090485999847374,0.015259021896667946,0.16784924086368846
1677618690275959,2.0294499122605885,0.015259021896667946,0.1373311970702389
1677618690291962,2.0294499122605885,-0.045777065690117524,0.16784924086368846
1677618690307965,2.059967956054038,-0.045777065690117524,0.1373311970702389
1677618690323974,2.0294499122605885,-0.045777065690117524,0.16784924086368846
1677618690339977,1.9989318684672526,0.015259021896667946,0.16784924086368846
1677618690355980,1.968413824673803,-0.07629510948345342,0.106813153276903
1677618690371984,1.9989318684672526,-0.07629510948345342,0.16784924086368846
1677618690387987,2.0294499122605885,-0.015259021896667946,0.19836728465702436
1677618690403990,1.9989318684672526,-0.07629510948345342,0.1373311970702389
1677618690419993,2.0294499122605885,-0.07629510948345342,0.16784924086368846
1677618690435996,2.059967956054038,-0.045777065690117524,0.19836728465702436
1677618690451999,2.090485999847374,-0.07629510948345342,0.16784924086368846
1677618690468002,2.059967956054038,-0.106813153276903,0.1373311970702389
1677618690484006,2.090485999847374,-0.106813153276903,0.1373311970702389
1677618690500009,1.9989318684672526,-0.045777065690117524,0.106813153276903
1677618690516012,2.0294499122605885,-0.045777065690117524,0.1373311970702389
1677618690532015,2.059967956054038,-0.015259021896667946,0.106813153276903
1677618690548018,2.059967956054038,0.015259021896667946,0.19836728465702436
1677618690564021,2.059967956054038,-0.106813153276903,0.1373311970702389
1677618690580024,1.9989318684672526,-0.106813153276903,0.106813153276903
1677618690596027,2.059967956054038,-0.07629510948345342,0.07629510948345342
1677618690612031,2.090485999847374,-0.015259021896667946,0.07629510948345342
1677618690628034,2.090485999847374,-0.045777065690117524,0.19836728465702436
1677618690644043,2.090485999847374,-0.045777065690117524,0.19836728465702436
1677618690660046,2.059967956054038,-0.015259021896667946,0.1373311970702389
1677618690676049,2.059967956054038,-0.015259021896667946,0.19836728465702436
1677618690692052,1.9989318684672526,-0.045777065690117524,0.19836728465702436
1677618690708055,2.059967956054038,-0.015259021896667946,0.16784924086368846
1677618690724058,2.0294499122605885,0.015259021896667946,0.106813153276903
1677618690740061,1.9989318684672526,-0.07629510948345342,0.106813153276903
1677618690756065,1.968413824673803,-0.015259021896667946,0.106813153276903
1677618690772068,2.0294499122605885,0.015259021896667946,0.1373311970702389
1677618690788071,2.059967956054038,-0.015259021896667946,0.1373311970702389
1677618690804074,2.0294499122605885,-0.07629510948345342,0.16784924086368846
1677618690820077,2.0294499122605885,-0.045777065690117524,0.16784924086368846
1677618690836080,2.059967956054038,-0.045777065690117524,0.16784924086368846
1677618690852083,2.059967956054038,-0.045777065690117524,0.106813153276903
1677618690868086,2.090485999847374,-0.106813153276903,0.16784924086368846
1677618690884090,2.090485999847374,-0.015259021896667946,0.1373311970702389
1677618690900093,2.090485999847374,0.015259021896667946,0.1373311970702389
1677618690916096,2.0294499122605885,-0.015259021896667946,0.1373311970702389
1677618690932099,1.9989318684672526,-0.045777065690117524,0.1373311970702389
1677618690948102,1.9989318684672526,-0.045777065690117524,0.19836728465702436
1677618690964111,1.9989318684672526,-0.07629510948345342,0.16784924086368846
1677618690980114,2.059967956054038,-0.045777065690117524,0.1373311970702389
1677618690996117,2.090485999847374,-0.07629510948345342,0.106813153276903
1677618691012120,2.0294499122605885,-0.106813153276903,0.106813153276903
1677618691028123,2.090485999847374,-0.045777065690117524,0.106813153276903
1677618691044127,2.090485999847374,-0.015259021896667946,0.106813153276903
1677618691060130,2.090485999847374,-0.045777065690117524,0.106813153276903
1677618691076133,2.0294499122605885,-0.045777065690117524,0.16784924086368846
1677618691092136,2.059967956054038,-0.045777065690117524,0.1373311970702389
1677618691108139,2.059967956054038,-0.045777065690117524,0.1373311970702389
1677618691124142,1.968413824673803,-0.106813153276903,0.16784924086368846
1677618691140145,2.059967956054038,-0.106813153276903,0.1373311970702389
1677618691156149,2.0294499122605885,-0.106813153276903,0.1373311970702389
1677618691172152,2.090485999847374,-0.015259021896667946,0.106813153276903
1677618691188155,2.090485999847374,-0.045777065690117524,0.1373311970702389
1677618691204158,2.059967956054038,-0.07629510948345342,0.1373311970702389
1677618691220161,2.090485999847374,-0.045777065690117524,0.1373311970702389
1677618691236164,2.0294499122605885,-0.045777065690117524,0.1373311970702389
1677618691252167,2.059967956054038,-0.045777065690117524,0.106813153276903
1677618691268170,2.059967956054038,-0.106813153276903,0.16784924086368846
1677618691284149,2.059967956054038,-0.045777065690117524,0.16784924086368846
1677618691300152,2.059967956054038,0.015259021896667946,0.19836728465702436
1677618691316155,2.0294499122605885,-0.07629510948345342,0.106813153276903
1677618691332158,1.9989318684672526,-0.106813153276903,0.1373311970702389
1677618691348161,2.0294499122605885,-0.015259021896667946,0.19836728465702436
1677618691364164,2.090485999847374,-0.07629510948345342,0.106813153276903
1677618691380168,2.059967956054038,-0.07629510948345342,0.106813153276903
1677618691396171,2.1210040436408235,-0.07629510948345342,0.19836728465702436
1677618691412174,2.0294499122605885,-0.106813153276903,0.1373311970702389
1677618691428177,2.059967956054038,-0.07629510948345342,0.16784924086368846
1677618691444180,2.0294499122605885,-0.045777065690117524,0.16784924086368846
1677618691460183,2.0294499122605885,-0.045777065690117524,0.106813153276903
1677618691476186,2.0294499122605885,-0.07629510948345342,0.106813153276903
1677618691492190,2.0294499122605885,-0.015259021896667946,0.106813153276903
1677618691508193,2.059967956054038,-0.045777065690117524,0.07629510948345342
1677618691524196,2.090485999847374,-0.045777065690117524,0.1373311970702389
1677618691540199,2.059967956054038,0.015259021896667946,0.1373311970702389
1677618691556202,2.059967956054038,-0.015259021896667946,0.1373311970702389
1677618691572205,2.059967956054038,-0.015259021896667946,0.106813153276903
1677618691588208,2.059967956054038,0.015259021896667946,0.07629510948345342
1677618691604217,2.059967956054038,-0.015259021896667946,0.1373311970702389
1677618691620220,2.090485999847374,-0.106813153276903,0.106813153276903
1677618691636223,2.090485999847374,-0.07629510948345342,0.106813153276903
1677618691652227,2.090485999847374,-0.015259021896667946,0.16784924086368846
1677618691668230,2.059967956054038,-0.015259021896667946,0.1373311970702389
1677618691684233,2.090485999847374,-0.045777065690117524,0.16784924086368846
1677618691700236,2.059967956054038,-0.015259021896667946,0.1373311970702389
1677618691716239,2.0294499122605885,-0.045777065690117524,0.16784924086368846
1677618691732242,2.059967956054038,-0.015259021896667946,0.1373311970702389
1677618691748245,2.0294499122605885,-0.07629510948345342,0.1373311970702389
1677618691764248,2.0294499122605885,-0.045777065690117524,0.16784924086368846
1677618691780252,2.059967956054038,-0.07629510948345342,0.1373311970702389
1677618691796255,2.090485999847374,-0.106813153276903,0.16784924086368846
1677618691812258,2.059967956054038,-0.07629510948345342,0.106813153276903
1677618691828261,2.090485999847374,-0.07629510948345342,0.1373311970702389
1677618691844264,2.059967956054038,-0.015259021896667946,0.1373311970702389
1677618691860267,1.9989318684672526,-0.015259021896667946,0.1373311970702389
1677618691876270,1.9989318684672526,-0.045777065690117524,0.16784924086368846
1677618691892274,1.9989318684672526,-0.07629510948345342,0.16784924086368846
1677618691908277,1.9989318684672526,-0.07629510948345342,0.16784924086368846
1677618691924286,2.059967956054038,-0.045777065690117524,0.1373311970702389
1677618691940289,2.059967956054038,-0.015259021896667946,0.1373311970702389
1677618691956292,2.059967956054038,-0.045777065690117524,0.106813153276903
1677618691972295,2.059967956054038,-0.07629510948345342,0.106813153276903
1677618691988298,2.059967956054038,-0.045777065690117524,0.1373311970702389
1677618692004301,2.059967956054038,0.015259021896667946,0.1373311970702389
1677618692020304,2.059967956054038,0.015259021896667946,0.07629510948345342
1677618692036307,2.059967956054038,-0.07629510948345342,0.1373311970702389
1677618692052311,1.9989318684672526,-0.045777065690117524,0.19836728465702436
1677618692068314,2.0294499122605885,-0.045777065690117524,0.1373311970702389
1677618692084317,2.0294499122605885,-0.045777065690117524,0.106813153276903
1677618692100320,2.0294499122605885,-0.106813153276903,0.1373311970702389
1677618692116323,2.090485999847374,-0.07629510948345342,0.106813153276903
1677618692132326,2.090485999847374,-0.07629510948345342,0.1373311970702389
1677618692148329,2.0294499122605885,-0.07629510948345342,0.1373311970702389
1677618692164332,2.090485999847374,-0.045777065690117524,0.1373311970702389
1677618692180336,2.059967956054038,-0.045777065690117524,0.1373311970702389
1677618692196339,2.0294499122605885,0.015259021896667946,0.1373311970702389
1677618692212342,2.059967956054038,0.015259021896667946,0.19836728465702436
1677618692228345,2.090485999847374,-0.045777065690117524,0.1373311970702389
1677618692244354,2.059967956054038,-0.045777065690117524,0.045777065690117524
1677618692260357,2.059967956054038,0.015259021896667946,0.07629510948345342
1677618692276360,2.0294499122605885,-0.015259021896667946,0.07629510948345342
1677618692292363,2.059967956054038,-0.045777065690117524,0.045777065690117524
1677618692308366,2.0294499122605885,-0.015259021896667946,0.1373311970702389
1677618692324370,1.937895780880467,-0.015259021896667946,0.19836728465702436
1677618692340373,2.0294499122605885,-0.015259021896667946,0.106813153276903
1677618692356376,2.059967956054038,-0.015259021896667946,0.1373311970702389
1677618692372379,2.059967956054038,0.015259021896667946,0.16784924086368846
1677618692388382,2.059967956054038,0.015259021896667946,0.19836728465702436
1677618692404385,2.059967956054038,-0.07629510948345342,0.16784924086368846
1677618692420388,2.059967956054038,-0.106813153276903,0.16784924086368846
1677618692436391,2.0294499122605885,-0.015259021896667946,0.16784924086368846
1677618692452395,2.059967956054038,0.045777065690117524,0.16784924086368846
1677618692468398,2.0294499122605885,0.015259021896667946,0.1373311970702389
1677618692484401,2.059967956054038,0.015259021896667946,0.106813153276903
1677618692500404,1.9989318684672526,-0.045777065690117524,0.16784924086368846
1677618692516407,2.059967956054038,-0.045777065690117524,0.19836728465702436
1677618692532410,2.090485999847374,-0.07629510948345342,0.16784924086368846
1677618692548413,2.090485999847374,-0.106813153276903,0.1373311970702389
1677618692564392,2.1210040436408235,-0.045777065690117524,0.1373311970702389
1677618692580395,2.090485999847374,-0.045777065690117524,0.1373311970702389
1677618692596398,2.0294499122605885,-0.015259021896667946,0.1373311970702389
1677618692612401,1.9989318684672526,-0.015259021896667946,0.1373311970702389
1677618692628404,2.0294499122605885,-0.07629510948345342,0.07629510948345342
1677618692644407,2.090485999847374,-0.07629510948345342,0.1373311970702389
1677618692660411,2.059967956054038,-0.045777065690117524,0.1373311970702389
1677618692676414,2.059967956054038,-0.015259021896667946,0.106813153276903
1677618692692417,2.059967956054038,0.015259021896667946,0.16784924086368846
1677618692708420,2.0294499122605885,-0.045777065690117524,0.16784924086368846
1677618692724423,1.9989318684672526,-0.015259021896667946,0.16784924086368846
1677618692740426,1.937895780880467,-0.07629510948345342,0.16784924086368846
1677618692756429,1.9989318684672526,-0.1373311970702389,0.106813153276903
1677618692772432,2.0294499122605885,-0.045777065690117524,0.16784924086368846
1677618692788436,1.9989318684672526,-0.045777065690117524,0.16784924086368846
1677618692804439,1.9989318684672526,-0.07629510948345342,0.106813153276903
1677618692820442,2.0294499122605885,-0.07629510948345342,0.1373311970702389
1677618692836445,1.9989318684672526,-0.015259021896667946,0.19836728465702436
1677618692852448,2.059967956054038,-0.015259021896667946,0.22888532845047393
1677618692868451,1.9989318684672526,-0.106813153276903,0.16784924086368846
1677618692884460,1.9989318684672526,-0.07629510948345342,0.16784924086368846
1677618692900463,1.9989318684672526,-0.015259021896667946,0.19836728465702436
1677618692916466,2.059967956054038,-0.045777065690117524,0.19836728465702436
1677618692932469,2.0294499122605885,-0.015259021896667946,0.106813153276903
1677618692948473,2.0294499122605885,-0.045777065690117524,0.106813153276903
1677618692964476,2.059967956054038,0.015259021896667946,0.106813153276903
1677618692980479,2.059967956054038,-0.045777065690117524,0.106813153276903
1677618692996482,2.059967956054038,-0.045777065690117524,0.1373311970702389
1677618693012485,2.0294499122605885,-0.015259021896667946,0.16784924086368846
1677618693028488,2.090485999847374,-0.045777065690117524,0.16784924086368846
1677618693044491,1.9989318684672526,-0.106813153276903,0.16784924086368846
1677618693060495,1.9989318684672526,-0.106813153276903,0.106813153276903
1677618693076498,2.0294499122605885,-0.045777065690117524,0.106813153276903
1677618693092501,2.0294499122605885,-0.015259021896667946,0.1373311970702389
1677618693108504,1.9989318684672526,0.015259021896667946,0.16784924086368846
1677618693124507,2.0294499122605885,-0.045777065690117524,0.1373311970702389
1677618693140510,2.059967956054038,-0.045777065690117524,0.1373311970702389
1677618693156513,2.0294499122605885,-0.015259021896667946,0.16784924086368846
1677618693172516,2.0294499122605885,-0.045777065690117524,0.1373311970702389
1677618693188520,2.0294499122605885,-0.045777065690117524,0.16784924086368846
1677618693204528,1.9989318684672526,-0.045777065690117524,0.16784924086368846
1677618693220532,2.059967956054038,-0.015259021896667946,0.106813153276903
1677618693236535,2.0294499122605885,-0.015259021896667946,0.106813153276903
1677618693252538,2.0294499122605885,-0.015259021896667946,0.106813153276903
1677618693268541,2.0294499122605885,-0.015259021896667946,0.1373311970702389
1677618693284544,2.0294499122605885,0.015259021896667946,0.106813153276903
1677618693300547,2.0294499122605885,0.015259021896667946,0.1373311970702389
1677618693316550,2.0294499122605885,-0.015259021896667946,0.1373311970702389
1677618693332553,1.9989318684672526,-0.07629510948345342,0.1373311970702389
1677618693348557,2.090485999847374,-0.07629510948345342,0.1373311970702389
1677618693364560,2.090485999847374,-0.07629510948345342,0.16784924086368846
1677618693380563,2.0294499122605885,-0.015259021896667946,0.19836728465702436
1677618693396566,2.0294499122605885,-0.045777065690117524,0.1373311970702389
1677618693412569,2.090485999847374,-0.045777065690117524,0.19836728465702436
1677618693428572,2.059967956054038,-0.07629510948345342,0.1373311970702389
1677618693444575,1.9989318684672526,-0.07629510948345342,0.1373311970702389
1677618693460579,2.059967956054038,-0.045777065690117524,0.16784924086368846
1677618693476582,1.9989318684672526,-0.015259021896667946,0.106813153276903
1677618693492585,1.968413824673803,0.015259021896667946,0.106813153276903
1677618693508588,2.0294499122605885,-0.015259021896667946,0.1373311970702389
1677618693524597,1.9989318684672526,-0.07629510948345342,0.106813153276903
1677618693540600,2.059967956054038,-0.015259021896667946,0.1373311970702389
1677618693556603,2.0294499122605885,0.045777065690117524,0.1373311970702389
1677618693572606,2.0294499122605885,-0.045777065690117524,0.07629510948345342
1677618693588609,2.059967956054038,-0.106813153276903,0.1373311970702389
1677618693604612,2.1210040436408235,-0.045777065690117524,0.1373311970702389
1677618693620616,2.059967956054038,-0.015259021896667946,0.1373311970702389
1677618693636619,2.090485999847374,0.045777065690117524,0.1373311970702389
1677618693652622,2.059967956054038,-0.015259021896667946,0.106813153276903
1677618693668625,2.0294499122605885,-0.07629510948345342,0.106813153276903
1677618693684628,2.090485999847374,-0.07629510948345342,0.07629510948345342
1677618693700631,2.059967956054038,-0.045777065690117524,0.106813153276903
1677618693716634,2.059967956054038,-0.015259021896667946,0.1373311970702389
1677618693732638,2.059967956054038,-0.07629510948345342,0.16784924086368846
1677618693748641,2.059967956054038,-0.045777065690117524,0.16784924086368846
1677618693764644,2.090485999847374,-0.106813153276903,0.1373311970702389
1677618693780647,1.9989318684672526,-0.07629510948345342,0.16784924086368846
1677618693796650,1.9989318684672526,-0.106813153276903,0.106813153276903
1677618693812653,2.059967956054038,-0.106813153276903,0.1373311970702389
1677618693828656,2.090485999847374,-0.07629510948345342,0.1373311970702389
1677618693844635,1.9989318684672526,-0.015259021896667946,0.19836728465702436
1677618693860638,1.9989318684672526,-0.015259021896667946,0.16784924086368846
1677618693876641,1.9989318684672526,-0.045777065690117524,0.1373311970702389
1677618693892644,1.968413824673803,-0.045777065690117524,0.16784924086368846
1677618693908647,2.059967956054038,-0.045777065690117524,0.1373311970702389
1677618693924650,2.0294499122605885,-0.07629510948345342,0.106813153276903
1677618693940653,2.0294499122605885,-0.045777065690117524,0.1373311970702389
1677618693956657,2.059967956054038,-0.045777065690117524,0.16784924086368846
1677618693972660,2.0294499122605885,-0.045777065690117524,0.16784924086368846
1677618693988663,2.0294499122605885,-0.045777065690117524,0.1373311970702389
1677618694004666,2.0294499122605885,-0.045777065690117524,0.045777065690117524
1677618694020669,1.9989318684672526,-0.015259021896667946,0.07629510948345342
1677618694036672,2.0294499122605885,-0.07629510948345342,0.1373311970702389
1677618694052675,2.0294499122605885,-0.106813153276903,0.106813153276903
1677618694068678,2.0294499122605885,-0.015259021896667946,0.16784924086368846
1677618694084682,2.0294499122605885,0.015259021896667946,0.1373311970702389
1677618694100685,2.090485999847374,-0.045777065690117524,0.16784924086368846
1677618694116688,2.059967956054038,-0.07629510948345342,0.106813153276903
1677618694132691,2.059967956054038,0.015259021896667946,0.1373311970702389
1677618694148694,2.059967956054038,0.015259021896667946,0.1373311970702389
1677618694164703,2.0294499122605885,-0.015259021896667946,0.19836728465702436
1677618694180706,2.0294499122605885,-0.07629510948345342,0.1373311970702389
1677618694196709,2.059967956054038,-0.045777065690117524,0.16784924086368846
1677618694212712,2.0294499122605885,-0.045777065690117524,0.1373311970702389
1677618694228716,2.059967956054038,-0.07629510948345342,0.1373311970702389
1677618694244719,2.059967956054038,-0.045777065690117524,0.16784924086368846
1677618694260722,2.0294499122605885,-0.045777065690117524,0.19836728465702436
1677618694276725,2.059967956054038,-0.015259021896667946,0.1373311970702389
1677618694292728,2.090485999847374,-0.045777065690117524,0.07629510948345342
1677618694308731,2.090485999847374,-0.045777065690117524,0.106813153276903
1677618694324734,2.059967956054038,0.015259021896667946,0.106813153276903
1677618694340737,2.0294499122605885,0.015259021896667946,0.07629510948345342
1677618694356741,2.0294499122605885,-0.045777065690117524,0.1373311970702389
1677618694372744,1.9989318684672526,-0.106813153276903,0.106813153276903
1677618694388747,1.9989318684672526,-0.045777065690117524,0.16784924086368846
1677618694404750,2.059967956054038,-0.015259021896667946,0.19836728465702436
1677618694420753,2.059967956054038,-0.045777065690117524,0.106813153276903
1677618694436756,1.9989318684672526,-0.07629510948345342,0.1373311970702389
1677618694452759,2.059967956054038,-0.045777065690117524,0.1373311970702389
1677618694468762,2.090485999847374,-0.07629510948345342,0.1373311970702389
1677618694484771,2.0294499122605885,-0.07629510948345342,0.1373311970702389
1677618694500774,2.0294499122605885,-0.045777065690117524,0.106813153276903
1677618694516778,1.9989318684672526,-0.015259021896667946,0.1373311970702389
1677618694532781,1.9989318684672526,0.015259021896667946,0.19836728465702436
1677618694548784,1.9989318684672526,-0.015259021896667946,0.106813153276903
1677618694564787,2.0294499122605885,-0.045777065690117524,0.1373311970702389
1677618694580790,2.0294499122605885,-0.015259021896667946,0.1373311970702389
1677618694596793,2.059967956054038,-0.015259021896667946,0.07629510948345342
1677618694612796,1.9989318684672526,-0.045777065690117524,0.106813153276903
1677618694628800,1.9989318684672526,-0.106813153276903,0.1373311970702389
1677618694644803,2.0294499122605885,-0.106813153276903,0.106813153276903
1677618694660806,2.0294499122605885,-0.07629510948345342,0.1373311970702389
1677618694676809,1.9989318684672526,-0.07629510948345342,0.1373311970702389
1677618694692812,2.0294499122605885,-0.045777065690117524,0.1373311970702389
1677618694708815,2.059967956054038,-0.015259021896667946,0.1373311970702389
1677618694724818,2.1210040436408235,0.045777065690117524,0.16784924086368846
1677618694740821,2.059967956054038,-0.015259021896667946,0.1373311970702389
1677618694756825,2.059967956054038,-0.106813153276903,0.1373311970702389
1677618694772828,2.059967956054038,-0.045777065690117524,0.19836728465702436
1677618694788831,2.090485999847374,-0.045777065690117524,0.16784924086368846
1677618694804809,2.0294499122605885,-0.015259021896667946,0.19836728465702436
1677618694820812,2.0294499122605885,-0.015259021896667946,0.19836728465702436
1677618694836815,2.090485999847374,-0.015259021896667946,0.106813153276903
1677618694852819,2.059967956054038,-0.015259021896667946,0.1373311970702389
1677618694868822,2.0294499122605885,-0.045777065690117524,0.16784924086368846
1677618694884825,2.059967956054038,-0.015259021896667946,0.1373311970702389
1677618694900828,2.059967956054038,-0.015259021896667946,0.16784924086368846
1677618694916831,2.090485999847374,-0.015259021896667946,0.16784924086368846
1677618694932834,2.090485999847374,-0.045777065690117524,0.106813153276903
1677618694948837,2.059967956054038,-0.106813153276903,0.106813153276903
1677618694964841,2.059967956054038,0.015259021896667946,0.106813153276903
1677618694980844,2.0294499122605885,-0.07629510948345342,0.1373311970702389
1677618694996847,2.090485999847374,-0.015259021896667946,0.16784924086368846
1677618695012850,2.0294499122605885,-0.045777065690117524,0.22888532845047393
1677618695028853,2.059967956054038,-0.07629510948345342,0.16784924086368846
1677618695044856,2.059967956054038,-0.045777065690117524,0.19836728465702436
1677618695060859,2.090485999847374,-0.045777065690117524,0.1373311970702389
1677618695076862,2.090485999847374,0.015259021896667946,0.106813153276903
1677618695092866,1.9989318684672526,-0.015259021896667946,0.1373311970702389
1677618695108869,2.0294499122605885,-0.07629510948345342,0.106813153276903
1677618695124878,1.9989318684672526,-0.07629510948345342,0.1373311970702389
1677618695140881,2.0294499122605885,-0.045777065690117524,0.1373311970702389
1677618695156884,1.9989318684672526,-0.045777065690117524,0.16784924086368846
1677618695172887,2.059967956054038,0.015259021896667946,0.16784924086368846
1677618695188890,2.0294499122605885,-0.045777065690117524,0.1373311970702389
1677618695204893,2.059967956054038,-0.045777065690117524,0.16784924086368846
1677618695220896,1.9989318684672526,-0.015259021896667946,0.19836728465702436
1677618695236899,1.968413824673803,0.015259021896667946,0.106813153276903
1677618695252903,2.0294499122605885,0.045777065690117524,0.07629510948345342
1677618695268906,2.059967956054038,-0.015259021896667946,0.106813153276903
1677618695284909,1.9989318684672526,-0.015259021896667946,0.16784924086368846
1677618695300912,2.0294499122605885,0.045777065690117524,0.16784924086368846
1677618695316915,2.0294499122605885,0.045777065690117524,0.106813153276903
1677618695332918,2.059967956054038,-0.07629510948345342,0.106813153276903
1677618695348921,2.0294499122605885,-0.106813153276903,0.07629510948345342
1677618695364925,2.059967956054038,-0.045777065690117524,0.16784924086368846
1677618695380928,2.0294499122605885,-0.045777065690117524,0.106813153276903
1677618695396931,2.059967956054038,-0.106813153276903,0.16784924086368846
1677618695412934,1.9989318684672526,-0.045777065690117524,0.106813153276903
1677618695428937,2.059967956054038,-0.045777065690117524,0.106813153276903
1677618695444946,2.0294499122605885,-0.015259021896667946,0.16784924086368846
1677618695460949,2.090485999847374,-0.045777065690117524,0.106813153276903
1677618695476952,2.090485999847374,-0.07629510948345342,0.1373311970702389
1677618695492955,2.059967956054038,-0.045777065690117524,0.16784924086368846
1677618695508958,2.059967956054038,-0.045777065690117524,0.16784924086368846
1677618695524962,2.1210040436408235,-0.015259021896667946,0.19836728465702436
1677618695540965,2.059967956054038,-0.015259021896667946,0.1373311970702389
1677618695556968,1.9989318684672526,-0.07629510948345342,0.106813153276903
1677618695572971,2.0294499122605885,-0.045777065690117524,0.1373311970702389
1677618695588974,2.0294499122605885,-0.015259021896667946,0.106813153276903
1677618695604977,2.059967956054038,-0.045777065690117524,0.106813153276903
1677618695620980,2.0294499122605885,0.045777065690117524,0.16784924086368846
1677618695636983,1.968413824673803,0.015259021896667946,0.16784924086368846
1677618695652987,2.0294499122605885,-0.015259021896667946,0.16784924086368846
1677618695668990,1.968413824673803,-0.015259021896667946,0.16784924086368846
1677618695684993,1.9989318684672526,-0.015259021896667946,0.106813153276903
1677618695700996,2.059967956054038,-0.045777065690117524,0.1373311970702389
1677618695716999,2.059967956054038,-0.015259021896667946,0.106813153276903
1677618695733002,2.090485999847374,-0.106813153276903,0.106813153276903
1677618695749005,2.059967956054038,-0.106813153276903,0.045777065690117524
1677618695765014,2.090485999847374,-0.106813153276903,0.1373311970702389
1677618695781017,2.0294499122605885,-0.015259021896667946,0.106813153276903
1677618695797021,2.0294499122605885,-0.07629510948345342,0.1373311970702389
1677618695813024,2.059967956054038,-0.045777065690117524,0.1373311970702389
1677618695829027,2.059967956054038,-0.045777065690117524,0.1373311970702389
1677618695845030,2.059967956054038,-0.045777065690117524,0.16784924086368846
1677618695861033,2.090485999847374,-0.015259021896667946,0.106813153276903
1677618695877036,2.1210040436408235,0.015259021896667946,0.1373311970702389
1677618695893039,2.090485999847374,-0.015259021896667946,0.16784924086368846
1677618695909042,2.059967956054038,-0.045777065690117524,0.19836728465702436
1677618695925046,2.090485999847374,-0.106813153276903,0.1373311970702389
1677618695941049,2.0294499122605885,-0.045777065690117524,0.16784924086368846
1677618695957052,2.0294499122605885,-0.045777065690117524,0.1373311970702389
1677618695973055,2.090485999847374,-0.015259021896667946,0.1373311970702389
1677618695989058,2.059967956054038,-0.106813153276903,0.106813153276903
1677618696005061,2.059967956054038,-0.045777065690117524,0.16784924086368846
1677618696021064,2.090485999847374,-0.015259021896667946,0.16784924086368846
1677618696037068,2.059967956054038,-0.07629510948345342,0.16784924086368846
1677618696053071,2.059967956054038,-0.07629510948345342,0.16784924086368846
1677618696069074,2.0294499122605885,0.015259021896667946,0.106813153276903
1677618696085052,2.0294499122605885,-0.045777065690117524,0.1373311970702389
1677618696101055,2.059967956054038,-0.07629510948345342,0.106813153276903
1677618696117058,2.090485999847374,-0.07629510948345342,0.16784924086368846
1677618696133062,2.0294499122605885,0.015259021896667946,0.1373311970702389
1677618696149065,2.0294499122605885,0.015259021896667946,0.16784924086368846
1677618696165068,1.968413824673803,-0.015259021896667946,0.16784924086368846
1677618696181071,1.9989318684672526,-0.045777065690117524,0.16784924086368846
1677618696197074,2.0294499122605885,-0.015259021896667946,0.1373311970702389
1677618696213077,1.9989318684672526,-0.045777065690117524,0.16784924086368846
1677618696229080,1.9989318684672526,-0.045777065690117524,0.1373311970702389
1677618696245083,2.090485999847374,-0.07629510948345342,0.19836728465702436
1677618696261087,2.059967956054038,-0.045777065690117524,0.16784924086368846
1677618696277090,2.059967956054038,-0.07629510948345342,0.1373311970702389
1677618696293093,2.0294499122605885,-0.106813153276903,0.16784924086368846
1677618696309096,2.090485999847374,-0.106813153276903,0.1373311970702389
1677618696325099,2.0294499122605885,-0.07629510948345342,0.1373311970702389
1677618696341102,2.059967956054038,-0.045777065690117524,0.1373311970702389
1677618696357105,2.059967956054038,-0.045777065690117524,0.106813153276903
1677618696373108,1.9989318684672526,-0.045777065690117524,0.1373311970702389
1677618696389112,1.968413824673803,-0.07629510948345342,0.1373311970702389
1677618696405120,2.059967956054038,-0.045777065690117524,0.19836728465702436
1677618696421124,2.090485999847374,-0.07629510948345342,0.16784924086368846
1677618696437127,2.0294499122605885,-0.106813153276903,0.1373311970702389
1677618696453130,2.0294499122605885,-0.106813153276903,0.1373311970702389
1677618696469133,2.059967956054038,-0.015259021896667946,0.106813153276903
1677618696485136,2.090485999847374,0.015259021896667946,0.1373311970702389
1677618696501139,2.059967956054038,0.015259021896667946,0.1373311970702389
1677618696517142,2.0294499122605885,-0.015259021896667946,0.1373311970702389
1677618696533146,1.9989318684672526,-0.07629510948345342,0.106813153276903
1677618696549149,2.0294499122605885,-0.045777065690117524,0.106813153276903
1677618696565152,2.0294499122605885,-0.045777065690117524,0.16784924086368846
1677618696581155,2.090485999847374,0.015259021896667946,0.16784924086368846
1677618696597158,2.0294499122605885,0.015259021896667946,0.1373311970702389
1677618696613161,2.090485999847374,0.015259021896667946,0.1373311970702389
