Timestamp (microseconds),Accel X (g),Accel Y (g),Accel Z (g)
1688152498673797,-0.05816739147020655,0.009948882276646032,1.0011749446860456
1688152498689795,-0.05914396887159512,0.01104753185320817,1.0006866559853513
1688152498705792,-0.05914396887159512,0.01239032578011745,0.9994659342336156
1688152498721789,-0.05780117494468584,0.008972304875257464,1.002761882963302
1688152498737787,-0.05816739147020655,0.010193026626993174,1.0020294499122606
1688152498753784,-0.059754329747462975,0.012878614480811734,1.0005645838101778
1688152498769782,-0.059754329747462975,0.012146181429770309,1.001052872510872
1688152498785779,-0.05743495841916513,0.010681315327687457,1.0011749446860456
1688152498801777,-0.05780117494468584,0.00982681010147246,1.002761882963302
1688152498817774,-0.05926604104676869,0.010559243152513886,1.001052872510872
1688152498833771,-0.05938811322194226,0.012146181429770309,0.9984893568322271
1688152498849769,-0.06012054627298369,0.014709697108415298,1.0005645838101778
1688152498865766,-0.05889982452124798,0.007507438773174613,1.0032501716639963
1688152498881764,-0.05902189669642155,0.007263294422827471,0.9977569237811856
1688152498897761,-0.06073090714885154,0.01361104753185316,1.0009308003356985
1688152498913758,-0.058533607995727266,0.011413748378728883,1.004226749065385
1688152498929756,-0.05804531929503298,0.00848401617456318,1.0023956664377813
1688152498945753,-0.05914396887159512,0.01239032578011745,0.9988555733577478
1688152498961751,-0.06024261844815726,0.011779964904249596,0.9984893568322271
1688152498977748,-0.05865568017090084,0.007873655298695326,0.9995880064087892
1688152498993744,-0.0567025253681237,0.009582665751125319,1.0038605325398642
1688152499009741,-0.05938811322194226,0.013244831006332447,1.0028839551384756
1688152499025738,-0.058411535820553695,0.011779964904249596,1.0039826047150378
1688152499041736,-0.05877775234607441,0.010193026626993174,1.0043488212405585
1688152499057733,-0.058411535820553695,0.00970473792629889,1.0022735942626078
1688152499073731,-0.05926604104676869,0.011291676203555312,0.9994659342336156
1688152499089728,-0.05951018539711583,0.012634470130464592,1.0014190890363928
1688152499105725,-0.056946669718470844,0.010803387502861028,1.0017853055619135
1688152499121723,-0.05902189669642155,0.008239871824216038,1.0026398107881285
1688152499137720,-0.05938811322194226,0.011291676203555312,1.0009308003356985
1688152499153718,-0.06024261844815726,0.012512397955291021,1.0009308003356985
1688152499169715,-0.05780117494468584,0.011657892729076025,1.0023956664377813
1688152499185712,-0.055970092317082276,0.010070954451819603,1.0049591821164263
1688152499201710,-0.05767910276951227,0.013366903181506018,1.0014190890363928
1688152499217707,-0.06182955672541368,0.013000686655985305,1.000198367284657
1688152499233705,-0.059754329747462975,0.008728160524910322,0.9997100785839628
1688152499249702,-0.05658045319295013,0.009948882276646032,1.002517738612955
1688152499265699,-0.05914396887159512,0.012634470130464592,1.0005645838101778
1688152499281697,-0.06012054627298369,0.013000686655985305,0.9987335011825742
1688152499297694,-0.058533607995727266,0.007995727473868897,1.0023956664377813
1688152499313690,-0.05914396887159512,0.007507438773174613,1.002517738612955
1688152499329687,-0.06012054627298369,0.010803387502861028,1.0015411612115663
1688152499345685,-0.060975051499198685,0.013488975356679589,0.9988555733577478
1688152499361682,-0.05767910276951227,0.011291676203555312,1.0003204394598306
1688152499377679,-0.056946669718470844,0.008850232700083893,1.0066681925688563
1688152499393677,-0.05926604104676869,0.010559243152513886,1.0012970168612192
1688152499409674,-0.05926604104676869,0.014099336232547444,0.9990997177080949
1688152499425672,-0.05902189669642155,0.0071412222476539,1.0022735942626078
1688152499441669,-0.05548180361638799,0.011169604028381741,1.004226749065385
1688152499457666,-0.06012054627298369,0.011657892729076025,1.00337224383917
1688152499473664,-0.05877775234607441,0.012146181429770309,0.9984893568322271
1688152499489661,-0.05889982452124798,0.009460593575951748,1.001052872510872
1688152499505659,-0.0575570305943387,0.010803387502861028,1.0023956664377813
1688152499521656,-0.05926604104676869,0.011413748378728883,1.0023956664377813
1688152499537654,-0.05865568017090084,0.01373311970702673,0.9990997177080949
1688152499553651,-0.05816739147020655,0.009948882276646032,1.0017853055619135
1688152499569648,-0.058411535820553695,0.010315098802166744,1.0037384603646906
1688152499585646,-0.059754329747462975,0.00970473792629889,1.00166323338674
1688152499601643,-0.058411535820553695,0.01239032578011745,0.9977569237811856
1688152499617641,-0.05914396887159512,0.010681315327687457,1.0021515220874342
1688152499633484,-0.056946669718470844,0.007751583123521755,1.0050812542916
1688152499649480,-0.0604867627985044,0.010437170977340315,1.002517738612955
1688152499665477,-0.06158541237506654,0.011902037079423167,1.0006866559853513
1688152499681474,-0.05865568017090084,0.009948882276646032,0.9989776455329213
1688152499697471,-0.05535973144121442,0.010315098802166744,1.00337224383917
1688152499713468,-0.0575570305943387,0.01226825360494388,1.0022735942626078
1688152499729465,-0.059632257572289404,0.012634470130464592,1.0012970168612192
1688152499745462,-0.059754329747462975,0.010070954451819603,1.000808728160525
1688152499761459,-0.058411535820553695,0.009094377050431035,1.0000762951094835
1688152499777456,-0.05877775234607441,0.010437170977340315,1.0022735942626078
1688152499793453,-0.05914396887159512,0.013000686655985305,1.0011749446860456
1688152499809450,-0.057312886243991557,0.011779964904249596,1.0000762951094835
1688152499825447,-0.05743495841916513,0.008972304875257464,1.0026398107881285
1688152499841444,-0.05914396887159512,0.010803387502861028,1.001052872510872
1688152499857441,-0.05951018539711583,0.012024109254596738,0.9999542229343099
1688152499873438,-0.05767910276951227,0.010803387502861028,1.000808728160525
1688152499889434,-0.057312886243991557,0.008606088349736751,1.005325398641947
1688152499905431,-0.06036469062333083,0.010070954451819603,1.0021515220874342
1688152499921428,-0.060852979324025114,0.01226825360494388,1.001052872510872
1688152499937425,-0.05877775234607441,0.010193026626993174,0.9993438620584421
1688152499953308,-0.057190814068817986,0.009338521400778177,1.0045929655909056
1688152499969304,-0.059632257572289404,0.011291676203555312,1.0022735942626078
1688152499985301,-0.05938811322194226,0.011535820553902454,1.000198367284657
1688152500001297,-0.05914396887159512,0.010437170977340315,1.000808728160525
1688152500017294,-0.05792324711985941,0.007873655298695326,1.0026398107881285
1688152500033290,-0.06073090714885154,0.010803387502861028,1.0023956664377813
1688152500049286,-0.0604867627985044,0.01226825360494388,1.0015411612115663
1688152500065283,-0.05914396887159512,0.011169604028381741,1.002761882963302
1688152500081279,-0.059632257572289404,0.007873655298695326,1.0037384603646906
1688152500097276,-0.059754329747462975,0.010681315327687457,1.00337224383917
1688152500113272,-0.059876401922636546,0.01226825360494388,1.0014190890363928
1688152500129269,-0.05926604104676869,0.011535820553902454,1.0017853055619135
1688152500145265,-0.05865568017090084,0.009582665751125319,1.0009308003356985
1688152500161262,-0.058411535820553695,0.00982681010147246,1.0031280994888228
1688152500177258,-0.06060883497367797,0.012146181429770309,1.001052872510872
1688152500193255,-0.059632257572289404,0.011779964904249596,0.9978789959563592
1688152500209251,-0.05792324711985941,0.009948882276646032,1.0047150377660792
1688152500225247,-0.056946669718470844,0.009094377050431035,1.0028839551384756
1688152500241244,-0.060975051499198685,0.011779964904249596,0.9997100785839628
1688152500257240,-0.059632257572289404,0.011413748378728883,0.9988555733577478
1688152500273101,-0.058533607995727266,0.008117799649042468,1.0022735942626078
1688152500289097,-0.0575570305943387,0.009216449225604606,1.000808728160525
1688152500305093,-0.05865568017090084,0.011413748378728883,1.002761882963302
1688152500321089,-0.06036469062333083,0.012146181429770309,1.0003204394598306
1688152500337085,-0.058289463645380124,0.010437170977340315,1.0022735942626078
1688152500353081,-0.05780117494468584,0.010803387502861028,1.0037384603646906
1688152500369077,-0.05951018539711583,0.011169604028381741,1.002761882963302
1688152500385073,-0.06036469062333083,0.01239032578011745,0.9986114290074006
1688152500401069,-0.05877775234607441,0.008606088349736751,1.0043488212405585
1688152500417065,-0.05999847409781012,0.008239871824216038,1.0056916151674677
1688152500433061,-0.05938811322194226,0.010559243152513886,1.0037384603646906
1688152500449057,-0.05877775234607441,0.012756542305638163,1.0009308003356985
1688152500465053,-0.05609216449225585,0.00848401617456318,1.002761882963302
1688152500481049,-0.055970092317082276,0.008239871824216038,1.0034943160143435
1688152500497045,-0.06195162890058725,0.011535820553902454,0.9982452124818799
1688152500513041,-0.05999847409781012,0.012634470130464592,1.0000762951094835
1688152500529037,-0.058289463645380124,0.009948882276646032,1.0026398107881285
1688152500545033,-0.05889982452124798,0.0109254596780346,1.0026398107881285
1688152500561029,-0.060975051499198685,0.012024109254596738,1.0012970168612192
1688152500577025,-0.0604867627985044,0.012146181429770309,0.9987335011825742
1688152500592865,-0.05889982452124798,0.010315098802166744,1.002517738612955
1688152500608860,-0.0575570305943387,0.008606088349736751,1.0038605325398642
1688152500624856,-0.05951018539711583,0.01226825360494388,1.000198367284657
1688152500640851,-0.06012054627298369,0.012634470130464592,1.00166323338674
1688152500656847,-0.05804531929503298,0.010315098802166744,1.00166323338674
1688152500672842,-0.058289463645380124,0.007629510948348184,1.0020294499122606
1688152500688838,-0.05951018539711583,0.01104753185320817,1.001052872510872
1688152500704833,-0.05938811322194226,0.012878614480811734,0.9976348516060121
1688152500720829,-0.057068741893644415,0.010193026626993174,0.9995880064087892
1688152500736824,-0.05767910276951227,0.008972304875257464,1.0032501716639963
1688152500752820,-0.05889982452124798,0.011657892729076025,1.0021515220874342
1688152500768815,-0.0604867627985044,0.01104753185320817,0.9994659342336156
1688152500784811,-0.058533607995727266,0.009582665751125319,1.0021515220874342
1688152500800806,-0.05792324711985941,0.010070954451819603,1.0052033264667735
1688152500816802,-0.05951018539711583,0.011413748378728883,1.0012970168612192
1688152500832797,-0.060852979324025114,0.013366903181506018,0.9999542229343099
1688152500848793,-0.05865568017090084,0.008606088349736751,1.0028839551384756
1688152500864788,-0.05682459754329727,0.010070954451819603,1.002517738612955
1688152500880784,-0.06060883497367797,0.01226825360494388,1.0012970168612192
1688152500896779,-0.06036469062333083,0.012634470130464592,1.0003204394598306
1688152500912689,-0.05804531929503298,0.010315098802166744,1.0014190890363928
1688152500928684,-0.057068741893644415,0.009460593575951748,1.0066681925688563
1688152500944679,-0.05999847409781012,0.0109254596780346,1.002517738612955
1688152500960674,-0.0604867627985044,0.012146181429770309,1.0020294499122606
1688152500976669,-0.0604867627985044,0.008850232700083893,0.9997100785839628
1688152500992664,-0.05767910276951227,0.008728160524910322,1.0032501716639963
1688152501008659,-0.05999847409781012,0.01226825360494388,1.0009308003356985
1688152501024654,-0.06121919584954583,0.012512397955291021,0.9980010681315328
1688152501040649,-0.058533607995727266,0.010681315327687457,1.0012970168612192
1688152501056644,-0.05865568017090084,0.008117799649042468,1.001907377737087
1688152501072639,-0.05926604104676869,0.011902037079423167,1.0031280994888228
1688152501088634,-0.059876401922636546,0.01361104753185316,0.9986114290074006
1688152501104629,-0.05914396887159512,0.010559243152513886,1.0003204394598306
1688152501120624,-0.0575570305943387,0.009216449225604606,1.004226749065385
1688152501136619,-0.05999847409781012,0.01104753185320817,1.0023956664377813
1688152501152614,-0.06195162890058725,0.01361104753185316,1.00166323338674
1688152501168609,-0.05951018539711583,0.009460593575951748,1.00166323338674
1688152501184604,-0.0575570305943387,0.008972304875257464,1.003616388189517
1688152501200599,-0.05926604104676869,0.012024109254596738,1.0031280994888228
1688152501216594,-0.06121919584954583,0.012146181429770309,0.9982452124818799
1688152501232483,-0.058289463645380124,0.009460593575951748,0.9998321507591363
1688152501248477,-0.05816739147020655,0.007385366598001042,1.005325398641947
1688152501264472,-0.05877775234607441,0.011902037079423167,1.004226749065385
1688152501280466,-0.05926604104676869,0.014099336232547444,1.001052872510872
1688152501296461,-0.05865568017090084,0.010070954451819603,1.001052872510872
1688152501312455,-0.05621423666742942,0.008606088349736751,1.0022735942626078
1688152501328450,-0.05938811322194226,0.011169604028381741,1.0055695429922942
1688152501344444,-0.06073090714885154,0.015075913633936011,1.0003204394598306
1688152501360439,-0.05902189669642155,0.010437170977340315,1.00166323338674
1688152501376433,-0.05889982452124798,0.008850232700083893,1.004470893415732
1688152501392428,-0.05938811322194226,0.010803387502861028,1.002517738612955
1688152501408423,-0.0613412680247194,0.013244831006332447,0.9995880064087892
1688152501424417,-0.058533607995727266,0.01104753185320817,0.9977569237811856
1688152501440412,-0.05682459754329727,0.008850232700083893,1.0023956664377813
1688152501456406,-0.05877775234607441,0.010681315327687457,1.0048371099412527
1688152501472401,-0.06024261844815726,0.014465552758068156,1.0009308003356985
1688152501488395,-0.059876401922636546,0.01226825360494388,1.0017853055619135
1688152501504390,-0.055848020141908705,0.00848401617456318,1.00337224383917
1688152501520384,-0.058289463645380124,0.00848401617456318,1.004470893415732
1688152501536379,-0.061097123674372256,0.012634470130464592,1.000198367284657
1688152501552276,-0.05938811322194226,0.011291676203555312,1.0011749446860456
1688152501568270,-0.05609216449225585,0.0061646448462653325,1.0023956664377813
1688152501584264,-0.05951018539711583,0.00982681010147246,1.001052872510872
1688152501600258,-0.06060883497367797,0.012512397955291021,1.0017853055619135
1688152501616253,-0.05914396887159512,0.011169604028381741,1.0023956664377813
1688152501632247,-0.05914396887159512,0.009582665751125319,1.0043488212405585
1688152501648241,-0.05877775234607441,0.009948882276646032,1.0039826047150378
1688152501664235,-0.06146334019989297,0.011657892729076025,1.0009308003356985
1688152501680229,-0.059876401922636546,0.011413748378728883,1.000808728160525
1688152501696223,-0.057068741893644415,0.007385366598001042,0.9988555733577478
1688152501712217,-0.059632257572289404,0.009460593575951748,1.0020294499122606
1688152501728211,-0.06060883497367797,0.012878614480811734,1.0000762951094835
1688152501744205,-0.059632257572289404,0.012024109254596738,1.0005645838101778
1688152501760199,-0.05804531929503298,0.008239871824216038,1.0038605325398642
1688152501776193,-0.058411535820553695,0.010315098802166744,1.002517738612955
1688152501792187,-0.06024261844815726,0.010193026626993174,1.0017853055619135
1688152501808181,-0.059754329747462975,0.01104753185320817,0.9995880064087892
1688152501824175,-0.058411535820553695,0.009338521400778177,1.0045929655909056
1688152501840170,-0.05804531929503298,0.0109254596780346,1.0030060273136492
1688152501856164,-0.061097123674372256,0.012634470130464592,1.0000762951094835
1688152501872039,-0.060852979324025114,0.011902037079423167,0.9990997177080949
1688152501888033,-0.058411535820553695,0.009460593575951748,1.0032501716639963
1688152501904028,-0.05865568017090084,0.010193026626993174,1.0039826047150378
1688152501920022,-0.05999847409781012,0.011291676203555312,0.9994659342336156
1688152501936016,-0.05938811322194226,0.012512397955291021,1.0006866559853513
1688152501952010,-0.058411535820553695,0.008606088349736751,1.002517738612955
1688152501968004,-0.05926604104676869,0.00848401617456318,1.0030060273136492
1688152501983998,-0.06158541237506654,0.01361104753185316,0.9992217898832685
1688152501999992,-0.059754329747462975,0.011902037079423167,0.9999542229343099
1688152502015986,-0.0575570305943387,0.008728160524910322,1.0023956664377813
1688152502031980,-0.05767910276951227,0.009460593575951748,1.0047150377660792
1688152502047974,-0.05951018539711583,0.01361104753185316,0.9995880064087892
1688152502063968,-0.06024261844815726,0.012146181429770309,0.9999542229343099
1688152502079962,-0.05877775234607441,0.008728160524910322,1.003616388189517
1688152502095956,-0.05816739147020655,0.009460593575951748,1.0032501716639963
1688152502111950,-0.05999847409781012,0.012878614480811734,0.9999542229343099
1688152502127945,-0.0604867627985044,0.011779964904249596,0.9998321507591363
1688152502143939,-0.05816739147020655,0.008117799649042468,1.0032501716639963
1688152502159933,-0.05889982452124798,0.008972304875257464,1.0047150377660792
1688152502175927,-0.0604867627985044,0.012146181429770309,1.0005645838101778
1688152502191833,-0.06121919584954583,0.012024109254596738,1.0005645838101778
1688152502207827,-0.05804531929503298,0.007629510948348184,1.000808728160525
1688152502223820,-0.05780117494468584,0.009582665751125319,1.0021515220874342
1688152502239814,-0.06060883497367797,0.013488975356679589,1.0012970168612192
1688152502255808,-0.06060883497367797,0.011413748378728883,0.9992217898832685
1688152502271801,-0.05877775234607441,0.008728160524910322,1.001052872510872
1688152502287795,-0.0575570305943387,0.009948882276646032,1.0043488212405585
1688152502303788,-0.06121919584954583,0.011291676203555312,0.9989776455329213
1688152502319782,-0.06073090714885154,0.012024109254596738,1.0015411612115663
1688152502335775,-0.058411535820553695,0.010437170977340315,1.0039826047150378
1688152502351769,-0.057190814068817986,0.008972304875257464,1.0014190890363928
1688152502367763,-0.05951018539711583,0.012146181429770309,1.0026398107881285
1688152502383756,-0.06121919584954583,0.012756542305638163,0.9961699855039292
1688152502399750,-0.05926604104676869,0.00970473792629889,1.0011749446860456
1688152502415743,-0.057312886243991557,0.009338521400778177,1.0005645838101778
1688152502431737,-0.05999847409781012,0.0109254596780346,1.00166323338674
1688152502447731,-0.05914396887159512,0.013122758831158876,0.9992217898832685
1688152502463724,-0.05767910276951227,0.010315098802166744,1.0023956664377813
1688152502479718,-0.05743495841916513,0.009338521400778177,1.0032501716639963
1688152502495711,-0.0604867627985044,0.011779964904249596,1.000808728160525
1688152502511657,-0.06121919584954583,0.012756542305638163,1.001052872510872
1688152502527650,-0.05902189669642155,0.010315098802166744,1.0015411612115663
1688152502543644,-0.057190814068817986,0.007629510948348184,1.0023956664377813
1688152502559637,-0.05999847409781012,0.011535820553902454,1.0015411612115663
1688152502575630,-0.060852979324025114,0.013855191882200302,1.0000762951094835
1688152502591623,-0.05816739147020655,0.009216449225604606,0.9999542229343099
1688152502607616,-0.05816739147020655,0.006897077897306758,1.0026398107881285
1688152502623609,-0.061097123674372256,0.01239032578011745,1.0022735942626078
1688152502639602,-0.06012054627298369,0.012634470130464592,0.9984893568322271
1688152502655595,-0.058289463645380124,0.010559243152513886,1.00166323338674
1688152502671589,-0.058289463645380124,0.00836194399938961,1.0048371099412527
1688152502687582,-0.059632257572289404,0.011779964904249596,1.0021515220874342
1688152502703575,-0.06060883497367797,0.01373311970702673,1.0003204394598306
1688152502719568,-0.05889982452124798,0.010803387502861028,1.0014190890363928
1688152502735561,-0.0575570305943387,0.00982681010147246,1.0041046768902113
1688152502751554,-0.06060883497367797,0.012634470130464592,1.000198367284657
1688152502767547,-0.06121919584954583,0.013366903181506018,0.9992217898832685
1688152502783540,-0.05914396887159512,0.010803387502861028,1.0023956664377813
1688152502799533,-0.058533607995727266,0.009338521400778177,1.00337224383917
1688152502815527,-0.05816739147020655,0.011291676203555312,1.0032501716639963
1688152502831451,-0.060852979324025114,0.012146181429770309,0.9992217898832685
1688152502847444,-0.059876401922636546,0.01104753185320817,0.9975127794308385
1688152502863437,-0.05804531929503298,0.008728160524910322,1.003616388189517
1688152502879430,-0.05951018539711583,0.011657892729076025,1.002517738612955
1688152502895424,-0.060852979324025114,0.014221408407721015,1.0012970168612192
1688152502911417,-0.05792324711985941,0.0109254596780346,1.001907377737087
1688152502927410,-0.05743495841916513,0.010315098802166744,1.004226749065385
1688152502943403,-0.058289463645380124,0.011413748378728883,1.0004425116350042
1688152502959396,-0.06060883497367797,0.01373311970702673,1.0005645838101778
1688152502975389,-0.05999847409781012,0.01104753185320817,1.0014190890363928
1688152502991382,-0.05792324711985941,0.008117799649042468,1.002517738612955
1688152503007375,-0.0604867627985044,0.011169604028381741,1.0030060273136492
1688152503023368,-0.06146334019989297,0.014465552758068156,0.9982452124818799
1688152503039362,-0.05914396887159512,0.010070954451819603,1.0012970168612192
1688152503055355,-0.05792324711985941,0.008850232700083893,1.0045929655909056
1688152503071348,-0.05877775234607441,0.010437170977340315,1.000808728160525
1688152503087341,-0.06121919584954583,0.014709697108415298,0.9982452124818799
1688152503103334,-0.059754329747462975,0.011535820553902454,1.000808728160525
1688152503119327,-0.05889982452124798,0.007507438773174613,1.0048371099412527
1688152503135320,-0.05816739147020655,0.011413748378728883,1.0030060273136492
1688152503151184,-0.060852979324025114,0.01226825360494388,1.002517738612955
1688152503167176,-0.05951018539711583,0.012512397955291021,1.0017853055619135
1688152503183169,-0.057190814068817986,0.00982681010147246,1.0043488212405585
1688152503199162,-0.05951018539711583,0.010559243152513886,1.0006866559853513
1688152503215154,-0.06073090714885154,0.013366903181506018,0.9988555733577478
1688152503231147,-0.06024261844815726,0.011779964904249596,0.9994659342336156
1688152503247140,-0.057068741893644415,0.00970473792629889,1.001907377737087
1688152503263132,-0.05914396887159512,0.00982681010147246,1.006179903868162
1688152503279125,-0.06060883497367797,0.012878614480811734,0.9994659342336156
1688152503295117,-0.05865568017090084,0.01104753185320817,1.002517738612955
1688152503311110,-0.05792324711985941,0.008239871824216038,1.0054474708171206
1688152503327103,-0.05889982452124798,0.0109254596780346,1.0030060273136492
1688152503343095,-0.06060883497367797,0.013122758831158876,1.0022735942626078
1688152503359088,-0.058289463645380124,0.010681315327687457,1.0021515220874342
1688152503375081,-0.056946669718470844,0.008850232700083893,1.005325398641947
1688152503391073,-0.05938811322194226,0.009948882276646032,1.000808728160525
1688152503407066,-0.060975051499198685,0.012634470130464592,0.9993438620584421
1688152503423059,-0.05914396887159512,0.012024109254596738,0.9995880064087892
1688152503439051,-0.056946669718470844,0.009460593575951748,1.00166323338674
1688152503455044,-0.05792324711985941,0.0109254596780346,1.00337224383917
1688152503470977,-0.0604867627985044,0.013855191882200302,1.0009308003356985
1688152503486970,-0.059632257572289404,0.01104753185320817,1.001907377737087
1688152503502962,-0.05804531929503298,0.009094377050431035,1.0047150377660792
1688152503518954,-0.0575570305943387,0.009948882276646032,1.0021515220874342
1688152503534946,-0.059632257572289404,0.013977264057373873,1.0004425116350042
1688152503550938,-0.059754329747462975,0.012756542305638163,0.9989776455329213
1688152503566930,-0.058411535820553695,0.009094377050431035,1.0023956664377813
1688152503582923,-0.059876401922636546,0.009582665751125319,1.0030060273136492
1688152503598915,-0.05938811322194226,0.013122758831158876,0.9984893568322271
1688152503614907,-0.059754329747462975,0.013977264057373873,1.000198367284657
1688152503630899,-0.05926604104676869,0.008728160524910322,1.0020294499122606
1688152503646891,-0.05889982452124798,0.008972304875257464,1.0005645838101778
1688152503662883,-0.06012054627298369,0.013000686655985305,1.000198367284657
1688152503678876,-0.060852979324025114,0.01226825360494388,1.0026398107881285
1688152503694868,-0.056946669718470844,0.009216449225604606,1.0038605325398642
1688152503710860,-0.058533607995727266,0.010315098802166744,1.0031280994888228
1688152503726852,-0.06073090714885154,0.012756542305638163,1.0009308003356985
1688152503742844,-0.05938811322194226,0.0109254596780346,1.000808728160525
1688152503758836,-0.057312886243991557,0.008850232700083893,1.0038605325398642
1688152503774829,-0.058411535820553695,0.00970473792629889,1.0026398107881285
1688152503790771,-0.059632257572289404,0.013244831006332447,1.0012970168612192
1688152503806763,-0.05951018539711583,0.010315098802166744,0.9987335011825742
1688152503822755,-0.05889982452124798,0.008972304875257464,1.0015411612115663
1688152503838748,-0.058411535820553695,0.009948882276646032,1.0031280994888228
1688152503854740,-0.06024261844815726,0.01226825360494388,1.0015411612115663
1688152503870732,-0.060852979324025114,0.011902037079423167,0.9999542229343099
1688152503886724,-0.05889982452124798,0.00848401617456318,1.0028839551384756
1688152503902716,-0.05865568017090084,0.010559243152513886,1.0021515220874342
1688152503918708,-0.059876401922636546,0.011779964904249596,1.0020294499122606
1688152503934701,-0.06024261844815726,0.011169604028381741,1.000198367284657
1688152503950693,-0.05804531929503298,0.009094377050431035,1.0032501716639963
1688152503966685,-0.05889982452124798,0.009094377050431035,1.005325398641947
1688152503982677,-0.06012054627298369,0.011779964904249596,0.9989776455329213
1688152503998669,-0.0613412680247194,0.01226825360494388,1.0000762951094835
1688152504014661,-0.05938811322194226,0.009216449225604606,1.002517738612955
1688152504030654,-0.05804531929503298,0.009216449225604606,1.0017853055619135
1688152504046646,-0.060852979324025114,0.01104753185320817,0.9995880064087892
1688152504062638,-0.061097123674372256,0.011902037079423167,0.9995880064087892
1688152504078630,-0.05804531929503298,0.010070954451819603,1.0014190890363928
1688152504094622,-0.05865568017090084,0.009094377050431035,1.0026398107881285
1688152504110565,-0.06073090714885154,0.012024109254596738,1.0011749446860456
1688152504126557,-0.06024261844815726,0.011291676203555312,0.9982452124818799
1688152504142549,-0.058533607995727266,0.009460593575951748,1.0030060273136492
1688152504158541,-0.05914396887159512,0.009582665751125319,1.00166323338674
1688152504174533,-0.05951018539711583,0.013122758831158876,1.0015411612115663
1688152504190526,-0.06012054627298369,0.01361104753185316,1.00166323338674
1688152504206518,-0.058411535820553695,0.009460593575951748,1.0004425116350042
1688152504222510,-0.05877775234607441,0.009582665751125319,1.0026398107881285
1688152504238502,-0.0604867627985044,0.012756542305638163,0.9988555733577478
1688152504254494,-0.06073090714885154,0.0109254596780346,0.9982452124818799
1688152504270486,-0.058411535820553695,0.009338521400778177,1.0009308003356985
1688152504286479,-0.057190814068817986,0.00970473792629889,1.0015411612115663
1688152504302471,-0.05926604104676869,0.011535820553902454,1.0017853055619135
1688152504318463,-0.06060883497367797,0.011779964904249596,0.9995880064087892
1688152504334455,-0.05889982452124798,0.010315098802166744,1.000198367284657
1688152504350447,-0.058289463645380124,0.00836194399938961,1.0043488212405585
1688152504366439,-0.0604867627985044,0.011535820553902454,1.0020294499122606
1688152504382432,-0.06024261844815726,0.013244831006332447,1.000198367284657
1688152504398424,-0.058533607995727266,0.011291676203555312,0.9993438620584421
1688152504414416,-0.05621423666742942,0.00848401617456318,1.0032501716639963
1688152504430359,-0.059876401922636546,0.012878614480811734,1.0006866559853513
1688152504446350,-0.05951018539711583,0.01373311970702673,0.9994659342336156
1688152504462342,-0.05926604104676869,0.009094377050431035,1.0022735942626078
1688152504478334,-0.05780117494468584,0.008728160524910322,1.0050812542916
1688152504494325,-0.05914396887159512,0.012756542305638163,1.0034943160143435
1688152504510317,-0.06073090714885154,0.01373311970702673,0.9993438620584421
1688152504526309,-0.05804531929503298,0.009094377050431035,1.00337224383917
1688152504542300,-0.05548180361638799,0.008850232700083893,1.0059357595178149
1688152504558292,-0.059876401922636546,0.01226825360494388,1.0023956664377813
1688152504574284,-0.06195162890058725,0.012756542305638163,0.9999542229343099
1688152504590275,-0.05938811322194226,0.010437170977340315,1.0014190890363928
1688152504606267,-0.058289463645380124,0.009094377050431035,1.0052033264667735
1688152504622259,-0.05926604104676869,0.012146181429770309,1.0038605325398642
1688152504638250,-0.06121919584954583,0.014221408407721015,0.9992217898832685
1688152504654242,-0.05951018539711583,0.010437170977340315,0.9976348516060121
1688152504670234,-0.05767910276951227,0.0071412222476539,1.0028839551384756
1688152504686226,-0.05889982452124798,0.011291676203555312,1.0011749446860456
1688152504702217,-0.06073090714885154,0.01373311970702673,0.9981231403067063
1688152504718209,-0.05816739147020655,0.011779964904249596,1.0014190890363928
1688152504734201,-0.05816739147020655,0.008850232700083893,1.0041046768902113
1688152504750152,-0.05999847409781012,0.011535820553902454,1.0022735942626078
1688152504766144,-0.06073090714885154,0.012878614480811734,1.0028839551384756
1688152504782136,-0.058289463645380124,0.012146181429770309,1.0034943160143435
1688152504798127,-0.057312886243991557,0.00982681010147246,1.0060578316929885
1688152504814119,-0.05889982452124798,0.00970473792629889,1.003616388189517
1688152504830111,-0.05951018539711583,0.013488975356679589,0.9971465629053178
1688152504846102,-0.05889982452124798,0.011657892729076025,1.00166323338674
1688152504862094,-0.05804531929503298,0.009948882276646032,1.0026398107881285
1688152504878086,-0.059876401922636546,0.00982681010147246,1.0022735942626078
1688152504894077,-0.060975051499198685,0.011535820553902454,1.001052872510872
1688152504910069,-0.060852979324025114,0.009948882276646032,1.00166323338674
1688152504926061,-0.058411535820553695,0.007873655298695326,1.0034943160143435
1688152504942052,-0.058533607995727266,0.010437170977340315,1.0021515220874342
1688152504958044,-0.059754329747462975,0.013000686655985305,0.9999542229343099
1688152504974036,-0.05902189669642155,0.011169604028381741,1.0014190890363928
1688152504990028,-0.058289463645380124,0.008606088349736751,1.0028839551384756
1688152505006019,-0.05877775234607441,0.009338521400778177,1.003616388189517
1688152505022011,-0.059632257572289404,0.012512397955291021,0.9989776455329213
1688152505038003,-0.05816739147020655,0.009948882276646032,0.9998321507591363
1688152505053994,-0.05780117494468584,0.00836194399938961,1.0038605325398642
1688152505069946,-0.05938811322194226,0.011657892729076025,1.004226749065385
1688152505085938,-0.06012054627298369,0.01361104753185316,0.9999542229343099
1688152505101929,-0.058289463645380124,0.011291676203555312,1.001052872510872
1688152505117921,-0.05804531929503298,0.008239871824216038,1.0011749446860456
1688152505133913,-0.05816739147020655,0.01104753185320817,1.0032501716639963
1688152505149904,-0.061097123674372256,0.014343480582894585,1.0000762951094835
1688152505165896,-0.0575570305943387,0.011902037079423167,1.0011749446860456
1688152505181888,-0.057312886243991557,0.008972304875257464,1.0031280994888228
1688152505197879,-0.05743495841916513,0.010070954451819603,1.0032501716639963
1688152505213871,-0.06073090714885154,0.013488975356679589,1.0003204394598306
1688152505229863,-0.06024261844815726,0.011902037079423167,1.0009308003356985
1688152505245854,-0.05767910276951227,0.00848401617456318,1.0037384603646906
1688152505261846,-0.058533607995727266,0.01104753185320817,1.0000762951094835
1688152505277838,-0.06073090714885154,0.01361104753185316,1.0003204394598306
1688152505293830,-0.059754329747462975,0.012512397955291021,1.000808728160525
1688152505309821,-0.058289463645380124,0.00848401617456318,1.0022735942626078
1688152505325813,-0.05938811322194226,0.00982681010147246,1.0028839551384756
1688152505341805,-0.06158541237506654,0.015075913633936011,1.0004425116350042
1688152505357796,-0.05914396887159512,0.0109254596780346,0.9999542229343099
1688152505373788,-0.05743495841916513,0.008117799649042468,1.004226749065385
1688152505389740,-0.058411535820553695,0.009216449225604606,1.0031280994888228
1688152505405731,-0.0613412680247194,0.013122758831158876,0.9984893568322271
1688152505421722,-0.05926604104676869,0.011902037079423167,1.000808728160525
1688152505437713,-0.05804531929503298,0.009948882276646032,1.0006866559853513
1688152505453704,-0.058411535820553695,0.00982681010147246,1.001907377737087
1688152505469696,-0.06024261844815726,0.012146181429770309,0.9994659342336156
1688152505485687,-0.06024261844815726,0.011779964904249596,1.0000762951094835
1688152505501678,-0.05804531929503298,0.009338521400778177,1.001052872510872
1688152505517669,-0.058533607995727266,0.008117799649042468,1.0030060273136492
1688152505533661,-0.05926604104676869,0.012512397955291021,0.9981231403067063
1688152505549652,-0.06024261844815726,0.01239032578011745,1.0004425116350042
1688152505565643,-0.05804531929503298,0.009460593575951748,1.0020294499122606
1688152505581634,-0.058533607995727266,0.009338521400778177,1.00337224383917
1688152505597625,-0.060852979324025114,0.012512397955291021,1.0006866559853513
1688152505613617,-0.06036469062333083,0.01239032578011745,1.0005645838101778
1688152505629608,-0.05865568017090084,0.00836194399938961,1.001907377737087
1688152505645599,-0.05877775234607441,0.009094377050431035,1.002517738612955
1688152505661590,-0.05938811322194226,0.012512397955291021,1.001052872510872
1688152505677581,-0.059876401922636546,0.012634470130464592,0.9997100785839628
1688152505693573,-0.05816739147020655,0.00982681010147246,1.002761882963302
1688152505709503,-0.05767910276951227,0.009582665751125319,1.0034943160143435
1688152505725494,-0.059754329747462975,0.013244831006332447,1.002761882963302
1688152505741485,-0.059876401922636546,0.01239032578011745,0.9994659342336156
1688152505757476,-0.05816739147020655,0.009216449225604606,1.0066681925688563
1688152505773468,-0.05889982452124798,0.00982681010147246,1.003616388189517
1688152505789459,-0.06012054627298369,0.012512397955291021,1.0009308003356985
1688152505805450,-0.05999847409781012,0.012512397955291021,0.9995880064087892
1688152505821441,-0.05877775234607441,0.007751583123521755,1.0048371099412527
1688152505837432,-0.05804531929503298,0.009338521400778177,1.0026398107881285
1688152505853424,-0.0604867627985044,0.011535820553902454,1.0000762951094835
1688152505869415,-0.05938811322194226,0.01226825360494388,0.9984893568322271
1688152505885406,-0.05804531929503298,0.010070954451819603,1.0014190890363928
1688152505901397,-0.05804531929503298,0.010193026626993174,1.0039826047150378
1688152505917389,-0.059876401922636546,0.012146181429770309,0.9998321507591363
1688152505933380,-0.059876401922636546,0.012512397955291021,0.9977569237811856
1688152505949371,-0.058533607995727266,0.009338521400778177,1.002517738612955
1688152505965362,-0.058533607995727266,0.00848401617456318,1.0059357595178149
1688152505981353,-0.059632257572289404,0.013000686655985305,1.0009308003356985
1688152505997345,-0.06073090714885154,0.011413748378728883,1.0012970168612192
1688152506013336,-0.058533607995727266,0.00982681010147246,1.0031280994888228
1688152506029297,-0.05767910276951227,0.009338521400778177,1.0043488212405585
1688152506045288,-0.06036469062333083,0.00970473792629889,1.0012970168612192
1688152506061279,-0.059754329747462975,0.011169604028381741,0.9994659342336156
1688152506077270,-0.058533607995727266,0.008850232700083893,1.0012970168612192
1688152506093261,-0.0575570305943387,0.007873655298695326,1.002761882963302
1688152506109253,-0.059754329747462975,0.011169604028381741,1.0023956664377813
1688152506125244,-0.06024261844815726,0.013000686655985305,0.9993438620584421
1688152506141235,-0.05889982452124798,0.010437170977340315,1.0032501716639963
1688152506157226,-0.05877775234607441,0.008728160524910322,1.0043488212405585
1688152506173217,-0.059632257572289404,0.013000686655985305,0.9999542229343099
1688152506189209,-0.06121919584954583,0.01373311970702673,0.9980010681315328
1688152506205200,-0.05767910276951227,0.009338521400778177,1.000808728160525
1688152506221191,-0.05767910276951227,0.009216449225604606,1.0041046768902113
1688152506237182,-0.06012054627298369,0.012634470130464592,1.0034943160143435
1688152506253173,-0.0613412680247194,0.013488975356679589,0.9989776455329213
1688152506269165,-0.05902189669642155,0.01104753185320817,1.0011749446860456
1688152506285156,-0.057068741893644415,0.00836194399938961,1.00337224383917
1688152506301147,-0.05865568017090084,0.011291676203555312,1.0017853055619135
1688152506317138,-0.062317845426107965,0.009338521400778177,0.9973907072556649
1688152506333130,-0.05926604104676869,0.011902037079423167,0.9983672846570535
1688152506349090,-0.05560387579156156,0.009094377050431035,1.00337224383917
1688152506365081,-0.058289463645380124,0.009582665751125319,1.0015411612115663
1688152506381072,-0.06158541237506654,0.012634470130464592,0.9990997177080949
1688152506397062,-0.06060883497367797,0.010559243152513886,0.9980010681315328
1688152506413053,-0.058289463645380124,0.007873655298695326,1.0003204394598306
1688152506429044,-0.06170748455024011,0.012756542305638163,1.0004425116350042
1688152506445035,-0.060975051499198685,0.015442130159456724,1.0000762951094835
1688152506461025,-0.058289463645380124,0.011413748378728883,1.0004425116350042
1688152506477016,-0.057190814068817986,0.008972304875257464,1.003616388189517
1688152506493007,-0.057312886243991557,0.012634470130464592,1.0047150377660792
1688152506508998,-0.060852979324025114,0.013977264057373873,0.9989776455329213
1688152506524988,-0.058289463645380124,0.00982681010147246,1.0026398107881285
1688152506540979,-0.0567025253681237,0.00836194399938961,1.0048371099412527
1688152506556970,-0.058289463645380124,0.009094377050431035,1.0003204394598306
1688152506572960,-0.06121919584954583,0.012878614480811734,0.9998321507591363
1688152506588951,-0.05865568017090084,0.011657892729076025,0.9999542229343099
1688152506604942,-0.057312886243991557,0.0071412222476539,1.003616388189517
1688152506620933,-0.05877775234607441,0.009216449225604606,0.9995880064087892
1688152506636923,-0.061097123674372256,0.011902037079423167,0.9993438620584421
1688152506652914,-0.06073090714885154,0.011779964904249596,0.9999542229343099
1688152506668884,-0.057190814068817986,0.00982681010147246,1.0030060273136492
1688152506684875,-0.05865568017090084,0.00982681010147246,1.0026398107881285
1688152506700865,-0.05951018539711583,0.01361104753185316,0.9994659342336156
1688152506716856,-0.06036469062333083,0.010193026626993174,0.9994659342336156
1688152506732847,-0.05914396887159512,0.007263294422827471,1.0055695429922942
1688152506748838,-0.06012054627298369,0.011413748378728883,1.0014190890363928
1688152506764828,-0.06024261844815726,0.01226825360494388,1.00166323338674
1688152506780819,-0.05951018539711583,0.013000686655985305,0.9989776455329213
1688152506796810,-0.056946669718470844,0.007629510948348184,1.0047150377660792
1688152506812801,-0.05999847409781012,0.010803387502861028,1.0038605325398642
1688152506828791,-0.06182955672541368,0.013488975356679589,1.0003204394598306
1688152506844782,-0.059754329747462975,0.010193026626993174,1.0006866559853513
1688152506860773,-0.05902189669642155,0.007873655298695326,1.004226749065385
1688152506876763,-0.05877775234607441,0.011779964904249596,1.002761882963302
1688152506892754,-0.060852979324025114,0.012634470130464592,0.9973907072556649
1688152506908745,-0.0604867627985044,0.011779964904249596,0.9992217898832685
1688152506924736,-0.057068741893644415,0.010315098802166744,1.0021515220874342
1688152506940726,-0.058533607995727266,0.011169604028381741,1.002761882963302
1688152506956717,-0.060975051499198685,0.011779964904249596,0.9995880064087892
1688152506972708,-0.059754329747462975,0.010437170977340315,1.0009308003356985
1688152506988647,-0.05743495841916513,0.00982681010147246,1.0037384603646906
1688152507004638,-0.05877775234607441,0.010437170977340315,1.0020294499122606
1688152507020629,-0.059876401922636546,0.01361104753185316,1.0004425116350042
1688152507036619,-0.05889982452124798,0.011291676203555312,1.001052872510872
1688152507052610,-0.057312886243991557,0.008117799649042468,1.004226749065385
1688152507068601,-0.05902189669642155,0.009948882276646032,1.004226749065385
1688152507084591,-0.05914396887159512,0.01361104753185316,1.0003204394598306
1688152507100582,-0.05938811322194226,0.010559243152513886,1.0004425116350042
1688152507116573,-0.0567025253681237,0.00836194399938961,1.0048371099412527
1688152507132564,-0.058289463645380124,0.009460593575951748,1.0023956664377813
1688152507148554,-0.06121919584954583,0.012634470130464592,0.9984893568322271
1688152507164545,-0.05951018539711583,0.011413748378728883,0.9997100785839628
1688152507180536,-0.057312886243991557,0.007385366598001042,1.0020294499122606
1688152507196527,-0.058289463645380124,0.010681315327687457,1.003616388189517
1688152507212517,-0.06024261844815726,0.012634470130464592,1.001907377737087
1688152507228508,-0.05926604104676869,0.011902037079423167,0.9994659342336156
1688152507244499,-0.0575570305943387,0.008728160524910322,1.0026398107881285
1688152507260490,-0.05877775234607441,0.00982681010147246,1.00337224383917
1688152507276480,-0.059876401922636546,0.012878614480811734,1.0009308003356985
1688152507292471,-0.058533607995727266,0.012024109254596738,1.0006866559853513
1688152507308441,-0.05902189669642155,0.008850232700083893,1.0026398107881285
1688152507324431,-0.058411535820553695,0.009338521400778177,1.0032501716639963
1688152507340421,-0.06012054627298369,0.013855191882200302,1.000198367284657
1688152507356412,-0.06024261844815726,0.011535820553902454,0.9982452124818799
1688152507372402,-0.058411535820553695,0.008850232700083893,1.0026398107881285
1688152507388392,-0.05743495841916513,0.009460593575951748,1.0030060273136492
1688152507404382,-0.05938811322194226,0.011779964904249596,0.9987335011825742
1688152507420373,-0.060852979324025114,0.012024109254596738,1.0000762951094835
1688152507436363,-0.05877775234607441,0.009460593575951748,1.0045929655909056
1688152507452353,-0.05633630884260299,0.007995727473868897,1.0032501716639963
1688152507468343,-0.05926604104676869,0.011902037079423167,0.9990997177080949
1688152507484334,-0.060975051499198685,0.01239032578011745,1.0005645838101778
1688152507500324,-0.057068741893644415,0.009460593575951748,1.0022735942626078
1688152507516314,-0.058411535820553695,0.010681315327687457,1.0041046768902113
1688152507532304,-0.06024261844815726,0.012512397955291021,1.002761882963302
1688152507548295,-0.059876401922636546,0.013000686655985305,0.9999542229343099
1688152507564285,-0.05902189669642155,0.009582665751125319,1.0026398107881285
1688152507580275,-0.05877775234607441,0.010070954451819603,1.0049591821164263
1688152507596265,-0.06170748455024011,0.01361104753185316,1.0021515220874342
1688152507612256,-0.06182955672541368,0.013366903181506018,1.0009308003356985
1688152507628265,-0.05889982452124798,0.00848401617456318,1.0034943160143435
1688152507644255,-0.05780117494468584,0.008728160524910322,1.0021515220874342
1688152507660246,-0.058533607995727266,0.01361104753185316,1.0031280994888228
1688152507676236,-0.06073090714885154,0.014099336232547444,0.9988555733577478
1688152507692226,-0.058533607995727266,0.009582665751125319,1.0028839551384756
1688152507708216,-0.05792324711985941,0.009460593575951748,1.0034943160143435
1688152507724207,-0.05999847409781012,0.01373311970702673,1.0021515220874342
1688152507740197,-0.060975051499198685,0.013488975356679589,0.9994659342336156
1688152507756187,-0.058289463645380124,0.009216449225604606,1.0030060273136492
1688152507772177,-0.05767910276951227,0.008972304875257464,1.0041046768902113
1688152507788168,-0.0604867627985044,0.012878614480811734,0.9981231403067063
1688152507804158,-0.06073090714885154,0.011413748378728883,0.9995880064087892
1688152507820148,-0.05816739147020655,0.010681315327687457,1.0017853055619135
1688152507836138,-0.05816739147020655,0.008606088349736751,1.004226749065385
1688152507852129,-0.059632257572289404,0.011902037079423167,1.002517738612955
1688152507868119,-0.05951018539711583,0.014343480582894585,0.9973907072556649
1688152507884109,-0.05914396887159512,0.009338521400778177,1.0031280994888228
1688152507900099,-0.05633630884260299,0.00836194399938961,1.0032501716639963
1688152507916090,-0.059754329747462975,0.011291676203555312,1.0030060273136492
1688152507932080,-0.060852979324025114,0.013855191882200302,0.9998321507591363
1688152507948059,-0.058411535820553695,0.009216449225604606,1.0003204394598306
1688152507964049,-0.057190814068817986,0.007751583123521755,1.0031280994888228
1688152507980039,-0.059876401922636546,0.011657892729076025,1.0011749446860456
1688152507996029,-0.060852979324025114,0.013366903181506018,1.0000762951094835
1688152508012020,-0.057312886243991557,0.009948882276646032,1.0005645838101778
1688152508028010,-0.057312886243991557,0.008117799649042468,1.0014190890363928
1688152508044000,-0.059632257572289404,0.012024109254596738,1.0021515220874342
1688152508059991,-0.05999847409781012,0.013000686655985305,1.000808728160525
1688152508075981,-0.05999847409781012,0.00970473792629889,0.9989776455329213
1688152508091971,-0.05743495841916513,0.00836194399938961,1.004226749065385
1688152508107961,-0.05938811322194226,0.00848401617456318,1.0043488212405585
1688152508123952,-0.06158541237506654,0.013855191882200302,0.9992217898832685
1688152508139942,-0.05926604104676869,0.010559243152513886,1.0004425116350042
1688152508155932,-0.058411535820553695,0.008972304875257464,1.0022735942626078
1688152508171922,-0.06012054627298369,0.011535820553902454,1.0031280994888228
1688152508187913,-0.05999847409781012,0.01373311970702673,0.9997100785839628
1688152508203903,-0.058533607995727266,0.010315098802166744,1.0026398107881285
1688152508219893,-0.056946669718470844,0.007629510948348184,1.0039826047150378
1688152508235883,-0.059632257572289404,0.011291676203555312,1.0037384603646906
1688152508251874,-0.06024261844815726,0.013366903181506018,0.9989776455329213
1688152508267822,-0.059876401922636546,0.011535820553902454,1.0012970168612192
1688152508283812,-0.05804531929503298,0.009338521400778177,1.0030060273136492
1688152508299802,-0.058411535820553695,0.011535820553902454,1.0023956664377813
1688152508315793,-0.059754329747462975,0.012878614480811734,1.000198367284657
1688152508331783,-0.05926604104676869,0.010559243152513886,1.0022735942626078
1688152508347773,-0.058533607995727266,0.00836194399938961,1.0032501716639963
1688152508363763,-0.059632257572289404,0.010681315327687457,1.001907377737087
1688152508379754,-0.06060883497367797,0.013000686655985305,0.9984893568322271
1688152508395744,-0.05877775234607441,0.011535820553902454,1.0006866559853513
1688152508411734,-0.057312886243991557,0.007507438773174613,1.004226749065385
1688152508427724,-0.06036469062333083,0.010559243152513886,1.0022735942626078
1688152508443715,-0.06121919584954583,0.011902037079423167,1.0009308003356985
1688152508459705,-0.059876401922636546,0.010559243152513886,1.0005645838101778
1688152508475695,-0.058289463645380124,0.008239871824216038,1.0043488212405585
1688152508491685,-0.059754329747462975,0.009338521400778177,1.0031280994888228
1688152508507676,-0.06158541237506654,0.01239032578011745,1.0000762951094835
1688152508523666,-0.05951018539711583,0.010803387502861028,0.9994659342336156
1688152508539656,-0.05792324711985941,0.008850232700083893,1.0015411612115663
1688152508555647,-0.05999847409781012,0.011169604028381741,1.0011749446860456
1688152508571637,-0.06170748455024011,0.012878614480811734,1.0000762951094835
1688152508587616,-0.059876401922636546,0.010559243152513886,1.0005645838101778
1688152508603606,-0.05816739147020655,0.009948882276646032,1.0063019760433356
1688152508619596,-0.058289463645380124,0.012146181429770309,1.002761882963302
1688152508635586,-0.05914396887159512,0.01495384145876244,0.9982452124818799
1688152508651577,-0.05951018539711583,0.01104753185320817,1.000198367284657
1688152508667567,-0.05816739147020655,0.008728160524910322,1.0031280994888228
1688152508683557,-0.05951018539711583,0.012024109254596738,1.0031280994888228
1688152508699547,-0.05999847409781012,0.011657892729076025,0.9992217898832685
1688152508715538,-0.059632257572289404,0.010437170977340315,1.0009308003356985
1688152508731528,-0.05877775234607441,0.009460593575951748,1.0034943160143435
1688152508747518,-0.05938811322194226,0.010193026626993174,1.0021515220874342
1688152508763508,-0.06146334019989297,0.013977264057373873,0.9994659342336156
1688152508779499,-0.058289463645380124,0.009582665751125319,0.9992217898832685
1688152508795489,-0.058533607995727266,0.008728160524910322,1.0028839551384756
1688152508811479,-0.05865568017090084,0.011657892729076025,1.0000762951094835
1688152508827469,-0.05999847409781012,0.013488975356679589,1.0014190890363928
1688152508843460,-0.06073090714885154,0.011902037079423167,0.9997100785839628
1688152508859450,-0.056946669718470844,0.008972304875257464,1.0032501716639963
1688152508875440,-0.060975051499198685,0.010803387502861028,1.0028839551384756
1688152508891430,-0.05902189669642155,0.01361104753185316,1.0012970168612192
1688152508907409,-0.05865568017090084,0.009338521400778177,1.005325398641947
1688152508923400,-0.05938811322194226,0.007751583123521755,1.0028839551384756
1688152508939390,-0.05792324711985941,0.010193026626993174,1.0039826047150378
1688152508955380,-0.06073090714885154,0.013244831006332447,1.001052872510872
1688152508971370,-0.05780117494468584,0.010803387502861028,0.9993438620584421
1688152508987361,-0.05767910276951227,0.008239871824216038,1.002761882963302
1688152509003351,-0.057312886243991557,0.010559243152513886,1.002761882963302
1688152509019341,-0.06268406195162912,0.013244831006332447,1.0006866559853513
1688152509035331,-0.05914396887159512,0.011902037079423167,1.0004425116350042
1688152509051322,-0.05682459754329727,0.010193026626993174,1.002517738612955
1688152509067312,-0.05816739147020655,0.009338521400778177,1.004470893415732
1688152509083302,-0.059754329747462975,0.01361104753185316,1.0004425116350042
1688152509099292,-0.059754329747462975,0.011169604028381741,1.001052872510872
1688152509115283,-0.05682459754329727,0.007873655298695326,1.0055695429922942
1688152509131273,-0.05951018539711583,0.010803387502861028,1.001052872510872
1688152509147263,-0.06060883497367797,0.012878614480811734,0.9997100785839628
1688152509163253,-0.05999847409781012,0.010315098802166744,1.001052872510872
1688152509179244,-0.05914396887159512,0.00848401617456318,1.003616388189517
1688152509195234,-0.05889982452124798,0.009460593575951748,1.0039826047150378
1688152509211224,-0.060975051499198685,0.012512397955291021,0.9984893568322271
1688152509227203,-0.06036469062333083,0.012756542305638163,1.0003204394598306
1688152509243193,-0.05804531929503298,0.009460593575951748,1.0015411612115663
1688152509259183,-0.059632257572289404,0.00982681010147246,1.00337224383917
1688152509275172,-0.06121919584954583,0.011413748378728883,1.0020294499122606
1688152509291162,-0.0604867627985044,0.01373311970702673,0.9983672846570535
1688152509307152,-0.0575570305943387,0.010070954451819603,1.0037384603646906
1688152509323142,-0.05902189669642155,0.011902037079423167,1.002517738612955
1688152509339131,-0.06158541237506654,0.012512397955291021,1.0004425116350042
1688152509355121,-0.059876401922636546,0.012878614480811734,0.9984893568322271
1688152509371111,-0.0575570305943387,0.009582665751125319,0.9993438620584421
1688152509387101,-0.05804531929503298,0.009094377050431035,1.0055695429922942
1688152509403091,-0.0604867627985044,0.013122758831158876,1.0005645838101778
1688152509419080,-0.06073090714885154,0.012634470130464592,0.9978789959563592
1688152509435070,-0.05816739147020655,0.009338521400778177,1.001907377737087
1688152509451060,-0.05780117494468584,0.009094377050431035,1.0038605325398642
1688152509467050,-0.05938811322194226,0.01239032578011745,1.0000762951094835
1688152509483039,-0.06024261844815726,0.012634470130464592,1.001052872510872
1688152509499029,-0.058289463645380124,0.00836194399938961,1.0026398107881285
1688152509515019,-0.058411535820553695,0.009094377050431035,1.0028839551384756
1688152509531009,-0.05951018539711583,0.012146181429770309,1.0004425116350042
1688152509546966,-0.06060883497367797,0.013366903181506018,1.00166323338674
1688152509562956,-0.05865568017090084,0.008239871824216038,1.003616388189517
1688152509578946,-0.058533607995727266,0.010070954451819603,1.004226749065385
1688152509594936,-0.05914396887159512,0.011169604028381741,1.0006866559853513
1688152509610925,-0.05951018539711583,0.013122758831158876,0.9980010681315328
1688152509626915,-0.05792324711985941,0.008850232700083893,1.0009308003356985
1688152509642905,-0.05877775234607441,0.009094377050431035,1.003616388189517
1688152509658895,-0.06073090714885154,0.013366903181506018,1.0028839551384756
1688152509674884,-0.06121919584954583,0.011902037079423167,1.0004425116350042
1688152509690874,-0.06012054627298369,0.009338521400778177,1.0026398107881285
1688152509706864,-0.058289463645380124,0.00836194399938961,1.0047150377660792
1688152509722854,-0.05938811322194226,0.01226825360494388,1.0030060273136492
1688152509738844,-0.06121919584954583,0.01226825360494388,0.9988555733577478
1688152509754833,-0.05865568017090084,0.00970473792629889,1.0005645838101778
1688152509770823,-0.05792324711985941,0.007995727473868897,1.0052033264667735
1688152509786813,-0.059876401922636546,0.01239032578011745,1.001907377737087
1688152509802803,-0.06024261844815726,0.012146181429770309,0.9997100785839628
1688152509818792,-0.05914396887159512,0.010437170977340315,1.0006866559853513
1688152509834782,-0.05767910276951227,0.008606088349736751,1.0038605325398642
1688152509850772,-0.06060883497367797,0.011657892729076025,1.0006866559853513
1688152509866760,-0.059876401922636546,0.01361104753185316,1.00166323338674
1688152509882750,-0.05902189669642155,0.010193026626993174,1.002761882963302
1688152509898739,-0.057312886243991557,0.009460593575951748,1.0032501716639963
1688152509914729,-0.05999847409781012,0.0109254596780346,1.0014190890363928
1688152509930719,-0.05902189669642155,0.012146181429770309,1.0012970168612192
1688152509946709,-0.058289463645380124,0.011902037079423167,1.0028839551384756
1688152509962699,-0.05816739147020655,0.00848401617456318,1.00337224383917
1688152509978688,-0.06036469062333083,0.011779964904249596,1.0020294499122606
1688152509994678,-0.06024261844815726,0.01239032578011745,1.0030060273136492
1688152510010668,-0.0575570305943387,0.010803387502861028,1.0014190890363928
1688152510026658,-0.057190814068817986,0.009216449225604606,1.0048371099412527
1688152510042647,-0.059632257572289404,0.010437170977340315,1.0023956664377813
1688152510058637,-0.06182955672541368,0.013122758831158876,1.0009308003356985
1688152510074627,-0.05999847409781012,0.01104753185320817,1.0015411612115663
1688152510090617,-0.05621423666742942,0.008117799649042468,1.0047150377660792
1688152510106607,-0.05914396887159512,0.010559243152513886,1.0041046768902113
1688152510122596,-0.0604867627985044,0.014099336232547444,0.9994659342336156
1688152510138586,-0.05877775234607441,0.010437170977340315,1.000808728160525
1688152510154576,-0.05865568017090084,0.007629510948348184,1.006179903868162
1688152510170566,-0.05926604104676869,0.010437170977340315,1.0022735942626078
1688152510186554,-0.0613412680247194,0.012146181429770309,0.9998321507591363
1688152510202543,-0.059754329747462975,0.00970473792629889,1.0009308003356985
1688152510218533,-0.05816739147020655,0.008972304875257464,1.002517738612955
1688152510234523,-0.05951018539711583,0.010559243152513886,1.0031280994888228
1688152510250513,-0.06182955672541368,0.012146181429770309,0.9997100785839628
1688152510266502,-0.06036469062333083,0.008606088349736751,0.9999542229343099
1688152510282492,-0.06024261844815726,0.007995727473868897,1.0015411612115663
1688152510298482,-0.05889982452124798,0.010803387502861028,1.001052872510872
1688152510314472,-0.05999847409781012,0.013122758831158876,0.9981231403067063
1688152510330462,-0.059754329747462975,0.011535820553902454,1.0017853055619135
1688152510346451,-0.05889982452124798,0.008728160524910322,1.0022735942626078
1688152510362441,-0.06073090714885154,0.011535820553902454,1.0020294499122606
1688152510378431,-0.062195773250934394,0.012634470130464592,0.9994659342336156
1688152510394421,-0.06036469062333083,0.010681315327687457,1.0004425116350042
1688152510410411,-0.057190814068817986,0.006530861371786045,1.0028839551384756
1688152510426400,-0.05889982452124798,0.010437170977340315,1.0021515220874342
1688152510442390,-0.060852979324025114,0.012756542305638163,0.9998321507591363
1688152510458380,-0.06024261844815726,0.010681315327687457,0.9987335011825742
1688152510474370,-0.058289463645380124,0.007263294422827471,1.004470893415732
1688152510490359,-0.06073090714885154,0.00970473792629889,1.0012970168612192
1688152510506347,-0.06060883497367797,0.013122758831158876,0.9983672846570535
1688152510522337,-0.0604867627985044,0.011535820553902454,1.0014190890363928
1688152510538327,-0.0575570305943387,0.006775005722133187,1.0022735942626078
1688152510554317,-0.05792324711985941,0.010803387502861028,1.0023956664377813
1688152510570306,-0.061097123674372256,0.012146181429770309,0.9999542229343099
1688152510586296,-0.05926604104676869,0.011902037079423167,1.0006866559853513
1688152510602286,-0.058289463645380124,0.007019150072480329,1.0037384603646906
1688152510618276,-0.05877775234607441,0.009948882276646032,1.0021515220874342
1688152510634266,-0.06060883497367797,0.01226825360494388,1.0014190890363928
1688152510650255,-0.05926604104676869,0.011535820553902454,0.9981231403067063
1688152510666245,-0.058533607995727266,0.007751583123521755,1.0047150377660792
1688152510682235,-0.059876401922636546,0.010437170977340315,1.0022735942626078
1688152510698225,-0.060852979324025114,0.013244831006332447,0.9998321507591363
1688152510714214,-0.06036469062333083,0.011535820553902454,1.000808728160525
1688152510730204,-0.05889982452124798,0.009948882276646032,1.0028839551384756
1688152510746194,-0.058411535820553695,0.010070954451819603,1.0045929655909056
1688152510762184,-0.06170748455024011,0.01226825360494388,0.9988555733577478
1688152510778174,-0.06060883497367797,0.012634470130464592,0.9993438620584421
1688152510794163,-0.058411535820553695,0.010193026626993174,1.0034943160143435
1688152510810153,-0.058533607995727266,0.009460593575951748,1.00337224383917
1688152510826110,-0.06121919584954583,0.014343480582894585,0.9999542229343099
1688152510842100,-0.06024261844815726,0.011902037079423167,0.9975127794308385
1688152510858090,-0.05767910276951227,0.008850232700083893,1.002761882963302
1688152510874080,-0.05926604104676869,0.008850232700083893,1.0023956664377813
1688152510890070,-0.06268406195162912,0.014465552758068156,1.000808728160525
1688152510906059,-0.05914396887159512,0.00970473792629889,1.0043488212405585
1688152510922049,-0.05865568017090084,0.009460593575951748,1.0055695429922942
1688152510938039,-0.06012054627298369,0.008850232700083893,1.0030060273136492
1688152510954029,-0.06146334019989297,0.01239032578011745,1.0028839551384756
1688152510970018,-0.05999847409781012,0.012024109254596738,1.0000762951094835
1688152510986008,-0.05804531929503298,0.00848401617456318,1.0023956664377813
1688152511001998,-0.05804531929503298,0.011657892729076025,1.001052872510872
1688152511017988,-0.061097123674372256,0.014099336232547444,1.0003204394598306
1688152511033978,-0.06121919584954583,0.011902037079423167,0.9977569237811856
1688152511049967,-0.05621423666742942,0.007873655298695326,1.0012970168612192
1688152511065957,-0.058533607995727266,0.008850232700083893,1.0034943160143435
1688152511081947,-0.06012054627298369,0.01361104753185316,1.0020294499122606
1688152511097937,-0.059876401922636546,0.011413748378728883,1.0005645838101778
1688152511113927,-0.057068741893644415,0.009460593575951748,1.0031280994888228
1688152511129916,-0.05816739147020655,0.00982681010147246,1.0020294499122606
1688152511145904,-0.06012054627298369,0.01239032578011745,1.0011749446860456
1688152511161894,-0.06073090714885154,0.012634470130464592,1.0034943160143435
1688152511177884,-0.05902189669642155,0.00970473792629889,1.0017853055619135
1688152511193874,-0.0575570305943387,0.008606088349736751,1.0031280994888228
1688152511209863,-0.05926604104676869,0.012512397955291021,0.9990997177080949
1688152511225853,-0.059876401922636546,0.01239032578011745,0.9994659342336156
1688152511241843,-0.05743495841916513,0.010559243152513886,1.003616388189517
1688152511257833,-0.05865568017090084,0.00970473792629889,1.0043488212405585
1688152511273822,-0.05889982452124798,0.01361104753185316,1.001052872510872
1688152511289812,-0.059876401922636546,0.012634470130464592,0.9998321507591363
1688152511305802,-0.05804531929503298,0.008606088349736751,1.003616388189517
1688152511321792,-0.05767910276951227,0.008117799649042468,1.0037384603646906
1688152511337782,-0.060852979324025114,0.011169604028381741,1.0011749446860456
1688152511353771,-0.0604867627985044,0.013000686655985305,1.0017853055619135
1688152511369761,-0.057190814068817986,0.009338521400778177,1.00337224383917
1688152511385751,-0.05865568017090084,0.00836194399938961,1.0012970168612192
1688152511401741,-0.05914396887159512,0.01373311970702673,1.0011749446860456
1688152511417730,-0.06121919584954583,0.012634470130464592,1.0014190890363928
1688152511433720,-0.058289463645380124,0.009948882276646032,0.9994659342336156
1688152511449710,-0.05804531929503298,0.010070954451819603,1.0037384603646906
1688152511465698,-0.0604867627985044,0.011779964904249596,1.0032501716639963
1688152511481688,-0.05951018539711583,0.013977264057373873,0.9995880064087892
1688152511497677,-0.058289463645380124,0.007629510948348184,1.0023956664377813
1688152511513667,-0.0575570305943387,0.012634470130464592,1.0028839551384756
1688152511529657,-0.06024261844815726,0.009582665751125319,1.002517738612955
1688152511545647,-0.05951018539711583,0.011779964904249596,0.9988555733577478
1688152511561637,-0.05951018539711583,0.007629510948348184,1.0031280994888228
1688152511577626,-0.05780117494468584,0.009338521400778177,1.004470893415732
1688152511593616,-0.06170748455024011,0.011779964904249596,1.000198367284657
1688152511609606,-0.06036469062333083,0.013488975356679589,0.9999542229343099
1688152511625596,-0.05865568017090084,0.007629510948348184,1.001052872510872
1688152511641585,-0.058533607995727266,0.010193026626993174,1.0037384603646906
1688152511657575,-0.05926604104676869,0.011169604028381741,0.9983672846570535
1688152511673565,-0.06012054627298369,0.013488975356679589,0.9992217898832685
1688152511689555,-0.057190814068817986,0.008239871824216038,1.0032501716639963
1688152511705545,-0.057190814068817986,0.008239871824216038,1.0043488212405585
1688152511721534,-0.06073090714885154,0.013244831006332447,1.0021515220874342
1688152511737524,-0.0613412680247194,0.014465552758068156,0.9990997177080949
1688152511753514,-0.058289463645380124,0.00836194399938961,1.0049591821164263
1688152511769504,-0.05816739147020655,0.008239871824216038,1.0030060273136492
1688152511785492,-0.05877775234607441,0.011169604028381741,0.9993438620584421
1688152511801481,-0.05999847409781012,0.012756542305638163,0.9999542229343099
1688152511817471,-0.059632257572289404,0.008728160524910322,1.0000762951094835
1688152511833461,-0.05889982452124798,0.009948882276646032,1.0045929655909056
1688152511849451,-0.06121919584954583,0.01239032578011745,1.001907377737087
1688152511865440,-0.060852979324025114,0.013366903181506018,1.0009308003356985
1688152511881430,-0.05951018539711583,0.010070954451819603,1.0015411612115663
1688152511897420,-0.0575570305943387,0.009216449225604606,1.0028839551384756
1688152511913410,-0.06060883497367797,0.011779964904249596,1.0028839551384756
1688152511929400,-0.0613412680247194,0.013366903181506018,0.9978789959563592
1688152511945389,-0.05938811322194226,0.010070954451819603,1.00337224383917
1688152511961379,-0.05792324711985941,0.008239871824216038,1.0023956664377813
1688152511977369,-0.058411535820553695,0.011657892729076025,1.0045929655909056
1688152511993359,-0.061097123674372256,0.014343480582894585,1.0005645838101778
1688152512009348,-0.05804531929503298,0.011902037079423167,1.0030060273136492
1688152512025338,-0.056946669718470844,0.007873655298695326,1.0048371099412527
1688152512041328,-0.06024261844815726,0.010803387502861028,1.0050812542916
1688152512057318,-0.06146334019989297,0.013977264057373873,1.0003204394598306
1688152512073308,-0.059632257572289404,0.010437170977340315,1.0015411612115663
1688152512089297,-0.057190814068817986,0.007873655298695326,1.0059357595178149
1688152512105255,-0.05902189669642155,0.01104753185320817,1.0017853055619135
1688152512121244,-0.060852979324025114,0.014343480582894585,1.000198367284657
1688152512137233,-0.059876401922636546,0.010437170977340315,1.001052872510872
1688152512153223,-0.058289463645380124,0.007385366598001042,1.0052033264667735
1688152512169212,-0.06060883497367797,0.012878614480811734,1.0031280994888228
1688152512185201,-0.06158541237506654,0.01373311970702673,1.001907377737087
1688152512201191,-0.05914396887159512,0.011779964904249596,1.001052872510872
1688152512217180,-0.05816739147020655,0.009948882276646032,0.9989776455329213
1688152512233169,-0.0604867627985044,0.011291676203555312,1.0034943160143435
1688152512249158,-0.05999847409781012,0.011902037079423167,0.9993438620584421
1688152512265148,-0.05951018539711583,0.010437170977340315,1.0017853055619135
1688152512281137,-0.058533607995727266,0.008606088349736751,1.0038605325398642
1688152512297126,-0.06036469062333083,0.010070954451819603,1.0014190890363928
1688152512313116,-0.060852979324025114,0.012512397955291021,1.001907377737087
1688152512329105,-0.058533607995727266,0.009948882276646032,1.0006866559853513
1688152512345094,-0.05792324711985941,0.007629510948348184,1.0026398107881285
1688152512361084,-0.05792324711985941,0.01104753185320817,1.0028839551384756
1688152512377073,-0.060852979324025114,0.013244831006332447,1.0015411612115663
1688152512393062,-0.0604867627985044,0.013000686655985305,1.0017853055619135
1688152512409052,-0.0575570305943387,0.00848401617456318,1.0041046768902113
1688152512425048,-0.05902189669642155,0.010437170977340315,1.0041046768902113
1688152512441038,-0.06024261844815726,0.013244831006332447,1.0004425116350042
1688152512457027,-0.05902189669642155,0.01226825360494388,1.0003204394598306
1688152512473016,-0.0575570305943387,0.008117799649042468,1.0041046768902113
1688152512489006,-0.05938811322194226,0.009460593575951748,1.0005645838101778
1688152512504995,-0.06146334019989297,0.013366903181506018,1.0005645838101778
1688152512520984,-0.059876401922636546,0.012024109254596738,0.9984893568322271
1688152512536974,-0.0575570305943387,0.009582665751125319,1.002761882963302
1688152512552963,-0.05914396887159512,0.010803387502861028,1.002761882963302
1688152512568952,-0.0604867627985044,0.013488975356679589,1.0012970168612192
1688152512584941,-0.05938811322194226,0.01373311970702673,1.0015411612115663
1688152512600931,-0.05804531929503298,0.009094377050431035,1.0032501716639963
1688152512616920,-0.05926604104676869,0.008728160524910322,1.0030060273136492
1688152512632909,-0.060975051499198685,0.01226825360494388,0.9995880064087892
1688152512648899,-0.060852979324025114,0.011535820553902454,0.9983672846570535
1688152512664888,-0.059632257572289404,0.008728160524910322,1.0014190890363928
1688152512680877,-0.05743495841916513,0.010437170977340315,1.0038605325398642
1688152512696867,-0.0604867627985044,0.013122758831158876,0.9993438620584421
1688152512712856,-0.05938811322194226,0.012756542305638163,0.9995880064087892
1688152512728845,-0.058411535820553695,0.008850232700083893,1.0021515220874342
1688152512744842,-0.05767910276951227,0.009094377050431035,1.0038605325398642
1688152512760831,-0.06036469062333083,0.011902037079423167,1.0015411612115663
1688152512776821,-0.05889982452124798,0.012512397955291021,1.000198367284657
1688152512792810,-0.05804531929503298,0.00848401617456318,1.0034943160143435
1688152512808799,-0.0575570305943387,0.009948882276646032,1.0032501716639963
1688152512824789,-0.060975051499198685,0.01361104753185316,1.0017853055619135
1688152512840778,-0.060852979324025114,0.012756542305638163,0.9990997177080949
1688152512856767,-0.05926604104676869,0.008972304875257464,1.0043488212405585
1688152512872757,-0.05816739147020655,0.011169604028381741,1.0043488212405585
1688152512888746,-0.06036469062333083,0.012146181429770309,1.0014190890363928
1688152512904735,-0.060975051499198685,0.01226825360494388,1.0017853055619135
1688152512920724,-0.05902189669642155,0.011291676203555312,1.003616388189517
1688152512936714,-0.058411535820553695,0.010315098802166744,1.0028839551384756
1688152512952703,-0.059632257572289404,0.012634470130464592,1.001052872510872
1688152512968692,-0.06012054627298369,0.014221408407721015,1.0021515220874342
1688152512984682,-0.058289463645380124,0.010315098802166744,1.0020294499122606
1688152513000671,-0.05792324711985941,0.00970473792629889,1.0041046768902113
1688152513016660,-0.05999847409781012,0.011902037079423167,1.0009308003356985
1688152513032650,-0.0604867627985044,0.011169604028381741,0.9997100785839628
1688152513048639,-0.05902189669642155,0.008117799649042468,1.0023956664377813
1688152513064636,-0.05780117494468584,0.009338521400778177,1.003616388189517
1688152513080625,-0.06195162890058725,0.013488975356679589,0.9993438620584421
1688152513096614,-0.059754329747462975,0.012146181429770309,1.0003204394598306
1688152513112604,-0.05865568017090084,0.008850232700083893,1.005325398641947
1688152513128593,-0.059754329747462975,0.009948882276646032,1.0022735942626078
1688152513144582,-0.06195162890058725,0.012512397955291021,1.0012970168612192
1688152513160572,-0.06158541237506654,0.012146181429770309,0.9993438620584421
1688152513176561,-0.058411535820553695,0.010681315327687457,1.0026398107881285
1688152513192550,-0.05951018539711583,0.010315098802166744,1.0052033264667735
1688152513208540,-0.06121919584954583,0.012756542305638163,1.0020294499122606
1688152513224529,-0.059754329747462975,0.012512397955291021,1.0023956664377813
1688152513240518,-0.058533607995727266,0.008606088349736751,1.0028839551384756
1688152513256507,-0.05914396887159512,0.009338521400778177,1.002761882963302
1688152513272497,-0.060852979324025114,0.013488975356679589,1.0021515220874342
1688152513288486,-0.060975051499198685,0.012756542305638163,0.9989776455329213
1688152513304475,-0.05902189669642155,0.009338521400778177,1.002517738612955
1688152513320465,-0.0567025253681237,0.00970473792629889,1.001907377737087
1688152513336454,-0.06170748455024011,0.012878614480811734,1.0009308003356985
1688152513352443,-0.06036469062333083,0.013366903181506018,1.0000762951094835
1688152513368433,-0.05926604104676869,0.010315098802166744,1.0020294499122606
1688152513384399,-0.05914396887159512,0.010437170977340315,1.0043488212405585
1688152513400388,-0.06073090714885154,0.010437170977340315,1.0031280994888228
1688152513416378,-0.060975051499198685,0.013366903181506018,0.9989776455329213
1688152513432367,-0.05914396887159512,0.009094377050431035,1.0003204394598306
1688152513448356,-0.05743495841916513,0.008239871824216038,1.0022735942626078
1688152513464346,-0.05889982452124798,0.011291676203555312,1.001907377737087
1688152513480335,-0.0613412680247194,0.013855191882200302,1.0006866559853513
1688152513496324,-0.058533607995727266,0.00970473792629889,1.00337224383917
1688152513512313,-0.05633630884260299,0.008728160524910322,1.007034409094377
1688152513528303,-0.05914396887159512,0.010681315327687457,1.0026398107881285
1688152513544292,-0.05938811322194226,0.012756542305638163,0.9984893568322271
1688152513560281,-0.058289463645380124,0.010070954451819603,1.0006866559853513
1688152513576271,-0.05938811322194226,0.007385366598001042,1.0038605325398642
1688152513592260,-0.05914396887159512,0.012024109254596738,1.0011749446860456
1688152513608249,-0.06012054627298369,0.013366903181506018,0.9989776455329213
1688152513624239,-0.058533607995727266,0.011902037079423167,1.0011749446860456
1688152513640228,-0.058411535820553695,0.009582665751125319,1.0037384603646906
1688152513656217,-0.05902189669642155,0.012024109254596738,1.0015411612115663
1688152513672207,-0.06060883497367797,0.012146181429770309,1.0012970168612192
1688152513688196,-0.057068741893644415,0.009582665751125319,1.0006866559853513
1688152513704193,-0.05548180361638799,0.006897077897306758,1.0054474708171206
1688152513720182,-0.059632257572289404,0.010681315327687457,1.0009308003356985
1688152513736171,-0.060852979324025114,0.01361104753185316,1.0009308003356985
1688152513752161,-0.059632257572289404,0.009948882276646032,1.0014190890363928
1688152513768150,-0.0575570305943387,0.007995727473868897,1.00337224383917
1688152513784139,-0.058411535820553695,0.012024109254596738,1.0022735942626078
1688152513800129,-0.06305027847714983,0.013366903181506018,1.0009308003356985
1688152513816118,-0.05926604104676869,0.0109254596780346,1.00337224383917
1688152513832107,-0.058289463645380124,0.009948882276646032,1.0034943160143435
1688152513848096,-0.06012054627298369,0.011779964904249596,1.0014190890363928
1688152513864086,-0.06036469062333083,0.013244831006332447,1.0011749446860456
1688152513880075,-0.059632257572289404,0.011902037079423167,1.0028839551384756
1688152513896064,-0.0567025253681237,0.008972304875257464,1.0056916151674677
1688152513912054,-0.05926604104676869,0.011657892729076025,1.004470893415732
1688152513928043,-0.060975051499198685,0.012146181429770309,1.0000762951094835
1688152513944032,-0.05877775234607441,0.011169604028381741,1.0030060273136492
1688152513960022,-0.056946669718470844,0.008117799649042468,1.0041046768902113
1688152513976011,-0.05865568017090084,0.01226825360494388,1.001052872510872
1688152513992000,-0.062195773250934394,0.013244831006332447,0.9997100785839628
1688152514007990,-0.058533607995727266,0.011535820553902454,1.0020294499122606
1688152514023986,-0.057312886243991557,0.00982681010147246,1.0041046768902113
1688152514039976,-0.06036469062333083,0.012512397955291021,1.0014190890363928
1688152514055965,-0.06292820630197626,0.01361104753185316,0.9982452124818799
1688152514071954,-0.061097123674372256,0.011902037079423167,1.0066681925688563
1688152514087944,-0.056946669718470844,0.00982681010147246,1.0097199969481956
1688152514103933,-0.05621423666742942,0.008972304875257464,1.0080109864957656
1688152514119922,-0.05926604104676869,0.010315098802166744,1.0026398107881285
1688152514135912,-0.058289463645380124,0.011535820553902454,1.0021515220874342
1688152514151901,-0.05804531929503298,0.007385366598001042,1.0017853055619135
1688152514167890,-0.05780117494468584,0.009338521400778177,1.0014190890363928
1688152514183879,-0.062195773250934394,0.012878614480811734,0.9975127794308385
1688152514199869,-0.06024261844815726,0.01239032578011745,0.9972686350804914
1688152514215858,-0.05804531929503298,0.008728160524910322,1.0017853055619135
1688152514231847,-0.059876401922636546,0.010070954451819603,1.0006866559853513
1688152514247837,-0.06158541237506654,0.015197985809109582,1.0032501716639963
1688152514263826,-0.06012054627298369,0.011657892729076025,1.0038605325398642
1688152514279815,-0.05658045319295013,0.007507438773174613,1.0026398107881285
1688152514295805,-0.05792324711985941,0.010437170977340315,1.003616388189517
1688152514311794,-0.060852979324025114,0.015320057984283153,0.9971465629053178
1688152514327783,-0.0604867627985044,0.010437170977340315,0.9999542229343099
1688152514343780,-0.05816739147020655,0.007995727473868897,1.0000762951094835
1688152514359769,-0.05938811322194226,0.010315098802166744,1.004470893415732
1688152514375759,-0.05914396887159512,0.01361104753185316,1.0003204394598306
1688152514391748,-0.0604867627985044,0.011902037079423167,1.002761882963302
1688152514407737,-0.05780117494468584,0.00982681010147246,1.0049591821164263
1688152514423727,-0.05926604104676869,0.010681315327687457,1.002517738612955
1688152514439716,-0.06036469062333083,0.011413748378728883,1.0014190890363928
1688152514455705,-0.0604867627985044,0.00970473792629889,0.9995880064087892
1688152514471695,-0.05780117494468584,0.00848401617456318,1.0060578316929885
1688152514487684,-0.06073090714885154,0.010681315327687457,1.0049591821164263
1688152514503673,-0.06280613412680269,0.012634470130464592,0.9975127794308385
1688152514519662,-0.06195162890058725,0.01226825360494388,1.0009308003356985
1688152514535652,-0.05865568017090084,0.008606088349736751,1.0060578316929885
1688152514551641,-0.056946669718470844,0.008117799649042468,1.0072785534447242
1688152514567630,-0.06073090714885154,0.01239032578011745,1.0021515220874342
1688152514583620,-0.058411535820553695,0.012512397955291021,1.002761882963302
1688152514599609,-0.05816739147020655,0.008117799649042468,1.001907377737087
1688152514615598,-0.05658045319295013,0.007507438773174613,1.0020294499122606
1688152514631588,-0.06121919584954583,0.010437170977340315,0.9981231403067063
1688152514647577,-0.06121919584954583,0.013855191882200302,0.9978789959563592
1688152514663543,-0.05951018539711583,0.007995727473868897,1.0038605325398642
1688152514679533,-0.059632257572289404,0.009582665751125319,0.9986114290074006
1688152514695522,-0.060975051499198685,0.013977264057373873,1.002761882963302
1688152514711511,-0.06207370107576082,0.013366903181506018,0.9993438620584421
1688152514727501,-0.057190814068817986,0.009460593575951748,1.0021515220874342
1688152514743490,-0.057190814068817986,0.010315098802166744,1.0030060273136492
1688152514759479,-0.0604867627985044,0.012024109254596738,0.9998321507591363
1688152514775468,-0.060975051499198685,0.011657892729076025,1.0003204394598306
1688152514791458,-0.05951018539711583,0.010193026626993174,1.002517738612955
1688152514807447,-0.05780117494468584,0.008606088349736751,1.0047150377660792
1688152514823436,-0.06012054627298369,0.011657892729076025,1.001907377737087
1688152514839426,-0.060975051499198685,0.014221408407721015,0.9988555733577478
1688152514855415,-0.058289463645380124,0.010070954451819603,1.002761882963302
1688152514871404,-0.05792324711985941,0.009582665751125319,1.0028839551384756
1688152514887394,-0.06121919584954583,0.012146181429770309,1.0028839551384756
1688152514903383,-0.05999847409781012,0.01361104753185316,0.9976348516060121
1688152514919372,-0.05767910276951227,0.00982681010147246,1.0015411612115663
1688152514935361,-0.0575570305943387,0.007873655298695326,1.0032501716639963
1688152514951351,-0.06060883497367797,0.012146181429770309,1.0004425116350042
1688152514967340,-0.06158541237506654,0.013488975356679589,1.0003204394598306
1688152514983337,-0.0575570305943387,0.009338521400778177,1.001052872510872
1688152514999326,-0.059632257572289404,0.006897077897306758,1.0082551308461127
1688152515015316,-0.05914396887159512,0.012756542305638163,1.0039826047150378
1688152515031305,-0.05889982452124798,0.013122758831158876,1.003616388189517
1688152515047294,-0.05951018539711583,0.007751583123521755,1.0059357595178149
1688152515063284,-0.05535973144121442,0.009094377050431035,1.0075226977950713
1688152515079273,-0.060852979324025114,0.010193026626993174,1.0005645838101778
1688152515095262,-0.06012054627298369,0.01239032578011745,0.9964141298542764
1688152515111251,-0.060975051499198685,0.008606088349736751,1.0000762951094835
1688152515127241,-0.058533607995727266,0.011902037079423167,1.0014190890363928
1688152515143230,-0.06073090714885154,0.012756542305638163,1.0014190890363928
1688152515159219,-0.062439917601281536,0.014221408407721015,0.9988555733577478
1688152515175209,-0.05889982452124798,0.010559243152513886,1.0045929655909056
1688152515191198,-0.05865568017090084,0.008972304875257464,1.0039826047150378
1688152515207187,-0.058533607995727266,0.012146181429770309,1.002761882963302
1688152515223177,-0.06121919584954583,0.011291676203555312,1.002517738612955
1688152515239166,-0.0575570305943387,0.01104753185320817,1.0006866559853513
1688152515255155,-0.05902189669642155,0.00836194399938961,1.004470893415732
1688152515271144,-0.05914396887159512,0.012878614480811734,1.000808728160525
1688152515287134,-0.05938811322194226,0.013244831006332447,1.0004425116350042
1688152515303131,-0.05877775234607441,0.011169604028381741,0.9997100785839628
1688152515319120,-0.05816739147020655,0.008850232700083893,1.0028839551384756
1688152515335109,-0.060852979324025114,0.010193026626993174,1.0014190890363928
1688152515351099,-0.059876401922636546,0.01361104753185316,0.9983672846570535
1688152515367088,-0.059754329747462975,0.012146181429770309,1.0032501716639963
1688152515383077,-0.05780117494468584,0.008606088349736751,1.004226749065385
1688152515399067,-0.05889982452124798,0.01226825360494388,1.0020294499122606
1688152515415056,-0.061097123674372256,0.012756542305638163,1.0009308003356985
1688152515431045,-0.059632257572289404,0.010193026626993174,1.0017853055619135
1688152515447034,-0.058533607995727266,0.00970473792629889,1.003616388189517
1688152515463024,-0.05938811322194226,0.011902037079423167,0.9998321507591363
1688152515479013,-0.060852979324025114,0.013488975356679589,0.9984893568322271
1688152515495002,-0.059876401922636546,0.00970473792629889,1.0003204394598306
1688152515510992,-0.0575570305943387,0.008972304875257464,1.0023956664377813
1688152515526981,-0.059632257572289404,0.011413748378728883,1.0032501716639963
1688152515542970,-0.060975051499198685,0.012756542305638163,0.9976348516060121
1688152515558960,-0.05951018539711583,0.00982681010147246,1.0004425116350042
1688152515574949,-0.05951018539711583,0.009582665751125319,1.0055695429922942
1688152515590938,-0.06036469062333083,0.00982681010147246,1.0032501716639963
1688152515606927,-0.059754329747462975,0.011413748378728883,1.0014190890363928
1688152515622924,-0.059876401922636546,0.010681315327687457,1.004226749065385
1688152515638914,-0.05560387579156156,0.009094377050431035,1.003616388189517
1688152515654903,-0.05792324711985941,0.009460593575951748,1.001052872510872
1688152515670892,-0.06158541237506654,0.013122758831158876,0.9982452124818799
1688152515686882,-0.06012054627298369,0.010559243152513886,0.9972686350804914
1688152515702871,-0.059754329747462975,0.009216449225604606,1.0014190890363928
1688152515718860,-0.059632257572289404,0.012024109254596738,1.0023956664377813
1688152515734850,-0.062195773250934394,0.014465552758068156,0.9986114290074006
1688152515750839,-0.059876401922636546,0.011779964904249596,1.0011749446860456
1688152515766828,-0.05865568017090084,0.00836194399938961,1.005325398641947
1688152515782817,-0.058411535820553695,0.009948882276646032,1.003616388189517
1688152515798807,-0.06146334019989297,0.01226825360494388,1.002761882963302
1688152515814796,-0.05889982452124798,0.010681315327687457,1.003616388189517
1688152515830785,-0.05780117494468584,0.007995727473868897,1.0050812542916
1688152515846775,-0.05865568017090084,0.009338521400778177,1.0004425116350042
1688152515862764,-0.06121919584954583,0.013366903181506018,0.9964141298542764
1688152515878753,-0.059876401922636546,0.01226825360494388,1.0009308003356985
1688152515894743,-0.05780117494468584,0.008117799649042468,1.0021515220874342
1688152515910732,-0.05865568017090084,0.010193026626993174,1.001907377737087
1688152515926721,-0.06121919584954583,0.013000686655985305,0.9971465629053178
1688152515942688,-0.05999847409781012,0.01104753185320817,0.9994659342336156
1688152515958677,-0.05877775234607441,0.009094377050431035,1.002761882963302
1688152515974666,-0.05926604104676869,0.00970473792629889,1.0034943160143435
1688152515990656,-0.06182955672541368,0.012634470130464592,0.9976348516060121
1688152516006645,-0.06036469062333083,0.010437170977340315,0.9989776455329213
1688152516022634,-0.05780117494468584,0.00836194399938961,1.004470893415732
1688152516038623,-0.05889982452124798,0.010559243152513886,1.0039826047150378
1688152516054613,-0.06024261844815726,0.013855191882200302,1.0005645838101778
1688152516070602,-0.05926604104676869,0.01239032578011745,0.9997100785839628
1688152516086591,-0.056946669718470844,0.008117799649042468,1.002517738612955
1688152516102581,-0.05926604104676869,0.008972304875257464,1.0022735942626078
1688152516118570,-0.06012054627298369,0.013855191882200302,0.9993438620584421
1688152516134559,-0.059632257572289404,0.0109254596780346,1.0005645838101778
1688152516150549,-0.05877775234607441,0.009094377050431035,1.0032501716639963
1688152516166538,-0.058533607995727266,0.010193026626993174,1.0034943160143435
1688152516182527,-0.060975051499198685,0.012756542305638163,0.9960479133287556
1688152516198516,-0.059754329747462975,0.012756542305638163,1.00166323338674
1688152516214506,-0.05914396887159512,0.009216449225604606,1.0014190890363928
1688152516230495,-0.05865568017090084,0.010559243152513886,1.0047150377660792
1688152516246484,-0.05999847409781012,0.013855191882200302,0.9987335011825742
1688152516262481,-0.059754329747462975,0.01226825360494388,1.0014190890363928
1688152516278471,-0.05767910276951227,0.009338521400778177,1.0020294499122606
1688152516294460,-0.05816739147020655,0.009338521400778177,1.0028839551384756
1688152516310449,-0.06170748455024011,0.013488975356679589,0.9984893568322271
1688152516326439,-0.060852979324025114,0.011779964904249596,0.9999542229343099
1688152516342428,-0.05926604104676869,0.007751583123521755,1.002517738612955
1688152516358417,-0.058289463645380124,0.009216449225604606,1.0039826047150378
1688152516374406,-0.061097123674372256,0.011902037079423167,1.0026398107881285
1688152516390396,-0.06207370107576082,0.012634470130464592,1.0014190890363928
1688152516406385,-0.05816739147020655,0.010559243152513886,1.0050812542916
1688152516422374,-0.05889982452124798,0.00982681010147246,1.0034943160143435
1688152516438364,-0.06146334019989297,0.01226825360494388,1.002761882963302
1688152516454353,-0.06121919584954583,0.012878614480811734,1.000198367284657
1688152516470342,-0.05816739147020655,0.00836194399938961,1.0030060273136492
1688152516486332,-0.05889982452124798,0.009094377050431035,1.0028839551384756
1688152516502321,-0.06146334019989297,0.013488975356679589,1.0000762951094835
1688152516518310,-0.0604867627985044,0.013000686655985305,0.9977569237811856
1688152516534299,-0.058411535820553695,0.00970473792629889,1.0034943160143435
1688152516550289,-0.06036469062333083,0.008117799649042468,1.0048371099412527
1688152516566278,-0.062317845426107965,0.01226825360494388,1.0015411612115663
1688152516582275,-0.06182955672541368,0.013855191882200302,1.000198367284657
1688152516598264,-0.05877775234607441,0.009338521400778177,1.0020294499122606
1688152516614254,-0.05889982452124798,0.008850232700083893,1.00337224383917
1688152516630243,-0.060975051499198685,0.011535820553902454,1.0006866559853513
1688152516646232,-0.062439917601281536,0.012878614480811734,0.9993438620584421
1688152516662222,-0.058533607995727266,0.00848401617456318,1.001907377737087
1688152516678211,-0.05865568017090084,0.009460593575951748,1.005325398641947
1688152516694200,-0.06073090714885154,0.013122758831158876,1.000808728160525
1688152516710189,-0.06182955672541368,0.013000686655985305,0.9990997177080949
1688152516726179,-0.05804531929503298,0.009216449225604606,1.000198367284657
1688152516742168,-0.058289463645380124,0.008850232700083893,1.002761882963302
1688152516758157,-0.05951018539711583,0.012756542305638163,1.0026398107881285
1688152516774147,-0.0631723506523234,0.013244831006332447,0.9990997177080949
1688152516790136,-0.05926604104676869,0.010803387502861028,1.001907377737087
1688152516806125,-0.05792324711985941,0.008728160524910322,1.00337224383917
1688152516822115,-0.0604867627985044,0.012878614480811734,1.0005645838101778
1688152516838104,-0.060852979324025114,0.012878614480811734,0.9986114290074006
1688152516854093,-0.05938811322194226,0.009216449225604606,1.001907377737087
1688152516870082,-0.05645838101777656,0.007995727473868897,1.0047150377660792
1688152516886072,-0.059754329747462975,0.01226825360494388,1.0028839551384756
1688152516902069,-0.06170748455024011,0.015442130159456724,0.9961699855039292
1688152516918058,-0.058533607995727266,0.008606088349736751,1.00166323338674
1688152516934047,-0.0575570305943387,0.008239871824216038,1.0028839551384756
1688152516950037,-0.05999847409781012,0.008972304875257464,1.00166323338674
1688152516966026,-0.0613412680247194,0.013000686655985305,0.9998321507591363
1688152516982015,-0.05926604104676869,0.009948882276646032,1.0021515220874342
1688152516998005,-0.05743495841916513,0.008117799649042468,1.0071564812695506
1688152517013994,-0.06012054627298369,0.010559243152513886,1.0022735942626078
1688152517029983,-0.06280613412680269,0.013122758831158876,0.9972686350804914
1688152517045972,-0.05877775234607441,0.010070954451819603,0.9995880064087892
1688152517061962,-0.05792324711985941,0.007873655298695326,1.0058136873426413
1688152517077951,-0.059632257572289404,0.01226825360494388,1.0049591821164263
1688152517093940,-0.061097123674372256,0.013977264057373873,0.9984893568322271
1688152517109930,-0.059632257572289404,0.010559243152513886,1.0026398107881285
1688152517125919,-0.058533607995727266,0.007507438773174613,1.0030060273136492
1688152517141908,-0.05926604104676869,0.0109254596780346,1.0020294499122606
1688152517157898,-0.06268406195162912,0.012878614480811734,0.9982452124818799
1688152517173887,-0.05914396887159512,0.01239032578011745,0.9998321507591363
1688152517189876,-0.05865568017090084,0.008117799649042468,1.0038605325398642
1688152517205865,-0.06024261844815726,0.012024109254596738,1.000198367284657
1688152517221832,-0.06182955672541368,0.011535820553902454,1.0022735942626078
1688152517237821,-0.05951018539711583,0.011169604028381741,0.9993438620584421
1688152517253811,-0.057068741893644415,0.00848401617456318,1.0064240482185092
1688152517269800,-0.0604867627985044,0.009948882276646032,1.001052872510872
1688152517285789,-0.062439917601281536,0.012878614480811734,1.0012970168612192
1688152517301778,-0.06036469062333083,0.010681315327687457,1.0004425116350042
1688152517317768,-0.0567025253681237,0.006530861371786045,1.0026398107881285
1688152517333757,-0.05914396887159512,0.008850232700083893,1.0038605325398642
1688152517349746,-0.0613412680247194,0.013977264057373873,0.9995880064087892
1688152517365736,-0.06024261844815726,0.009948882276646032,1.001052872510872
1688152517381725,-0.057312886243991557,0.007873655298695326,1.0030060273136492
1688152517397714,-0.058533607995727266,0.010437170977340315,0.9999542229343099
1688152517413704,-0.06207370107576082,0.013366903181506018,1.0014190890363928
1688152517429693,-0.05938811322194226,0.012756542305638163,1.002761882963302
1688152517445682,-0.058411535820553695,0.007507438773174613,1.0045929655909056
1688152517461671,-0.05914396887159512,0.01104753185320817,1.0026398107881285
1688152517477661,-0.060975051499198685,0.01239032578011745,0.9997100785839628
1688152517493650,-0.06012054627298369,0.0109254596780346,1.000808728160525
1688152517509639,-0.057312886243991557,0.007751583123521755,1.0022735942626078
1688152517525629,-0.05951018539711583,0.0109254596780346,1.0038605325398642
1688152517541626,-0.062439917601281536,0.013366903181506018,1.000808728160525
1688152517557615,-0.06024261844815726,0.01104753185320817,1.00166323338674
1688152517573604,-0.057068741893644415,0.007995727473868897,1.0021515220874342
1688152517589594,-0.058533607995727266,0.009582665751125319,1.001907377737087
1688152517605583,-0.06060883497367797,0.011902037079423167,0.9995880064087892
1688152517621572,-0.05999847409781012,0.011169604028381741,0.9992217898832685
1688152517637561,-0.05780117494468584,0.007385366598001042,1.0034943160143435
1688152517653551,-0.05767910276951227,0.00982681010147246,1.001052872510872
1688152517669540,-0.059876401922636546,0.013244831006332447,0.9978789959563592
1688152517685529,-0.06036469062333083,0.011779964904249596,0.9973907072556649
1688152517701519,-0.05609216449225585,0.007507438773174613,1.0080109864957656
1688152517717508,-0.05914396887159512,0.008239871824216038,1.0009308003356985
1688152517733497,-0.06012054627298369,0.012756542305638163,0.9977569237811856
1688152517749487,-0.05999847409781012,0.010193026626993174,0.9986114290074006
1688152517765476,-0.056946669718470844,0.007751583123521755,0.9998321507591363
1688152517781465,-0.05926604104676869,0.0109254596780346,1.0031280994888228
1688152517797454,-0.060852979324025114,0.012756542305638163,0.9990997177080949
1688152517813444,-0.06060883497367797,0.011657892729076025,1.0030060273136492
1688152517829433,-0.058533607995727266,0.007995727473868897,1.0012970168612192
1688152517845422,-0.0575570305943387,0.009216449225604606,1.0043488212405585
1688152517861419,-0.06036469062333083,0.014587624933241727,1.0006866559853513
1688152517877409,-0.058411535820553695,0.0109254596780346,0.9989776455329213
1688152517893398,-0.05633630884260299,0.006897077897306758,1.0023956664377813
1688152517909387,-0.056946669718470844,0.00982681010147246,1.0031280994888228
1688152517925377,-0.06146334019989297,0.01483176928358887,1.000808728160525
1688152517941366,-0.06073090714885154,0.012756542305638163,0.9983672846570535
1688152517957355,-0.058411535820553695,0.009216449225604606,1.002517738612955
1688152517973344,-0.060975051499198685,0.00970473792629889,1.002517738612955
1688152517989334,-0.06036469062333083,0.013855191882200302,1.0000762951094835
1688152518005323,-0.061097123674372256,0.012512397955291021,1.000198367284657
1688152518021312,-0.05780117494468584,0.00970473792629889,1.002517738612955
1688152518037302,-0.05914396887159512,0.009338521400778177,1.0032501716639963
1688152518053291,-0.06158541237506654,0.012634470130464592,1.0017853055619135
1688152518069280,-0.05999847409781012,0.011291676203555312,1.0031280994888228
1688152518085270,-0.05743495841916513,0.008606088349736751,1.0026398107881285
1688152518101259,-0.05792324711985941,0.008239871824216038,1.0032501716639963
1688152518117248,-0.06158541237506654,0.013122758831158876,1.001907377737087
1688152518133237,-0.06146334019989297,0.012756542305638163,1.0022735942626078
1688152518149227,-0.05767910276951227,0.009338521400778177,1.0034943160143435
1688152518165216,-0.05792324711985941,0.010559243152513886,1.0015411612115663
1688152518181213,-0.06073090714885154,0.013244831006332447,1.0038605325398642
1688152518197202,-0.0604867627985044,0.013000686655985305,0.9997100785839628
1688152518213192,-0.058289463645380124,0.010070954451819603,1.001907377737087
1688152518229181,-0.05780117494468584,0.009460593575951748,1.00337224383917
1688152518245170,-0.05926604104676869,0.012756542305638163,1.001907377737087
1688152518261160,-0.06060883497367797,0.011535820553902454,1.0014190890363928
1688152518277149,-0.05658045319295013,0.008606088349736751,1.0037384603646906
1688152518293138,-0.057190814068817986,0.00970473792629889,1.004226749065385
1688152518309127,-0.059876401922636546,0.011902037079423167,1.0026398107881285
1688152518325117,-0.059632257572289404,0.01104753185320817,0.9965362020294499
1688152518341106,-0.058289463645380124,0.008972304875257464,1.0003204394598306
1688152518357095,-0.058411535820553695,0.009338521400778177,1.00166323338674
1688152518373085,-0.05926604104676869,0.01226825360494388,1.0004425116350042
1688152518389074,-0.061097123674372256,0.013366903181506018,1.0000762951094835
1688152518405063,-0.05914396887159512,0.008972304875257464,1.00337224383917
1688152518421053,-0.05902189669642155,0.008972304875257464,1.0021515220874342
1688152518437042,-0.06012054627298369,0.01104753185320817,0.9999542229343099
1688152518453031,-0.06036469062333083,0.013000686655985305,1.0026398107881285
1688152518469020,-0.058411535820553695,0.009948882276646032,1.0020294499122606
1688152518485010,-0.05804531929503298,0.008972304875257464,1.0039826047150378
1688152518500976,-0.06146334019989297,0.010437170977340315,1.0034943160143435
1688152518516965,-0.0604867627985044,0.01361104753185316,0.9992217898832685
1688152518532955,-0.05780117494468584,0.00848401617456318,1.002517738612955
1688152518548944,-0.0575570305943387,0.008728160524910322,1.0049591821164263
1688152518564933,-0.06060883497367797,0.011657892729076025,1.00166323338674
1688152518580923,-0.05999847409781012,0.01239032578011745,1.0004425116350042
1688152518596912,-0.05804531929503298,0.009460593575951748,1.0009308003356985
1688152518612901,-0.0567025253681237,0.009460593575951748,1.0021515220874342
1688152518628891,-0.05926604104676869,0.011291676203555312,1.0004425116350042
1688152518644880,-0.0613412680247194,0.012756542305638163,0.9990997177080949
1688152518660869,-0.057190814068817986,0.00982681010147246,1.0037384603646906
1688152518676859,-0.058411535820553695,0.00836194399938961,1.0034943160143435
1688152518692848,-0.05914396887159512,0.012756542305638163,0.9983672846570535
1688152518708837,-0.06121919584954583,0.014099336232547444,0.9994659342336156
1688152518724826,-0.05914396887159512,0.010315098802166744,1.000808728160525
1688152518740816,-0.058411535820553695,0.009094377050431035,1.004226749065385
1688152518756805,-0.05938811322194226,0.012024109254596738,0.9993438620584421
1688152518772794,-0.062195773250934394,0.01239032578011745,1.0003204394598306
1688152518788784,-0.05865568017090084,0.011535820553902454,1.0020294499122606
1688152518804773,-0.05889982452124798,0.00970473792629889,1.00337224383917
1688152518820770,-0.06158541237506654,0.011657892729076025,1.002761882963302
1688152518836759,-0.05926604104676869,0.013488975356679589,0.9983672846570535
1688152518852748,-0.057190814068817986,0.008606088349736751,1.002517738612955
1688152518868738,-0.05780117494468584,0.006897077897306758,1.0037384603646906
1688152518884727,-0.059754329747462975,0.010803387502861028,1.003616388189517
1688152518900716,-0.06036469062333083,0.011291676203555312,0.9986114290074006
1688152518916706,-0.05902189669642155,0.009582665751125319,0.9987335011825742
1688152518932695,-0.05865568017090084,0.007751583123521755,1.001052872510872
1688152518948684,-0.05999847409781012,0.01373311970702673,0.9987335011825742
1688152518964674,-0.06121919584954583,0.013488975356679589,1.0012970168612192
1688152518980663,-0.06024261844815726,0.011291676203555312,0.9994659342336156
1688152518996652,-0.055970092317082276,0.009460593575951748,1.0049591821164263
1688152519012642,-0.05914396887159512,0.012512397955291021,1.000808728160525
1688152519028631,-0.06024261844815726,0.01361104753185316,1.0009308003356985
1688152519044620,-0.059754329747462975,0.010315098802166744,1.000808728160525
1688152519060609,-0.05621423666742942,0.008606088349736751,1.0028839551384756
1688152519076599,-0.05926604104676869,0.009948882276646032,1.0055695429922942
1688152519092588,-0.0604867627985044,0.01373311970702673,0.9989776455329213
1688152519108577,-0.059632257572289404,0.009338521400778177,0.9997100785839628
1688152519124567,-0.05877775234607441,0.010437170977340315,1.001052872510872
1688152519140564,-0.05889982452124798,0.011291676203555312,1.0020294499122606
1688152519156553,-0.059876401922636546,0.012024109254596738,0.9981231403067063
1688152519172542,-0.05938811322194226,0.010803387502861028,1.000808728160525
1688152519188532,-0.058411535820553695,0.008117799649042468,1.0049591821164263
1688152519204521,-0.059876401922636546,0.011169604028381741,1.0032501716639963
1688152519220510,-0.0604867627985044,0.013977264057373873,0.9988555733577478
1688152519236499,-0.05926604104676869,0.0109254596780346,0.9995880064087892
1688152519252489,-0.0567025253681237,0.010315098802166744,1.0037384603646906
1688152519268478,-0.05914396887159512,0.011535820553902454,1.0015411612115663
1688152519284467,-0.06170748455024011,0.012878614480811734,0.9997100785839628
1688152519300457,-0.05926604104676869,0.0109254596780346,0.9986114290074006
1688152519316446,-0.058289463645380124,0.007751583123521755,1.003616388189517
1688152519332435,-0.05902189669642155,0.00982681010147246,1.0039826047150378
1688152519348425,-0.062195773250934394,0.014709697108415298,0.9994659342336156
1688152519364414,-0.060852979324025114,0.011169604028381741,1.0000762951094835
1688152519380403,-0.05743495841916513,0.007629510948348184,1.0037384603646906
1688152519396392,-0.057068741893644415,0.009216449225604606,1.0022735942626078
1688152519412382,-0.059754329747462975,0.013855191882200302,1.0005645838101778
1688152519428371,-0.058533607995727266,0.013000686655985305,1.0006866559853513
1688152519444360,-0.057190814068817986,0.008850232700083893,1.0050812542916
1688152519460357,-0.05865568017090084,0.011535820553902454,1.0009308003356985
1688152519476347,-0.0613412680247194,0.013366903181506018,0.9982452124818799
1688152519492336,-0.059754329747462975,0.011413748378728883,0.9995880064087892
1688152519508325,-0.056946669718470844,0.009216449225604606,1.0031280994888228
1688152519524315,-0.05926604104676869,0.011657892729076025,1.002761882963302
1688152519540304,-0.060852979324025114,0.013488975356679589,0.9981231403067063
1688152519556293,-0.06012054627298369,0.01226825360494388,1.001907377737087
1688152519572282,-0.057068741893644415,0.007629510948348184,1.00166323338674
1688152519588272,-0.05767910276951227,0.009582665751125319,1.0005645838101778
1688152519604261,-0.05926604104676869,0.013122758831158876,0.9981231403067063
1688152519620250,-0.06012054627298369,0.011535820553902454,1.000198367284657
1688152519636240,-0.057190814068817986,0.008117799649042468,1.0022735942626078
1688152519652229,-0.05865568017090084,0.009216449225604606,1.0020294499122606
1688152519668218,-0.05951018539711583,0.01373311970702673,0.9992217898832685
1688152519684208,-0.06060883497367797,0.011902037079423167,1.0006866559853513
1688152519700197,-0.05792324711985941,0.008239871824216038,1.0030060273136492
1688152519716186,-0.05865568017090084,0.00982681010147246,1.0032501716639963
1688152519732175,-0.060975051499198685,0.012634470130464592,1.001907377737087
1688152519748165,-0.061097123674372256,0.012756542305638163,1.0000762951094835
1688152519764154,-0.05816739147020655,0.007629510948348184,1.0032501716639963
1688152519780120,-0.05938811322194226,0.009216449225604606,1.0031280994888228
1688152519796110,-0.059876401922636546,0.012878614480811734,1.0021515220874342
1688152519812099,-0.059876401922636546,0.011169604028381741,0.9992217898832685
1688152519828088,-0.05816739147020655,0.006897077897306758,1.0031280994888228
1688152519844078,-0.05816739147020655,0.009338521400778177,1.003616388189517
1688152519860067,-0.06195162890058725,0.012146181429770309,1.0017853055619135
1688152519876056,-0.059876401922636546,0.010681315327687457,0.9998321507591363
1688152519892046,-0.05951018539711583,0.007751583123521755,1.0021515220874342
1688152519908035,-0.059632257572289404,0.010681315327687457,1.0032501716639963
1688152519924024,-0.06121919584954583,0.012756542305638163,1.0006866559853513
1688152519940014,-0.059876401922636546,0.011902037079423167,1.0011749446860456
1688152519956003,-0.058533607995727266,0.008239871824216038,1.0047150377660792
1688152519971992,-0.06036469062333083,0.007629510948348184,1.0039826047150378
1688152519987981,-0.06280613412680269,0.012756542305638163,1.0012970168612192
1688152520003971,-0.060852979324025114,0.014343480582894585,0.9982452124818799
1688152520019960,-0.057068741893644415,0.008606088349736751,1.0074006256198977
1688152520035949,-0.059632257572289404,0.007873655298695326,1.0077668421454185
1688152520051939,-0.05999847409781012,0.011535820553902454,1.0039826047150378
1688152520067928,-0.05926604104676869,0.011535820553902454,1.000808728160525
1688152520083917,-0.055848020141908705,0.007873655298695326,1.0004425116350042
1688152520099914,-0.058289463645380124,0.008728160524910322,1.0023956664377813
1688152520115903,-0.06158541237506654,0.012512397955291021,0.9995880064087892
1688152520131893,-0.059754329747462975,0.013366903181506018,0.9988555733577478
1688152520147882,-0.0575570305943387,0.009216449225604606,1.0006866559853513
1688152520163871,-0.057312886243991557,0.007263294422827471,1.0063019760433356
1688152520179861,-0.05951018539711583,0.011657892729076025,0.9993438620584421
1688152520195850,-0.06060883497367797,0.01361104753185316,1.001052872510872
1688152520211839,-0.05816739147020655,0.009338521400778177,1.003616388189517
1688152520227829,-0.05645838101777656,0.007873655298695326,1.004226749065385
1688152520243818,-0.06012054627298369,0.01104753185320817,1.0015411612115663
1688152520259807,-0.06036469062333083,0.013366903181506018,0.9988555733577478
1688152520275797,-0.05743495841916513,0.010559243152513886,1.0031280994888228
1688152520291786,-0.05780117494468584,0.009094377050431035,1.002761882963302
1688152520307775,-0.06012054627298369,0.011535820553902454,1.0030060273136492
1688152520323764,-0.06207370107576082,0.014343480582894585,0.9988555733577478
1688152520339754,-0.05926604104676869,0.009216449225604606,1.0012970168612192
1688152520355743,-0.059632257572289404,0.008117799649042468,1.0052033264667735
1688152520371732,-0.059876401922636546,0.013122758831158876,1.0037384603646906
1688152520387722,-0.059754329747462975,0.011535820553902454,0.9993438620584421
1688152520403711,-0.058411535820553695,0.010559243152513886,1.001907377737087
1688152520419708,-0.058289463645380124,0.0071412222476539,1.006179903868162
1688152520435697,-0.06036469062333083,0.009948882276646032,1.0011749446860456
1688152520451686,-0.0631723506523234,0.01226825360494388,0.9989776455329213
1688152520467676,-0.05914396887159512,0.009948882276646032,1.0023956664377813
1688152520483665,-0.05816739147020655,0.00848401617456318,1.0041046768902113
1688152520499654,-0.060852979324025114,0.00982681010147246,0.9993438620584421
1688152520515644,-0.060975051499198685,0.013122758831158876,0.9987335011825742
1688152520531633,-0.05914396887159512,0.010193026626993174,1.00166323338674
1688152520547622,-0.05743495841916513,0.008606088349736751,1.00166323338674
1688152520563612,-0.06073090714885154,0.01239032578011745,1.0034943160143435
1688152520579601,-0.060852979324025114,0.013488975356679589,1.000808728160525
1688152520595590,-0.06012054627298369,0.009948882276646032,1.0014190890363928
1688152520611580,-0.05780117494468584,0.007995727473868897,1.002517738612955
1688152520627569,-0.059754329747462975,0.011413748378728883,1.0026398107881285
1688152520643558,-0.062195773250934394,0.01239032578011745,1.0000762951094835
1688152520659547,-0.05902189669642155,0.010437170977340315,1.0000762951094835
1688152520675537,-0.05951018539711583,0.009216449225604606,1.00166323338674
1688152520691526,-0.058289463645380124,0.01226825360494388,1.000808728160525
1688152520707515,-0.0613412680247194,0.013244831006332447,0.9975127794308385
1688152520723505,-0.06073090714885154,0.010559243152513886,0.9999542229343099
1688152520739502,-0.05804531929503298,0.009094377050431035,1.0047150377660792
1688152520755491,-0.06036469062333083,0.011291676203555312,1.0050812542916
1688152520771480,-0.060852979324025114,0.014221408407721015,1.0009308003356985
1688152520787469,-0.05877775234607441,0.010803387502861028,1.0011749446860456
1688152520803459,-0.05816739147020655,0.008117799649042468,1.0030060273136492
1688152520819448,-0.05938811322194226,0.009460593575951748,1.0048371099412527
1688152520835437,-0.062195773250934394,0.014465552758068156,0.9987335011825742
1688152520851427,-0.05902189669642155,0.011413748378728883,1.0032501716639963
1688152520867416,-0.05792324711985941,0.007995727473868897,1.0055695429922942
1688152520883405,-0.05914396887159512,0.012878614480811734,1.002517738612955
1688152520899395,-0.06060883497367797,0.01239032578011745,0.9993438620584421
1688152520915384,-0.059632257572289404,0.011291676203555312,0.9993438620584421
1688152520931373,-0.05792324711985941,0.009338521400778177,1.0064240482185092
1688152520947363,-0.05999847409781012,0.010559243152513886,1.0020294499122606
1688152520963352,-0.06012054627298369,0.01361104753185316,0.9997100785839628
1688152520979341,-0.06060883497367797,0.011535820553902454,1.000198367284657
1688152520995330,-0.05938811322194226,0.00836194399938961,1.0022735942626078
1688152521011320,-0.0604867627985044,0.00970473792629889,1.0047150377660792
1688152521027309,-0.061097123674372256,0.011902037079423167,1.0004425116350042
1688152521043298,-0.06012054627298369,0.012146181429770309,1.0014190890363928
1688152521059265,-0.05938811322194226,0.009460593575951748,1.003616388189517
1688152521075254,-0.06060883497367797,0.0109254596780346,1.0037384603646906
1688152521091243,-0.062439917601281536,0.01373311970702673,1.000808728160525
1688152521107233,-0.06012054627298369,0.010681315327687457,1.001052872510872
1688152521123222,-0.05865568017090084,0.008728160524910322,1.0034943160143435
1688152521139211,-0.06060883497367797,0.009948882276646032,1.0063019760433356
1688152521155201,-0.06170748455024011,0.013244831006332447,1.001907377737087
1688152521171190,-0.05865568017090084,0.010803387502861028,1.0004425116350042
1688152521187179,-0.05816739147020655,0.008728160524910322,1.005325398641947
1688152521203168,-0.05951018539711583,0.009948882276646032,1.0017853055619135
1688152521219158,-0.060852979324025114,0.012634470130464592,0.9999542229343099
1688152521235147,-0.06036469062333083,0.010681315327687457,0.9994659342336156
1688152521251136,-0.05804531929503298,0.008239871824216038,1.002761882963302
1688152521267126,-0.05743495841916513,0.009582665751125319,1.00337224383917
1688152521283115,-0.06121919584954583,0.011779964904249596,0.9984893568322271
1688152521299104,-0.059632257572289404,0.011902037079423167,1.000198367284657
1688152521315094,-0.058411535820553695,0.007751583123521755,1.0043488212405585
1688152521331083,-0.058289463645380124,0.009094377050431035,1.0043488212405585
1688152521347072,-0.060852979324025114,0.013977264057373873,1.0012970168612192
1688152521363062,-0.059876401922636546,0.0109254596780346,0.9984893568322271
1688152521379058,-0.05633630884260299,0.009216449225604606,1.0048371099412527
1688152521395048,-0.057312886243991557,0.00982681010147246,1.0037384603646906
1688152521411037,-0.06195162890058725,0.011657892729076025,0.9992217898832685
1688152521427026,-0.06036469062333083,0.011535820553902454,0.9967803463797971
1688152521443016,-0.05780117494468584,0.00970473792629889,1.0034943160143435
1688152521459005,-0.05804531929503298,0.009948882276646032,1.0049591821164263
1688152521474994,-0.059876401922636546,0.011291676203555312,1.001052872510872
1688152521490984,-0.05999847409781012,0.011291676203555312,1.0000762951094835
1688152521506973,-0.05877775234607441,0.010681315327687457,1.002761882963302
1688152521522962,-0.057190814068817986,0.0071412222476539,1.0038605325398642
1688152521538951,-0.05902189669642155,0.013000686655985305,1.0012970168612192
1688152521554941,-0.05877775234607441,0.014343480582894585,1.0021515220874342
1688152521570930,-0.05743495841916513,0.011169604028381741,1.000198367284657
1688152521586919,-0.058533607995727266,0.0036011291676203427,1.0045929655909056
1688152521602909,-0.05865568017090084,0.012146181429770309,0.9969024185549706
1688152521618898,-0.06170748455024011,0.013122758831158876,0.9995880064087892
1688152521634887,-0.05865568017090084,0.00848401617456318,1.002761882963302
1688152521650877,-0.05780117494468584,0.013977264057373873,1.003616388189517
1688152521666866,-0.05999847409781012,0.007385366598001042,1.0034943160143435
1688152521682855,-0.06182955672541368,0.013244831006332447,0.9962920576791028
1688152521698852,-0.05914396887159512,0.010681315327687457,1.0015411612115663
1688152521714841,-0.057068741893644415,0.00848401617456318,1.0030060273136492
1688152521730831,-0.0613412680247194,0.015197985809109582,1.0021515220874342
1688152521746820,-0.05951018539711583,0.01495384145876244,0.9973907072556649
1688152521762809,-0.05938811322194226,0.0061646448462653325,1.0039826047150378
1688152521778799,-0.06073090714885154,0.007263294422827471,1.0032501716639963
1688152521794788,-0.06182955672541368,0.014099336232547444,1.0009308003356985
1688152521810777,-0.059632257572289404,0.013366903181506018,1.001052872510872
1688152521826767,-0.056946669718470844,0.008606088349736751,1.0038605325398642
1688152521842756,-0.05926604104676869,0.00970473792629889,1.0039826047150378
1688152521858745,-0.06146334019989297,0.01361104753185316,0.9970244907301442
1688152521874735,-0.06146334019989297,0.011413748378728883,0.9990997177080949
1688152521890724,-0.05621423666742942,0.007995727473868897,1.0039826047150378
1688152521906713,-0.05780117494468584,0.0109254596780346,1.0031280994888228
1688152521922702,-0.07598992904554835,-0.08807507438773188,0.8711680781261917
1688152521938692,-0.09137102311741829,-0.11261158159761964,1.110307469291218
1688152521954681,-0.09662012664988184,0.050598916609445155,1.1317921721217674
1688152521970670,-0.044007019150072324,0.09564354924849283,0.983718623636225
1688152521986660,-0.032288090333409514,0.0508430609597923,1.0324254215304798
1688152522002649,-0.11017013809414822,0.040344853894865196,1.0092317082475013
1688152522018646,-0.091737239642939,0.02386511024643312,0.9877470054169528
1688152522034635,-0.009460593575951748,0.01605249103532458,1.0271763179980162
1688152522050624,-0.0955214770733197,-0.0319218738078888,1.0110627908751049
1688152522066614,-0.060852979324025114,-0.1464255741206988,1.0419470511940183
1688152522082603,0.028870069428549527,-0.24640268558785383,1.071610589761196
1688152522098592,0.6330052643625548,-0.4829785610742352,0.9994659342336156
1688152522114582,-0.42597085526817713,-0.3032883192187379,1.1203173876554509
1688152522130571,-0.2007476920729383,0.5476768139162278,0.9120622568093388
1688152522146560,-0.202822919050889,0.15814450293736204,0.8722667277027538
1688152522162550,-0.11175707637140464,-0.022278171969176697,1.1897764553292136
1688152522178539,0.019714656290531707,-0.32880140383001466,0.9903105210955978
1688152522194528,0.01873807888914314,-0.19049362935835834,1.0398718242160676
1688152522210518,-0.008850232700083893,-0.042664225223163044,1.092973220416571
1688152522226507,-0.1115129320210575,0.0037232013427939137,1.067948424505989
1688152522242496,-0.11847104600595104,0.029602502479590953,1.0512245365072097
1688152522258485,-0.026184481574730967,0.0020141908903639205,1.1134813458457309
1688152522274475,-0.0993057145037004,0.05560387579156156,1.0075226977950713
1688152522290464,-0.1598535133897916,0.09649805447470783,1.1223926146334016
1688152522306453,-0.22626077668421463,0.1986724650949876,1.0069123369192035
1688152522322443,-0.21832608529793252,0.2680094605935759,0.9727321278706036
1688152522338409,-0.2453040360112917,0.3308766308079649,0.8897230487525754
1688152522354398,-0.21698329137102323,0.32159914549477353,0.8395513847562368
1688152522370388,-0.18487830930037363,0.29596398870832363,0.8584725719081403
1688152522386377,-0.062317845426107965,0.2771648737315937,0.8874036774242775
1688152522402366,-0.2633707179369802,0.2549477378500038,1.0846723125047681
1688152522418356,-0.12799267566948958,0.03472953383688093,1.0879682612344546
1688152522434345,-0.26642252231631947,-0.4143739986266879,1.1306935225452053
1688152522450334,-0.17254901960784297,-0.3555352101930267,1.0084992751964599
1688152522466323,0.054383154039825854,0.7232166018158237,-1.3109941252765696
1688152522482313,0.038757915617608774,0.1351949340047307,-0.6537575341420614
1688152522498302,-0.45136186770428033,0.4943312733653773,2.5373311970702677
1688152522514291,0.03338673990997165,0.14056610971236783,0.8777599755855654
1688152522530281,-0.31110093842984643,-0.052918287937743,1.5876096742198822
1688152522546270,-0.04718089570458517,-0.08099488822766476,0.8327153429465168
1688152522562259,-0.010559243152513886,0.01739528496223386,0.7854734111543449
1688152522578249,-0.07391470206759765,-0.031189440756847375,1.0417029068436712
1688152522594238,-0.0715953307392998,-0.01239032578011745,1.0362096589608605
1688152522610227,-0.043030441748683756,0.013244831006332447,0.9672388799877929
1688152522626217,-0.06305027847714983,-0.010070954451819603,1.0227817196917677
1688152522642206,-0.06988632028686981,0.010315098802166744,0.9853055619134814
1688152522658203,-0.06366063935301769,0.0026245517662317752,1.0055695429922942
1688152522674192,-0.058533607995727266,0.0026245517662317752,1.0071564812695506
1688152522690181,-0.06170748455024011,0.005188067444876765,0.9995880064087892
1688152522706171,-0.06634622720683625,-0.001037613488975353,1.010452429999237
1688152522722160,-0.062195773250934394,0.004699778744182481,0.9947051194018464
1688152522738149,-0.05877775234607441,7.934691386282111E-4,1.007888914320592
1688152522754139,-0.06158541237506654,0.0036011291676203427,1.001052872510872
1688152522770128,-0.06598001068131554,0.0018921187151903496,1.0012970168612192
1688152522786117,-0.06329442282749698,0.0021362630655374915,1.0015411612115663
1688152522802106,-0.05902189669642155,0.002746623941405346,1.001907377737087
1688152522818096,-0.061097123674372256,0.0021362630655374915,1.0023956664377813
1688152522834085,-0.07769893949797835,0.012146181429770309,0.9848172732127871
1688152522850074,-0.17352559700923154,0.1561913481345849,1.1115281910429538
1688152522866064,-0.15045395590142663,0.15106431677729493,0.9616235599298086
1688152522882053,-0.015930418860151008,-0.021667811093308842,0.9109636072327767
1688152522898042,-0.04376287479972518,0.004455634393835339,0.9832303349355307
1688152522914032,-0.027161058976119534,-0.11285572594796678,1.1021286335545888
1688152522930021,-0.03179980163271523,-0.0470588235294116,0.8607919432364382
1688152522946010,0.04571602960250232,-0.05487144274052014,1.1914854657816436
1688152522962000,-0.01361104753185316,0.0319218738078888,0.9795681696803236
1688152522977996,-0.0733043411917298,0.017639429312581,1.024979018844892
1688152522993986,-0.05487144274052014,0.06622415503166224,1.0268101014724955
1688152523009975,0.0424200808728159,-0.23260852979324032,0.9226825360494395
1688152523025964,-0.10943770504310679,0.202822919050889,1.2476386663614862
1688152523041954,-0.010315098802166744,0.07318226901655578,1.1448538948653395
1688152523057943,-0.012756542305638163,0.09918364232852639,1.0459754329747462
1688152523073932,-0.037537193865873064,0.11126878767070991,1.2554512855725948
1688152523089922,0.08307011520561502,0.02801556420233453,1.236896314946212
1688152523105911,0.2066071564812697,0.037537193865873064,1.0712443732356753
1688152523121900,0.23834592202639815,-0.02252231631952384,0.9363546196688795
1688152523137889,0.17621118486305054,0.04986648355840373,0.9973907072556649
1688152523153879,0.19098191805905262,0.041687647821774476,0.9831082627603571
1688152523169868,0.1990386816205083,0.0018921187151903496,0.9782253757534143
1688152523185857,0.29925993743801005,-6.103608758678547E-5,0.8834973678187232
1688152523201847,0.5116655222400244,-0.0470588235294116,0.8450446326390475
1688152523217836,0.4070496681162741,0.07293812466620864,0.8285648889906154
1688152523233825,0.30426489662012646,0.037659266041046635,0.9265888456549938
1688152523249815,0.31097886625467286,0.10467689021133708,1.012161440451667
1688152523265804,0.33539330128938705,0.06854352635996008,0.9964141298542764
1688152523281793,0.30084687571526647,-0.04132143129625376,0.9879911497673
1688152523297790,0.22528419928282606,-0.09222552834363329,1.0930952925917445
1688152523313779,0.15521477073319634,-0.1585107194628823,0.9167009994659345
