Timestamp (microseconds),Gyro X (°/s),Gyro Y (°/s),Gyro Z (°/s)
1688152498673797,-0.7171740291447577,0.5340657663844013,-0.22888532845047393
1688152498689795,-0.6256198977645226,0.5645838101777372,-0.19836728465702436
1688152498705792,-0.7476920729380936,0.5645838101777372,-0.19836728465702436
1688152498721789,-0.7476920729380936,0.5035477225909517,-0.19836728465702436
1688152498737787,-0.7171740291447577,0.5340657663844013,-0.2594033722438098
1688152498753784,-0.7171740291447577,0.5951018539711868,-0.19836728465702436
1688152498769782,-0.7171740291447577,0.5951018539711868,-0.16784924086368846
1688152498785779,-0.8087281605248791,0.5645838101777372,-0.16784924086368846
1688152498801777,-0.7476920729380936,0.5340657663844013,-0.19836728465702436
1688152498817774,-0.6866559853513081,0.5645838101777372,-0.16784924086368846
1688152498833771,-0.7476920729380936,0.5645838101777372,-0.19836728465702436
1688152498849769,-0.44251163500416624,0.5645838101777372,-0.19836728465702436
1688152498865766,-0.9918364232852355,0.5951018539711868,-0.22888532845047393
1688152498881764,-0.7171740291447577,0.5951018539711868,-0.19836728465702436
1688152498897761,-0.5340657663844013,0.5951018539711868,-0.16784924086368846
1688152498913758,-0.7782101167315432,0.5340657663844013,-0.22888532845047393
1688152498929756,-0.8697642481116645,0.6256198977645226,-0.16784924086368846
1688152498945753,-0.6256198977645226,0.5645838101777372,-0.1373311970702389
1688152498961751,-0.7476920729380936,0.5645838101777372,-0.16784924086368846
1688152498977748,-0.9002822919051141,0.6256198977645226,-0.16784924086368846
1688152498993744,-0.6256198977645226,0.4730296787976158,-0.1373311970702389
1688152499009741,-0.6256198977645226,0.5951018539711868,-0.1373311970702389
1688152499025738,-0.8087281605248791,0.5951018539711868,-0.1373311970702389
1688152499041736,-0.8087281605248791,0.5645838101777372,-0.16784924086368846
1688152499057733,-0.6866559853513081,0.5035477225909517,-0.19836728465702436
1688152499073731,-0.6561379415579722,0.5645838101777372,-0.19836728465702436
1688152499089728,-0.5951018539711868,0.5340657663844013,-0.1373311970702389
1688152499105725,-0.7171740291447577,0.5645838101777372,-0.19836728465702436
1688152499121723,-0.8392462043183286,0.5951018539711868,-0.19836728465702436
1688152499137720,-0.6866559853513081,0.5951018539711868,-0.16784924086368846
1688152499153718,-0.6866559853513081,0.5645838101777372,-0.19836728465702436
1688152499169715,-0.7782101167315432,0.4730296787976158,-0.16784924086368846
1688152499185712,-0.8087281605248791,0.5340657663844013,-0.16784924086368846
1688152499201710,-0.6256198977645226,0.5951018539711868,-0.22888532845047393
1688152499217707,-0.6561379415579722,0.6256198977645226,-0.22888532845047393
1688152499233705,-0.7476920729380936,0.5645838101777372,-0.22888532845047393
1688152499249702,-0.7476920729380936,0.5340657663844013,-0.16784924086368846
1688152499265699,-0.5951018539711868,0.5951018539711868,-0.106813153276903
1688152499281697,-0.6561379415579722,0.5645838101777372,-0.1373311970702389
1688152499297694,-0.8392462043183286,0.5645838101777372,-0.19836728465702436
1688152499313690,-0.8087281605248791,0.5645838101777372,-0.19836728465702436
1688152499329687,-0.6256198977645226,0.5951018539711868,-0.16784924086368846
1688152499345685,-0.6256198977645226,0.5645838101777372,-0.19836728465702436
1688152499361682,-0.7476920729380936,0.5035477225909517,-0.19836728465702436
1688152499377679,-0.7782101167315432,0.5645838101777372,-0.22888532845047393
1688152499393677,-0.6256198977645226,0.5951018539711868,-0.16784924086368846
1688152499409674,-0.6256198977645226,0.5645838101777372,-0.19836728465702436
1688152499425672,-1.022354467078685,0.5340657663844013,-0.22888532845047393
1688152499441669,-0.5340657663844013,0.4730296787976158,-0.16784924086368846
1688152499457666,-0.7476920729380936,0.6256198977645226,-0.16784924086368846
1688152499473664,-0.6561379415579722,0.5645838101777372,-0.19836728465702436
1688152499489661,-0.7476920729380936,0.5645838101777372,-0.22888532845047393
1688152499505659,-0.7476920729380936,0.5340657663844013,-0.1373311970702389
1688152499521656,-0.6866559853513081,0.5035477225909517,-0.106813153276903
1688152499537654,-0.6866559853513081,0.5340657663844013,-0.19836728465702436
1688152499553651,-0.7171740291447577,0.5645838101777372,-0.1373311970702389
1688152499569648,-0.7171740291447577,0.6256198977645226,-0.1373311970702389
1688152499585646,-0.7476920729380936,0.6256198977645226,-0.16784924086368846
1688152499601643,-0.5645838101777372,0.5951018539711868,-0.22888532845047393
1688152499617641,-0.7782101167315432,0.5340657663844013,-0.19836728465702436
1688152499633484,-0.7476920729380936,0.5340657663844013,-0.19836728465702436
1688152499649480,-0.7171740291447577,0.5645838101777372,-0.16784924086368846
1688152499665477,-0.7171740291447577,0.5951018539711868,-0.22888532845047393
1688152499681474,-0.7171740291447577,0.5035477225909517,-0.2594033722438098
1688152499697471,-0.7171740291447577,0.5340657663844013,-0.22888532845047393
1688152499713468,-0.6561379415579722,0.5645838101777372,-0.16784924086368846
1688152499729465,-0.6256198977645226,0.5340657663844013,-0.19836728465702436
1688152499745462,-0.7782101167315432,0.4730296787976158,-0.2594033722438098
1688152499761459,-0.7171740291447577,0.5035477225909517,-0.22888532845047393
1688152499777456,-0.6256198977645226,0.5951018539711868,-0.19836728465702436
1688152499793453,-0.6256198977645226,0.5340657663844013,-0.19836728465702436
1688152499809450,-0.7171740291447577,0.5035477225909517,-0.16784924086368846
1688152499825447,-0.7782101167315432,0.5645838101777372,-0.16784924086368846
1688152499841444,-0.6256198977645226,0.5645838101777372,-0.19836728465702436
1688152499857441,-0.6256198977645226,0.5035477225909517,-0.22888532845047393
1688152499873438,-0.7171740291447577,0.5035477225909517,-0.19836728465702436
1688152499889434,-0.7171740291447577,0.5340657663844013,-0.19836728465702436
1688152499905431,-0.6256198977645226,0.6256198977645226,-0.19836728465702436
1688152499921428,-0.6561379415579722,0.6256198977645226,-0.22888532845047393
1688152499937425,-0.6866559853513081,0.5340657663844013,-0.19836728465702436
1688152499953308,-0.7782101167315432,0.5340657663844013,-0.22888532845047393
1688152499969304,-0.5645838101777372,0.5340657663844013,-0.19836728465702436
1688152499985301,-0.5951018539711868,0.5951018539711868,-0.22888532845047393
1688152500001297,-0.7476920729380936,0.5951018539711868,-0.19836728465702436
1688152500017294,-0.8392462043183286,0.5951018539711868,-0.22888532845047393
1688152500033290,-0.6866559853513081,0.5645838101777372,-0.19836728465702436
1688152500049286,-0.6561379415579722,0.5951018539711868,-0.19836728465702436
1688152500065283,-0.7476920729380936,0.5645838101777372,-0.19836728465702436
1688152500081279,-0.8087281605248791,0.5951018539711868,-0.19836728465702436
1688152500097276,-0.6256198977645226,0.5951018539711868,-0.16784924086368846
1688152500113272,-0.6256198977645226,0.6561379415579722,-0.22888532845047393
1688152500129269,-0.6561379415579722,0.6256198977645226,-0.2594033722438098
1688152500145265,-0.7782101167315432,0.5340657663844013,-0.19836728465702436
1688152500161262,-0.6561379415579722,0.5340657663844013,-0.16784924086368846
1688152500177258,-0.6256198977645226,0.5951018539711868,-0.2594033722438098
1688152500193255,-0.6561379415579722,0.5340657663844013,-0.2594033722438098
1688152500209251,-0.8392462043183286,0.5340657663844013,-0.22888532845047393
1688152500225247,-0.6561379415579722,0.5645838101777372,-0.19836728465702436
1688152500241244,-0.6866559853513081,0.5951018539711868,-0.22888532845047393
1688152500257240,-0.6866559853513081,0.5340657663844013,-0.22888532845047393
1688152500273101,-0.8392462043183286,0.5035477225909517,-0.22888532845047393
1688152500289097,-0.6256198977645226,0.5645838101777372,-0.16784924086368846
1688152500305093,-0.6866559853513081,0.5645838101777372,-0.19836728465702436
1688152500321089,-0.6561379415579722,0.5645838101777372,-0.22888532845047393
1688152500337085,-0.7476920729380936,0.5645838101777372,-0.22888532845047393
1688152500353081,-0.6256198977645226,0.5340657663844013,-0.1373311970702389
1688152500369077,-0.6256198977645226,0.5951018539711868,-0.19836728465702436
1688152500385073,-0.6561379415579722,0.5340657663844013,-0.19836728465702436
1688152500401069,-0.8087281605248791,0.5340657663844013,-0.19836728465702436
1688152500417065,-0.7171740291447577,0.5035477225909517,-0.2594033722438098
1688152500433061,-0.5951018539711868,0.5951018539711868,-0.22888532845047393
1688152500449057,-0.6561379415579722,0.5340657663844013,-0.16784924086368846
1688152500465053,-0.7782101167315432,0.5340657663844013,-0.16784924086368846
1688152500481049,-0.7476920729380936,0.5951018539711868,-0.22888532845047393
1688152500497045,-0.6561379415579722,0.5645838101777372,-0.2594033722438098
1688152500513041,-0.7476920729380936,0.5340657663844013,-0.16784924086368846
1688152500529037,-0.7782101167315432,0.5340657663844013,-0.19836728465702436
1688152500545033,-0.6256198977645226,0.5340657663844013,-0.19836728465702436
1688152500561029,-0.6866559853513081,0.6256198977645226,-0.2594033722438098
1688152500577025,-0.6866559853513081,0.5951018539711868,-0.22888532845047393
1688152500592865,-0.7782101167315432,0.5645838101777372,-0.16784924086368846
1688152500608860,-0.7782101167315432,0.5645838101777372,-0.19836728465702436
1688152500624856,-0.6256198977645226,0.5951018539711868,-0.19836728465702436
1688152500640851,-0.6866559853513081,0.5951018539711868,-0.2594033722438098
1688152500656847,-0.7171740291447577,0.5645838101777372,-0.19836728465702436
1688152500672842,-0.7782101167315432,0.5951018539711868,-0.19836728465702436
1688152500688838,-0.5951018539711868,0.5645838101777372,-0.22888532845047393
1688152500704833,-0.7171740291447577,0.5645838101777372,-0.19836728465702436
1688152500720829,-0.8392462043183286,0.5035477225909517,-0.22888532845047393
1688152500736824,-0.7476920729380936,0.5035477225909517,-0.2594033722438098
1688152500752820,-0.6256198977645226,0.5951018539711868,-0.22888532845047393
1688152500768815,-0.6256198977645226,0.5645838101777372,-0.22888532845047393
1688152500784811,-0.6866559853513081,0.5340657663844013,-0.2594033722438098
1688152500800806,-0.7782101167315432,0.5645838101777372,-0.2899214160372594
1688152500816802,-0.5951018539711868,0.5340657663844013,-0.22888532845047393
1688152500832797,-0.5951018539711868,0.5035477225909517,-0.19836728465702436
1688152500848793,-0.8392462043183286,0.5340657663844013,-0.16784924086368846
1688152500864788,-0.7476920729380936,0.5340657663844013,-0.19836728465702436
1688152500880784,-0.6866559853513081,0.5951018539711868,-0.16784924086368846
1688152500896779,-0.7476920729380936,0.5340657663844013,-0.16784924086368846
1688152500912689,-0.8087281605248791,0.5340657663844013,-0.16784924086368846
1688152500928684,-0.7171740291447577,0.5645838101777372,-0.1373311970702389
1688152500944679,-0.5951018539711868,0.6256198977645226,-0.16784924086368846
1688152500960674,-0.6866559853513081,0.5951018539711868,-0.22888532845047393
1688152500976669,-0.7476920729380936,0.5645838101777372,-0.2594033722438098
1688152500992664,-0.7171740291447577,0.5645838101777372,-0.19836728465702436
1688152501008659,-0.6256198977645226,0.5645838101777372,-0.19836728465702436
1688152501024654,-0.6256198977645226,0.5645838101777372,-0.16784924086368846
1688152501040649,-0.7476920729380936,0.5035477225909517,-0.1373311970702389
1688152501056644,-0.8087281605248791,0.4730296787976158,-0.19836728465702436
1688152501072639,-0.5951018539711868,0.5951018539711868,-0.19836728465702436
1688152501088634,-0.5951018539711868,0.5340657663844013,-0.16784924086368846
1688152501104629,-0.7782101167315432,0.5340657663844013,-0.22888532845047393
1688152501120624,-0.8392462043183286,0.5340657663844013,-0.19836728465702436
1688152501136619,-0.6256198977645226,0.5951018539711868,-0.19836728465702436
1688152501152614,-0.6256198977645226,0.5340657663844013,-0.22888532845047393
1688152501168609,-0.8697642481116645,0.5340657663844013,-0.19836728465702436
1688152501184604,-0.7476920729380936,0.5035477225909517,-0.19836728465702436
1688152501200599,-0.6256198977645226,0.5951018539711868,-0.16784924086368846
1688152501216594,-0.6256198977645226,0.6256198977645226,-0.19836728465702436
1688152501232483,-0.7782101167315432,0.5035477225909517,-0.22888532845047393
1688152501248477,-0.8087281605248791,0.5035477225909517,-0.19836728465702436
1688152501264472,-0.6561379415579722,0.5340657663844013,-0.22888532845047393
1688152501280466,-0.6866559853513081,0.5645838101777372,-0.22888532845047393
1688152501296461,-0.7782101167315432,0.5340657663844013,-0.22888532845047393
1688152501312455,-0.7171740291447577,0.5645838101777372,-0.19836728465702436
1688152501328450,-0.6256198977645226,0.5645838101777372,-0.16784924086368846
1688152501344444,-0.6561379415579722,0.5951018539711868,-0.19836728465702436
1688152501360439,-0.8392462043183286,0.5645838101777372,-0.22888532845047393
1688152501376433,-0.7782101167315432,0.5340657663844013,-0.22888532845047393
1688152501392428,-0.6561379415579722,0.5645838101777372,-0.19836728465702436
1688152501408423,-0.6256198977645226,0.5645838101777372,-0.16784924086368846
1688152501424417,-0.7782101167315432,0.5340657663844013,-0.19836728465702436
1688152501440412,-0.7782101167315432,0.5340657663844013,-0.19836728465702436
1688152501456406,-0.6561379415579722,0.6256198977645226,-0.16784924086368846
1688152501472401,-0.5951018539711868,0.5951018539711868,-0.19836728465702436
1688152501488395,-0.7171740291447577,0.5645838101777372,-0.19836728465702436
1688152501504390,-0.7171740291447577,0.5951018539711868,-0.19836728465702436
1688152501520384,-0.5951018539711868,0.5645838101777372,-0.22888532845047393
1688152501536379,-0.5340657663844013,0.5340657663844013,-0.22888532845047393
1688152501552276,-0.8087281605248791,0.5035477225909517,-0.2594033722438098
1688152501568270,-0.7782101167315432,0.5035477225909517,-0.2594033722438098
1688152501584264,-0.5951018539711868,0.5035477225909517,-0.19836728465702436
1688152501600258,-0.5951018539711868,0.5035477225909517,-0.19836728465702436
1688152501616253,-0.7171740291447577,0.5340657663844013,-0.22888532845047393
1688152501632247,-0.8087281605248791,0.5035477225909517,-0.22888532845047393
1688152501648241,-0.6561379415579722,0.5645838101777372,-0.22888532845047393
1688152501664235,-0.5951018539711868,0.5645838101777372,-0.2594033722438098
1688152501680229,-0.6866559853513081,0.5645838101777372,-0.22888532845047393
1688152501696223,-0.7782101167315432,0.5340657663844013,-0.19836728465702436
1688152501712217,-0.6866559853513081,0.5951018539711868,-0.19836728465702436
1688152501728211,-0.5951018539711868,0.5645838101777372,-0.22888532845047393
1688152501744205,-0.6866559853513081,0.5645838101777372,-0.19836728465702436
1688152501760199,-0.8087281605248791,0.5645838101777372,-0.22888532845047393
1688152501776193,-0.6561379415579722,0.5035477225909517,-0.19836728465702436
1688152501792187,-0.6256198977645226,0.5645838101777372,-0.22888532845047393
1688152501808181,-0.6866559853513081,0.4730296787976158,-0.1373311970702389
1688152501824175,-0.7476920729380936,0.5340657663844013,-0.106813153276903
1688152501840170,-0.6561379415579722,0.5340657663844013,-0.106813153276903
1688152501856164,-0.6256198977645226,0.5645838101777372,-0.16784924086368846
1688152501872039,-0.7476920729380936,0.5340657663844013,-0.19836728465702436
1688152501888033,-0.8087281605248791,0.5645838101777372,-0.22888532845047393
1688152501904028,-0.7171740291447577,0.6256198977645226,-0.106813153276903
1688152501920022,-0.6561379415579722,0.6256198977645226,-0.16784924086368846
1688152501936016,-0.6866559853513081,0.5035477225909517,-0.1373311970702389
1688152501952010,-0.8087281605248791,0.5645838101777372,-0.19836728465702436
1688152501968004,-0.6561379415579722,0.5645838101777372,-0.16784924086368846
1688152501983998,-0.6256198977645226,0.5645838101777372,-0.2594033722438098
1688152501999992,-0.7171740291447577,0.4730296787976158,-0.3204394598305953
1688152502015986,-0.8087281605248791,0.44251163500416624,-0.19836728465702436
1688152502031980,-0.6866559853513081,0.5340657663844013,-0.19836728465702436
1688152502047974,-0.6256198977645226,0.5951018539711868,-0.22888532845047393
1688152502063968,-0.6866559853513081,0.5340657663844013,-0.22888532845047393
1688152502079962,-0.7476920729380936,0.5035477225909517,-0.2899214160372594
1688152502095956,-0.7171740291447577,0.5645838101777372,-0.19836728465702436
1688152502111950,-0.5645838101777372,0.6256198977645226,-0.2594033722438098
1688152502127945,-0.6561379415579722,0.5645838101777372,-0.2899214160372594
1688152502143939,-0.7476920729380936,0.5951018539711868,-0.19836728465702436
1688152502159933,-0.7171740291447577,0.5645838101777372,-0.19836728465702436
1688152502175927,-0.5645838101777372,0.5645838101777372,-0.22888532845047393
1688152502191833,-0.7476920729380936,0.5340657663844013,-0.22888532845047393
1688152502207827,-0.8392462043183286,0.5340657663844013,-0.19836728465702436
1688152502223820,-0.6561379415579722,0.5340657663844013,-0.16784924086368846
1688152502239814,-0.5645838101777372,0.6256198977645226,-0.16784924086368846
1688152502255808,-0.7171740291447577,0.5645838101777372,-0.19836728465702436
1688152502271801,-0.8697642481116645,0.5645838101777372,-0.19836728465702436
1688152502287795,-0.7782101167315432,0.5645838101777372,-0.22888532845047393
1688152502303788,-0.5645838101777372,0.5340657663844013,-0.16784924086368846
1688152502319782,-0.5951018539711868,0.5645838101777372,-0.16784924086368846
1688152502335775,-0.7171740291447577,0.5035477225909517,-0.22888532845047393
1688152502351769,-0.6256198977645226,0.5035477225909517,-0.2899214160372594
1688152502367763,-0.5951018539711868,0.6256198977645226,-0.22888532845047393
1688152502383756,-0.6561379415579722,0.5340657663844013,-0.16784924086368846
1688152502399750,-0.7476920729380936,0.5340657663844013,-0.22888532845047393
1688152502415743,-0.7476920729380936,0.5340657663844013,-0.19836728465702436
1688152502431737,-0.6866559853513081,0.5340657663844013,-0.19836728465702436
1688152502447731,-0.6866559853513081,0.5340657663844013,-0.2594033722438098
1688152502463724,-0.8392462043183286,0.5340657663844013,-0.22888532845047393
1688152502479718,-0.7476920729380936,0.5340657663844013,-0.2594033722438098
1688152502495711,-0.6561379415579722,0.5645838101777372,-0.2594033722438098
1688152502511657,-0.6561379415579722,0.5340657663844013,-0.16784924086368846
1688152502527650,-0.8392462043183286,0.5340657663844013,-0.16784924086368846
1688152502543644,-0.8087281605248791,0.5035477225909517,-0.19836728465702436
1688152502559637,-0.6256198977645226,0.5340657663844013,-0.19836728465702436
1688152502575630,-0.6256198977645226,0.5645838101777372,-0.2594033722438098
1688152502591623,-0.7782101167315432,0.5035477225909517,-0.2594033722438098
1688152502607616,-0.6866559853513081,0.5340657663844013,-0.22888532845047393
1688152502623609,-0.6561379415579722,0.5645838101777372,-0.19836728465702436
1688152502639602,-0.6561379415579722,0.5951018539711868,-0.19836728465702436
1688152502655595,-0.7476920729380936,0.5645838101777372,-0.19836728465702436
1688152502671589,-0.7782101167315432,0.5645838101777372,-0.19836728465702436
1688152502687582,-0.6256198977645226,0.5645838101777372,-0.19836728465702436
1688152502703575,-0.6561379415579722,0.5340657663844013,-0.16784924086368846
1688152502719568,-0.6866559853513081,0.5340657663844013,-0.19836728465702436
1688152502735561,-0.7476920729380936,0.5645838101777372,-0.19836728465702436
1688152502751554,-0.7171740291447577,0.5340657663844013,-0.19836728465702436
1688152502767547,-0.5951018539711868,0.5340657663844013,-0.16784924086368846
1688152502783540,-0.6866559853513081,0.5340657663844013,-0.22888532845047393
1688152502799533,-0.6561379415579722,0.4730296787976158,-0.22888532845047393
1688152502815527,-0.6256198977645226,0.6256198977645226,-0.16784924086368846
1688152502831451,-0.6256198977645226,0.5951018539711868,-0.16784924086368846
1688152502847444,-0.7171740291447577,0.5340657663844013,-0.19836728465702436
1688152502863437,-0.8087281605248791,0.5035477225909517,-0.22888532845047393
1688152502879430,-0.5951018539711868,0.5645838101777372,-0.22888532845047393
1688152502895424,-0.6256198977645226,0.5951018539711868,-0.2594033722438098
1688152502911417,-0.7171740291447577,0.4730296787976158,-0.19836728465702436
1688152502927410,-0.8087281605248791,0.5340657663844013,-0.19836728465702436
1688152502943403,-0.6256198977645226,0.5645838101777372,-0.22888532845047393
1688152502959396,-0.5645838101777372,0.5645838101777372,-0.22888532845047393
1688152502975389,-0.7476920729380936,0.5340657663844013,-0.22888532845047393
1688152502991382,-0.7782101167315432,0.5645838101777372,-0.22888532845047393
1688152503007375,-0.6256198977645226,0.5645838101777372,-0.22888532845047393
1688152503023368,-0.6256198977645226,0.5340657663844013,-0.22888532845047393
1688152503039362,-0.7476920729380936,0.5645838101777372,-0.22888532845047393
1688152503055355,-0.7476920729380936,0.5645838101777372,-0.16784924086368846
1688152503071348,-0.6256198977645226,0.5035477225909517,-0.19836728465702436
1688152503087341,-0.6561379415579722,0.5035477225909517,-0.19836728465702436
1688152503103334,-0.8087281605248791,0.5645838101777372,-0.22888532845047393
1688152503119327,-0.7782101167315432,0.5645838101777372,-0.22888532845047393
1688152503135320,-0.6256198977645226,0.5645838101777372,-0.2594033722438098
1688152503151184,-0.6256198977645226,0.5340657663844013,-0.19836728465702436
1688152503167176,-0.6866559853513081,0.5035477225909517,-0.2594033722438098
1688152503183169,-0.8392462043183286,0.5951018539711868,-0.22888532845047393
1688152503199162,-0.6561379415579722,0.5340657663844013,-0.22888532845047393
1688152503215154,-0.6256198977645226,0.5035477225909517,-0.19836728465702436
1688152503231147,-0.7476920729380936,0.4730296787976158,-0.19836728465702436
1688152503247140,-0.7476920729380936,0.5035477225909517,-0.16784924086368846
1688152503263132,-0.6866559853513081,0.6256198977645226,-0.19836728465702436
1688152503279125,-0.5340657663844013,0.5645838101777372,-0.16784924086368846
1688152503295117,-0.8087281605248791,0.5645838101777372,-0.19836728465702436
1688152503311110,-0.8087281605248791,0.5340657663844013,-0.19836728465702436
1688152503327103,-0.6561379415579722,0.5645838101777372,-0.16784924086368846
1688152503343095,-0.6256198977645226,0.5645838101777372,-0.19836728465702436
1688152503359088,-0.7476920729380936,0.5645838101777372,-0.2594033722438098
1688152503375081,-0.7782101167315432,0.5340657663844013,-0.19836728465702436
1688152503391073,-0.5035477225909517,0.5645838101777372,-0.16784924086368846
1688152503407066,-0.5340657663844013,0.5340657663844013,-0.1373311970702389
1688152503423059,-0.6561379415579722,0.5340657663844013,-0.16784924086368846
1688152503439051,-0.7476920729380936,0.5645838101777372,-0.19836728465702436
1688152503455044,-0.6866559853513081,0.5340657663844013,-0.1373311970702389
1688152503470977,-0.6256198977645226,0.5951018539711868,-0.1373311970702389
1688152503486970,-0.7171740291447577,0.5035477225909517,-0.22888532845047393
1688152503502962,-0.8087281605248791,0.5340657663844013,-0.22888532845047393
1688152503518954,-0.6866559853513081,0.5645838101777372,-0.2594033722438098
1688152503534946,-0.5951018539711868,0.6256198977645226,-0.2594033722438098
1688152503550938,-0.7476920729380936,0.6256198977645226,-0.22888532845047393
1688152503566930,-0.7476920729380936,0.5645838101777372,-0.19836728465702436
1688152503582923,-0.6561379415579722,0.5645838101777372,-0.1373311970702389
1688152503598915,-0.5340657663844013,0.5951018539711868,-0.16784924086368846
1688152503614907,-0.7782101167315432,0.5340657663844013,-0.22888532845047393
1688152503630899,-0.8392462043183286,0.5340657663844013,-0.22888532845047393
1688152503646891,-0.7171740291447577,0.5340657663844013,-0.19836728465702436
1688152503662883,-0.5340657663844013,0.5645838101777372,-0.1373311970702389
1688152503678876,-0.6256198977645226,0.5645838101777372,-0.22888532845047393
1688152503694868,-0.8392462043183286,0.5035477225909517,-0.22888532845047393
1688152503710860,-0.6866559853513081,0.5645838101777372,-0.22888532845047393
1688152503726852,-0.6256198977645226,0.5645838101777372,-0.1373311970702389
1688152503742844,-0.8087281605248791,0.6256198977645226,-0.19836728465702436
1688152503758836,-0.8392462043183286,0.5645838101777372,-0.2899214160372594
1688152503774829,-0.6561379415579722,0.5645838101777372,-0.1373311970702389
1688152503790771,-0.5951018539711868,0.5645838101777372,-0.16784924086368846
1688152503806763,-0.7476920729380936,0.5645838101777372,-0.16784924086368846
1688152503822755,-0.7782101167315432,0.5340657663844013,-0.22888532845047393
1688152503838748,-0.7476920729380936,0.5951018539711868,-0.16784924086368846
1688152503854740,-0.6256198977645226,0.5951018539711868,-0.19836728465702436
1688152503870732,-0.6561379415579722,0.5951018539711868,-0.16784924086368846
1688152503886724,-0.7476920729380936,0.5645838101777372,-0.22888532845047393
1688152503902716,-0.6866559853513081,0.5340657663844013,-0.19836728465702436
1688152503918708,-0.6561379415579722,0.5340657663844013,-0.22888532845047393
1688152503934701,-0.7171740291447577,0.5645838101777372,-0.22888532845047393
1688152503950693,-0.8697642481116645,0.5645838101777372,-0.19836728465702436
1688152503966685,-0.7171740291447577,0.5645838101777372,-0.19836728465702436
1688152503982677,-0.6561379415579722,0.5645838101777372,-0.16784924086368846
1688152503998669,-0.6561379415579722,0.5340657663844013,-0.2594033722438098
1688152504014661,-0.9002822919051141,0.5340657663844013,-0.19836728465702436
1688152504030654,-0.7476920729380936,0.5951018539711868,-0.2594033722438098
1688152504046646,-0.6561379415579722,0.5645838101777372,-0.22888532845047393
1688152504062638,-0.8087281605248791,0.5340657663844013,-0.16784924086368846
1688152504078630,-0.8392462043183286,0.5340657663844013,-0.19836728465702436
1688152504094622,-0.7171740291447577,0.5035477225909517,-0.22888532845047393
1688152504110565,-0.6866559853513081,0.6256198977645226,-0.19836728465702436
1688152504126557,-0.7476920729380936,0.5951018539711868,-0.16784924086368846
1688152504142549,-0.7782101167315432,0.5645838101777372,-0.16784924086368846
1688152504158541,-0.7171740291447577,0.5340657663844013,-0.19836728465702436
1688152504174533,-0.6256198977645226,0.5645838101777372,-0.19836728465702436
1688152504190526,-0.6561379415579722,0.5951018539711868,-0.16784924086368846
1688152504206518,-0.8087281605248791,0.5340657663844013,-0.19836728465702436
1688152504222510,-0.7782101167315432,0.5340657663844013,-0.19836728465702436
1688152504238502,-0.6561379415579722,0.5645838101777372,-0.22888532845047393
1688152504254494,-0.6256198977645226,0.5340657663844013,-0.22888532845047393
1688152504270486,-0.8087281605248791,0.5340657663844013,-0.19836728465702436
1688152504286479,-0.7476920729380936,0.5035477225909517,-0.22888532845047393
1688152504302471,-0.5951018539711868,0.5951018539711868,-0.19836728465702436
1688152504318463,-0.6256198977645226,0.5645838101777372,-0.19836728465702436
1688152504334455,-0.7171740291447577,0.5951018539711868,-0.19836728465702436
1688152504350447,-0.6866559853513081,0.5645838101777372,-0.22888532845047393
1688152504366439,-0.6256198977645226,0.5645838101777372,-0.22888532845047393
1688152504382432,-0.6256198977645226,0.5645838101777372,-0.19836728465702436
1688152504398424,-0.7476920729380936,0.4730296787976158,-0.16784924086368846
1688152504414416,-0.7476920729380936,0.5340657663844013,-0.22888532845047393
1688152504430359,-0.5645838101777372,0.5951018539711868,-0.22888532845047393
1688152504446350,-0.6256198977645226,0.6256198977645226,-0.22888532845047393
1688152504462342,-0.8697642481116645,0.5645838101777372,-0.19836728465702436
1688152504478334,-0.6866559853513081,0.5035477225909517,-0.19836728465702436
1688152504494325,-0.6561379415579722,0.5645838101777372,-0.19836728465702436
1688152504510317,-0.6256198977645226,0.5951018539711868,-0.19836728465702436
1688152504526309,-0.8087281605248791,0.5645838101777372,-0.22888532845047393
1688152504542300,-0.7171740291447577,0.5340657663844013,-0.2594033722438098
1688152504558292,-0.5645838101777372,0.5951018539711868,-0.19836728465702436
1688152504574284,-0.5951018539711868,0.5951018539711868,-0.1373311970702389
1688152504590275,-0.6866559853513081,0.5645838101777372,-0.16784924086368846
1688152504606267,-0.7782101167315432,0.5645838101777372,-0.16784924086368846
1688152504622259,-0.6561379415579722,0.5645838101777372,-0.19836728465702436
1688152504638250,-0.6256198977645226,0.5035477225909517,-0.22888532845047393
1688152504654242,-0.7782101167315432,0.5035477225909517,-0.19836728465702436
1688152504670234,-0.8392462043183286,0.5340657663844013,-0.19836728465702436
1688152504686226,-0.5951018539711868,0.5645838101777372,-0.22888532845047393
1688152504702217,-0.6561379415579722,0.5340657663844013,-0.16784924086368846
1688152504718209,-0.7782101167315432,0.5035477225909517,-0.19836728465702436
1688152504734201,-0.7782101167315432,0.5645838101777372,-0.3204394598305953
1688152504750152,-0.5951018539711868,0.5645838101777372,-0.22888532845047393
1688152504766144,-0.6561379415579722,0.5645838101777372,-0.19836728465702436
1688152504782136,-0.7476920729380936,0.5035477225909517,-0.22888532845047393
1688152504798127,-0.7476920729380936,0.5340657663844013,-0.19836728465702436
1688152504814119,-0.6561379415579722,0.5645838101777372,-0.19836728465702436
1688152504830111,-0.5645838101777372,0.5645838101777372,-0.16784924086368846
1688152504846102,-0.7782101167315432,0.5645838101777372,-0.22888532845047393
1688152504862094,-0.7782101167315432,0.4730296787976158,-0.22888532845047393
1688152504878086,-0.6256198977645226,0.5951018539711868,-0.16784924086368846
1688152504894077,-0.6256198977645226,0.5645838101777372,-0.19836728465702436
1688152504910069,-0.7171740291447577,0.5645838101777372,-0.2594033722438098
1688152504926061,-0.6561379415579722,0.5645838101777372,-0.2594033722438098
1688152504942052,-0.5951018539711868,0.5951018539711868,-0.22888532845047393
1688152504958044,-0.5645838101777372,0.5951018539711868,-0.22888532845047393
1688152504974036,-0.7171740291447577,0.5645838101777372,-0.16784924086368846
1688152504990028,-0.7476920729380936,0.5645838101777372,-0.16784924086368846
1688152505006019,-0.5645838101777372,0.5340657663844013,-0.19836728465702436
1688152505022011,-0.5645838101777372,0.5951018539711868,-0.19836728465702436
1688152505038003,-0.7171740291447577,0.5645838101777372,-0.19836728465702436
1688152505053994,-0.8392462043183286,0.5645838101777372,-0.22888532845047393
1688152505069946,-0.5340657663844013,0.5645838101777372,-0.22888532845047393
1688152505085938,-0.6256198977645226,0.5645838101777372,-0.19836728465702436
1688152505101929,-0.7476920729380936,0.5340657663844013,-0.2594033722438098
1688152505117921,-0.7476920729380936,0.5035477225909517,-0.2594033722438098
1688152505133913,-0.7171740291447577,0.5951018539711868,-0.22888532845047393
1688152505149904,-0.5951018539711868,0.5035477225909517,-0.22888532845047393
1688152505165896,-0.7782101167315432,0.5340657663844013,-0.22888532845047393
1688152505181888,-0.8087281605248791,0.5645838101777372,-0.19836728465702436
1688152505197879,-0.6866559853513081,0.5645838101777372,-0.19836728465702436
1688152505213871,-0.6561379415579722,0.6256198977645226,-0.19836728465702436
1688152505229863,-0.6866559853513081,0.5340657663844013,-0.22888532845047393
1688152505245854,-0.7782101167315432,0.5035477225909517,-0.19836728465702436
1688152505261846,-0.6866559853513081,0.5340657663844013,-0.16784924086368846
1688152505277838,-0.5951018539711868,0.5951018539711868,-0.16784924086368846
1688152505293830,-0.6866559853513081,0.4730296787976158,-0.22888532845047393
1688152505309821,-0.8087281605248791,0.5340657663844013,-0.19836728465702436
1688152505325813,-0.6866559853513081,0.5645838101777372,-0.19836728465702436
1688152505341805,-0.5951018539711868,0.5645838101777372,-0.19836728465702436
1688152505357796,-0.6866559853513081,0.5035477225909517,-0.19836728465702436
1688152505373788,-0.7476920729380936,0.5035477225909517,-0.22888532845047393
1688152505389740,-0.6866559853513081,0.4730296787976158,-0.1373311970702389
1688152505405731,-0.5645838101777372,0.5645838101777372,-0.22888532845047393
1688152505421722,-0.7171740291447577,0.5645838101777372,-0.22888532845047393
1688152505437713,-0.7476920729380936,0.5035477225909517,-0.19836728465702436
1688152505453704,-0.6561379415579722,0.5340657663844013,-0.19836728465702436
1688152505469696,-0.5645838101777372,0.5645838101777372,-0.1373311970702389
1688152505485687,-0.7171740291447577,0.5951018539711868,-0.19836728465702436
1688152505501678,-0.8087281605248791,0.5340657663844013,-0.19836728465702436
1688152505517669,-0.6866559853513081,0.5035477225909517,-0.16784924086368846
1688152505533661,-0.5951018539711868,0.5645838101777372,-0.19836728465702436
1688152505549652,-0.6866559853513081,0.5340657663844013,-0.22888532845047393
1688152505565643,-0.7782101167315432,0.5340657663844013,-0.22888532845047393
1688152505581634,-0.6866559853513081,0.5951018539711868,-0.22888532845047393
1688152505597625,-0.5951018539711868,0.5645838101777372,-0.19836728465702436
1688152505613617,-0.7171740291447577,0.5645838101777372,-0.19836728465702436
1688152505629608,-0.8697642481116645,0.5340657663844013,-0.22888532845047393
1688152505645599,-0.7476920729380936,0.5645838101777372,-0.19836728465702436
1688152505661590,-0.6256198977645226,0.5645838101777372,-0.22888532845047393
1688152505677581,-0.7476920729380936,0.5340657663844013,-0.19836728465702436
1688152505693573,-0.8392462043183286,0.5035477225909517,-0.19836728465702436
1688152505709503,-0.7171740291447577,0.5951018539711868,-0.19836728465702436
1688152505725494,-0.6561379415579722,0.5645838101777372,-0.106813153276903
1688152505741485,-0.7171740291447577,0.5340657663844013,-0.2594033722438098
1688152505757476,-0.8392462043183286,0.5035477225909517,-0.22888532845047393
1688152505773468,-0.7476920729380936,0.5340657663844013,-0.19836728465702436
1688152505789459,-0.7171740291447577,0.5951018539711868,-0.19836728465702436
1688152505805450,-0.7171740291447577,0.5645838101777372,-0.19836728465702436
1688152505821441,-0.8392462043183286,0.5340657663844013,-0.2594033722438098
1688152505837432,-0.6866559853513081,0.5340657663844013,-0.2594033722438098
1688152505853424,-0.5645838101777372,0.5645838101777372,-0.19836728465702436
1688152505869415,-0.6561379415579722,0.5645838101777372,-0.1373311970702389
1688152505885406,-0.8392462043183286,0.5035477225909517,-0.16784924086368846
1688152505901397,-0.6866559853513081,0.5645838101777372,-0.19836728465702436
1688152505917389,-0.6256198977645226,0.5951018539711868,-0.19836728465702436
1688152505933380,-0.6561379415579722,0.5340657663844013,-0.22888532845047393
1688152505949371,-0.7782101167315432,0.5340657663844013,-0.2594033722438098
1688152505965362,-0.7171740291447577,0.5035477225909517,-0.2594033722438098
1688152505981353,-0.5951018539711868,0.5340657663844013,-0.2594033722438098
1688152505997345,-0.6561379415579722,0.5951018539711868,-0.2594033722438098
1688152506013336,-0.7476920729380936,0.5035477225909517,-0.22888532845047393
1688152506029297,-0.7476920729380936,0.5035477225909517,-0.19836728465702436
1688152506045288,-0.5340657663844013,0.5035477225909517,-0.16784924086368846
1688152506061279,-0.6561379415579722,0.5340657663844013,-0.19836728465702436
1688152506077270,-0.7782101167315432,0.5340657663844013,-0.22888532845047393
1688152506093261,-0.7171740291447577,0.5035477225909517,-0.19836728465702436
1688152506109253,-0.6561379415579722,0.5645838101777372,-0.1373311970702389
1688152506125244,-0.7171740291447577,0.5340657663844013,-0.1373311970702389
1688152506141235,-0.7476920729380936,0.5035477225909517,-0.16784924086368846
1688152506157226,-0.7171740291447577,0.5951018539711868,-0.16784924086368846
1688152506173217,-0.5951018539711868,0.5645838101777372,-0.2594033722438098
1688152506189209,-0.6561379415579722,0.5951018539711868,-0.19836728465702436
1688152506205200,-0.7476920729380936,0.5645838101777372,-0.22888532845047393
1688152506221191,-0.7476920729380936,0.6256198977645226,-0.22888532845047393
1688152506237182,-0.6256198977645226,0.6561379415579722,-0.19836728465702436
1688152506253173,-0.5645838101777372,0.5951018539711868,-0.2594033722438098
1688152506269165,-0.7476920729380936,0.5645838101777372,-0.19836728465702436
1688152506285156,-0.7476920729380936,0.5340657663844013,-0.19836728465702436
1688152506301147,-0.6561379415579722,0.5951018539711868,-0.19836728465702436
1688152506317138,-0.6866559853513081,0.6256198977645226,-0.19836728465702436
1688152506333130,-0.6561379415579722,0.5035477225909517,-0.22888532845047393
1688152506349090,-0.7476920729380936,0.5340657663844013,-0.22888532845047393
1688152506365081,-0.5035477225909517,0.5645838101777372,-0.22888532845047393
1688152506381072,-0.6561379415579722,0.5951018539711868,-0.19836728465702436
1688152506397062,-0.7782101167315432,0.44251163500416624,-0.19836728465702436
1688152506413053,-0.8087281605248791,0.5951018539711868,-0.1373311970702389
1688152506429044,-0.6256198977645226,0.5645838101777372,-0.22888532845047393
1688152506445035,-0.5951018539711868,0.5645838101777372,-0.2594033722438098
1688152506461025,-0.7476920729380936,0.5340657663844013,-0.2594033722438098
1688152506477016,-0.8392462043183286,0.5340657663844013,-0.2594033722438098
1688152506493007,-0.5951018539711868,0.5951018539711868,-0.19836728465702436
1688152506508998,-0.6256198977645226,0.5951018539711868,-0.22888532845047393
1688152506524988,-0.8392462043183286,0.5951018539711868,-0.19836728465702436
1688152506540979,-0.7171740291447577,0.4730296787976158,-0.16784924086368846
1688152506556970,-0.6256198977645226,0.5951018539711868,-0.1373311970702389
1688152506572960,-0.5951018539711868,0.5645838101777372,-0.16784924086368846
1688152506588951,-0.6561379415579722,0.4730296787976158,-0.22888532845047393
1688152506604942,-0.8697642481116645,0.5645838101777372,-0.2594033722438098
1688152506620933,-0.5951018539711868,0.5951018539711868,-0.16784924086368846
1688152506636923,-0.6256198977645226,0.5951018539711868,-0.16784924086368846
1688152506652914,-0.6561379415579722,0.5951018539711868,-0.2594033722438098
1688152506668884,-0.7171740291447577,0.5645838101777372,-0.19836728465702436
1688152506684875,-0.6866559853513081,0.6256198977645226,-0.16784924086368846
1688152506700865,-0.6256198977645226,0.5645838101777372,-0.19836728465702436
1688152506716856,-0.8392462043183286,0.6256198977645226,-0.16784924086368846
1688152506732847,-0.8087281605248791,0.5645838101777372,-0.19836728465702436
1688152506748838,-0.6256198977645226,0.5035477225909517,-0.19836728465702436
1688152506764828,-0.5951018539711868,0.4730296787976158,-0.22888532845047393
1688152506780819,-0.6256198977645226,0.5340657663844013,-0.16784924086368846
1688152506796810,-0.9002822919051141,0.5645838101777372,-0.19836728465702436
1688152506812801,-0.6256198977645226,0.5645838101777372,-0.19836728465702436
1688152506828791,-0.7171740291447577,0.6256198977645226,-0.19836728465702436
1688152506844782,-0.7782101167315432,0.5645838101777372,-0.16784924086368846
1688152506860773,-0.7782101167315432,0.5645838101777372,-0.19836728465702436
1688152506876763,-0.6256198977645226,0.5645838101777372,-0.16784924086368846
1688152506892754,-0.6256198977645226,0.5951018539711868,-0.22888532845047393
1688152506908745,-0.7782101167315432,0.5951018539711868,-0.16784924086368846
1688152506924736,-0.7476920729380936,0.5340657663844013,-0.19836728465702436
1688152506940726,-0.6256198977645226,0.5645838101777372,-0.22888532845047393
1688152506956717,-0.6561379415579722,0.5340657663844013,-0.19836728465702436
1688152506972708,-0.6866559853513081,0.5035477225909517,-0.22888532845047393
1688152506988647,-0.7476920729380936,0.5645838101777372,-0.22888532845047393
1688152507004638,-0.6256198977645226,0.5951018539711868,-0.19836728465702436
1688152507020629,-0.6866559853513081,0.6256198977645226,-0.16784924086368846
1688152507036619,-0.7476920729380936,0.5340657663844013,-0.22888532845047393
1688152507052610,-0.7476920729380936,0.5645838101777372,-0.16784924086368846
1688152507068601,-0.5951018539711868,0.5951018539711868,-0.16784924086368846
1688152507084591,-0.5340657663844013,0.5951018539711868,-0.16784924086368846
1688152507100582,-0.7476920729380936,0.5035477225909517,-0.19836728465702436
1688152507116573,-0.8392462043183286,0.44251163500416624,-0.2594033722438098
1688152507132564,-0.6561379415579722,0.5645838101777372,-0.16784924086368846
1688152507148554,-0.6561379415579722,0.5340657663844013,-0.16784924086368846
1688152507164545,-0.7171740291447577,0.4730296787976158,-0.1373311970702389
1688152507180536,-0.8392462043183286,0.5645838101777372,-0.16784924086368846
1688152507196527,-0.5951018539711868,0.6256198977645226,-0.1373311970702389
1688152507212517,-0.5340657663844013,0.5645838101777372,-0.19836728465702436
1688152507228508,-0.7171740291447577,0.5645838101777372,-0.22888532845047393
1688152507244499,-0.7782101167315432,0.4730296787976158,-0.19836728465702436
1688152507260490,-0.5951018539711868,0.5340657663844013,-0.16784924086368846
1688152507276480,-0.5645838101777372,0.5951018539711868,-0.22888532845047393
1688152507292471,-0.7171740291447577,0.5340657663844013,-0.2594033722438098
1688152507308441,-0.8392462043183286,0.5645838101777372,-0.22888532845047393
1688152507324431,-0.6561379415579722,0.5340657663844013,-0.19836728465702436
1688152507340421,-0.5645838101777372,0.5951018539711868,-0.16784924086368846
1688152507356412,-0.6561379415579722,0.5340657663844013,-0.19836728465702436
1688152507372402,-0.8087281605248791,0.5035477225909517,-0.2594033722438098
1688152507388392,-0.6866559853513081,0.5951018539711868,-0.16784924086368846
1688152507404382,-0.5340657663844013,0.5951018539711868,-0.19836728465702436
1688152507420373,-0.6561379415579722,0.5645838101777372,-0.19836728465702436
1688152507436363,-0.8392462043183286,0.5035477225909517,-0.19836728465702436
1688152507452353,-0.7476920729380936,0.5951018539711868,-0.19836728465702436
1688152507468343,-0.5951018539711868,0.6256198977645226,-0.19836728465702436
1688152507484334,-0.6866559853513081,0.5340657663844013,-0.22888532845047393
1688152507500324,-0.8392462043183286,0.4730296787976158,-0.22888532845047393
1688152507516314,-0.7476920729380936,0.44251163500416624,-0.16784924086368846
1688152507532304,-0.5645838101777372,0.5340657663844013,-0.16784924086368846
1688152507548295,-0.7171740291447577,0.5951018539711868,-0.22888532845047393
1688152507564285,-0.8087281605248791,0.5340657663844013,-0.2594033722438098
1688152507580275,-0.7171740291447577,0.5951018539711868,-0.2899214160372594
1688152507596265,-0.6561379415579722,0.6256198977645226,-0.22888532845047393
1688152507612256,-0.6866559853513081,0.5340657663844013,-0.22888532845047393
1688152507628265,-0.8392462043183286,0.5645838101777372,-0.2594033722438098
1688152507644255,-0.7476920729380936,0.5340657663844013,-0.19836728465702436
1688152507660246,-0.6561379415579722,0.5951018539711868,-0.16784924086368846
1688152507676236,-0.6256198977645226,0.5645838101777372,-0.22888532845047393
1688152507692226,-0.7476920729380936,0.5645838101777372,-0.19836728465702436
1688152507708216,-0.6256198977645226,0.5645838101777372,-0.22888532845047393
1688152507724207,-0.5645838101777372,0.5645838101777372,-0.22888532845047393
1688152507740197,-0.6561379415579722,0.5340657663844013,-0.2594033722438098
1688152507756187,-0.8087281605248791,0.5340657663844013,-0.22888532845047393
1688152507772177,-0.7782101167315432,0.5340657663844013,-0.16784924086368846
1688152507788168,-0.6256198977645226,0.5645838101777372,-0.22888532845047393
1688152507804158,-0.6256198977645226,0.5645838101777372,-0.22888532845047393
1688152507820148,-0.8697642481116645,0.5340657663844013,-0.22888532845047393
1688152507836138,-0.7476920729380936,0.5645838101777372,-0.19836728465702436
1688152507852129,-0.6256198977645226,0.5340657663844013,-0.16784924086368846
1688152507868119,-0.6256198977645226,0.5035477225909517,-0.22888532845047393
1688152507884109,-0.7476920729380936,0.5645838101777372,-0.19836728465702436
1688152507900099,-0.7782101167315432,0.5645838101777372,-0.19836728465702436
1688152507916090,-0.6866559853513081,0.5951018539711868,-0.19836728465702436
1688152507932080,-0.5951018539711868,0.5340657663844013,-0.19836728465702436
1688152507948059,-0.8087281605248791,0.5340657663844013,-0.19836728465702436
1688152507964049,-0.7782101167315432,0.5340657663844013,-0.19836728465702436
1688152507980039,-0.5951018539711868,0.5645838101777372,-0.2594033722438098
1688152507996029,-0.5951018539711868,0.5645838101777372,-0.19836728465702436
1688152508012020,-0.7476920729380936,0.5340657663844013,-0.19836728465702436
1688152508028010,-0.8087281605248791,0.5645838101777372,-0.19836728465702436
1688152508044000,-0.5951018539711868,0.5645838101777372,-0.16784924086368846
1688152508059991,-0.6561379415579722,0.5340657663844013,-0.22888532845047393
1688152508075981,-0.7782101167315432,0.5645838101777372,-0.2594033722438098
1688152508091971,-0.7782101167315432,0.5645838101777372,-0.22888532845047393
1688152508107961,-0.5951018539711868,0.5951018539711868,-0.2594033722438098
1688152508123952,-0.6561379415579722,0.5645838101777372,-0.22888532845047393
1688152508139942,-0.8087281605248791,0.5645838101777372,-0.16784924086368846
1688152508155932,-0.7782101167315432,0.5340657663844013,-0.19836728465702436
1688152508171922,-0.6561379415579722,0.5340657663844013,-0.19836728465702436
1688152508187913,-0.6256198977645226,0.5340657663844013,-0.22888532845047393
1688152508203903,-0.8392462043183286,0.5645838101777372,-0.2594033722438098
1688152508219893,-0.7782101167315432,0.5645838101777372,-0.19836728465702436
1688152508235883,-0.5951018539711868,0.5340657663844013,-0.16784924086368846
1688152508251874,-0.6561379415579722,0.5340657663844013,-0.106813153276903
1688152508267822,-0.7171740291447577,0.5035477225909517,-0.22888532845047393
1688152508283812,-0.7476920729380936,0.5035477225909517,-0.22888532845047393
1688152508299802,-0.6256198977645226,0.5951018539711868,-0.19836728465702436
1688152508315793,-0.6256198977645226,0.6866559853513081,-0.19836728465702436
1688152508331783,-0.8087281605248791,0.5645838101777372,-0.19836728465702436
1688152508347773,-0.8087281605248791,0.5035477225909517,-0.16784924086368846
1688152508363763,-0.6866559853513081,0.5951018539711868,-0.19836728465702436
1688152508379754,-0.6256198977645226,0.5951018539711868,-0.22888532845047393
1688152508395744,-0.8392462043183286,0.5035477225909517,-0.19836728465702436
1688152508411734,-0.7782101167315432,0.5951018539711868,-0.19836728465702436
1688152508427724,-0.6256198977645226,0.5645838101777372,-0.19836728465702436
1688152508443715,-0.6866559853513081,0.5951018539711868,-0.19836728465702436
1688152508459705,-0.8087281605248791,0.4730296787976158,-0.2594033722438098
1688152508475695,-0.7782101167315432,0.5035477225909517,-0.22888532845047393
1688152508491685,-0.7171740291447577,0.5645838101777372,-0.19836728465702436
1688152508507676,-0.5951018539711868,0.5645838101777372,-0.16784924086368846
1688152508523666,-0.7476920729380936,0.5645838101777372,-0.19836728465702436
1688152508539656,-0.7171740291447577,0.5951018539711868,-0.22888532845047393
1688152508555647,-0.5951018539711868,0.6256198977645226,-0.19836728465702436
1688152508571637,-0.5951018539711868,0.6256198977645226,-0.19836728465702436
1688152508587616,-0.8087281605248791,0.4730296787976158,-0.19836728465702436
1688152508603606,-0.8697642481116645,0.5951018539711868,-0.22888532845047393
1688152508619596,-0.6256198977645226,0.5951018539711868,-0.22888532845047393
1688152508635586,-0.5951018539711868,0.5951018539711868,-0.2899214160372594
1688152508651577,-0.8087281605248791,0.5645838101777372,-0.19836728465702436
1688152508667567,-0.7782101167315432,0.5645838101777372,-0.19836728465702436
1688152508683557,-0.6561379415579722,0.6256198977645226,-0.2594033722438098
1688152508699547,-0.5645838101777372,0.5645838101777372,-0.2899214160372594
1688152508715538,-0.7782101167315432,0.5340657663844013,-0.2899214160372594
1688152508731528,-0.8392462043183286,0.5645838101777372,-0.22888532845047393
1688152508747518,-0.6561379415579722,0.5951018539711868,-0.19836728465702436
1688152508763508,-0.5951018539711868,0.5035477225909517,-0.19836728465702436
1688152508779499,-0.8697642481116645,0.5035477225909517,-0.106813153276903
1688152508795489,-0.7476920729380936,0.5035477225909517,-0.19836728465702436
1688152508811479,-0.6866559853513081,0.5645838101777372,-0.22888532845047393
1688152508827469,-0.6866559853513081,0.6256198977645226,-0.16784924086368846
1688152508843460,-0.6561379415579722,0.5035477225909517,-0.19836728465702436
1688152508859450,-0.8697642481116645,0.6256198977645226,-0.19836728465702436
1688152508875440,-0.6561379415579722,0.4730296787976158,-0.22888532845047393
1688152508891430,-0.6256198977645226,0.5951018539711868,-0.16784924086368846
1688152508907409,-0.8087281605248791,0.5035477225909517,-0.19836728465702436
1688152508923400,-0.6866559853513081,0.4730296787976158,-0.19836728465702436
1688152508939390,-0.7171740291447577,0.6256198977645226,-0.16784924086368846
1688152508955380,-0.6256198977645226,0.44251163500416624,-0.19836728465702436
1688152508971370,-0.7171740291447577,0.5035477225909517,-0.19836728465702436
1688152508987361,-0.9002822919051141,0.5035477225909517,-0.19836728465702436
1688152509003351,-0.5340657663844013,0.5340657663844013,-0.16784924086368846
1688152509019341,-0.6561379415579722,0.6256198977645226,-0.19836728465702436
1688152509035331,-0.6866559853513081,0.5340657663844013,-0.19836728465702436
1688152509051322,-0.8087281605248791,0.5645838101777372,-0.22888532845047393
1688152509067312,-0.6866559853513081,0.5645838101777372,-0.19836728465702436
1688152509083302,-0.5645838101777372,0.5645838101777372,-0.19836728465702436
1688152509099292,-0.7782101167315432,0.5645838101777372,-0.2594033722438098
1688152509115283,-0.8087281605248791,0.5645838101777372,-0.22888532845047393
1688152509131273,-0.7171740291447577,0.5951018539711868,-0.19836728465702436
1688152509147263,-0.6256198977645226,0.6256198977645226,-0.16784924086368846
1688152509163253,-0.7782101167315432,0.5340657663844013,-0.19836728465702436
1688152509179244,-0.7782101167315432,0.5340657663844013,-0.22888532845047393
1688152509195234,-0.6561379415579722,0.5951018539711868,-0.22888532845047393
1688152509211224,-0.6866559853513081,0.5951018539711868,-0.22888532845047393
1688152509227203,-0.7476920729380936,0.5340657663844013,-0.22888532845047393
1688152509243193,-0.7171740291447577,0.5645838101777372,-0.19836728465702436
1688152509259183,-0.6561379415579722,0.6256198977645226,-0.19836728465702436
1688152509275172,-0.6866559853513081,0.6256198977645226,-0.19836728465702436
1688152509291162,-0.6866559853513081,0.5340657663844013,-0.22888532845047393
1688152509307152,-0.9002822919051141,0.5645838101777372,-0.16784924086368846
1688152509323142,-0.6561379415579722,0.5035477225909517,-0.16784924086368846
1688152509339131,-0.6561379415579722,0.5645838101777372,-0.1373311970702389
1688152509355121,-0.6561379415579722,0.5035477225909517,-0.1373311970702389
1688152509371111,-0.7476920729380936,0.5340657663844013,-0.22888532845047393
1688152509387101,-0.7171740291447577,0.5340657663844013,-0.22888532845047393
1688152509403091,-0.6561379415579722,0.5340657663844013,-0.22888532845047393
1688152509419080,-0.6866559853513081,0.5035477225909517,-0.19836728465702436
1688152509435070,-0.7782101167315432,0.5035477225909517,-0.22888532845047393
1688152509451060,-0.6561379415579722,0.5035477225909517,-0.22888532845047393
1688152509467050,-0.5951018539711868,0.5645838101777372,-0.19836728465702436
1688152509483039,-0.6561379415579722,0.5340657663844013,-0.22888532845047393
1688152509499029,-0.8697642481116645,0.5340657663844013,-0.2594033722438098
1688152509515019,-0.8087281605248791,0.6256198977645226,-0.22888532845047393
1688152509531009,-0.6256198977645226,0.5340657663844013,-0.19836728465702436
1688152509546966,-0.6256198977645226,0.5340657663844013,-0.19836728465702436
1688152509562956,-0.8087281605248791,0.5645838101777372,-0.22888532845047393
1688152509578946,-0.7171740291447577,0.5645838101777372,-0.19836728465702436
1688152509594936,-0.6866559853513081,0.5340657663844013,-0.19836728465702436
1688152509610925,-0.6561379415579722,0.4730296787976158,-0.19836728465702436
1688152509626915,-0.8087281605248791,0.5645838101777372,-0.19836728465702436
1688152509642905,-0.7476920729380936,0.5645838101777372,-0.19836728465702436
1688152509658895,-0.5951018539711868,0.5645838101777372,-0.22888532845047393
1688152509674884,-0.6256198977645226,0.5035477225909517,-0.22888532845047393
1688152509690874,-0.7476920729380936,0.4730296787976158,-0.2594033722438098
1688152509706864,-0.7476920729380936,0.5645838101777372,-0.22888532845047393
1688152509722854,-0.6866559853513081,0.5645838101777372,-0.2594033722438098
1688152509738844,-0.6866559853513081,0.5340657663844013,-0.22888532845047393
1688152509754833,-0.8087281605248791,0.5340657663844013,-0.22888532845047393
1688152509770823,-0.6866559853513081,0.5645838101777372,-0.22888532845047393
1688152509786813,-0.6256198977645226,0.6256198977645226,-0.19836728465702436
1688152509802803,-0.6866559853513081,0.5645838101777372,-0.22888532845047393
1688152509818792,-0.8697642481116645,0.5645838101777372,-0.22888532845047393
1688152509834782,-0.7476920729380936,0.5340657663844013,-0.2594033722438098
1688152509850772,-0.6256198977645226,0.5645838101777372,-0.19836728465702436
1688152509866760,-0.6866559853513081,0.5645838101777372,-0.19836728465702436
1688152509882750,-0.7782101167315432,0.44251163500416624,-0.22888532845047393
1688152509898739,-0.7171740291447577,0.5035477225909517,-0.2594033722438098
1688152509914729,-0.6561379415579722,0.5951018539711868,-0.16784924086368846
1688152509930719,-0.6561379415579722,0.5340657663844013,-0.19836728465702436
1688152509946709,-0.7476920729380936,0.5035477225909517,-0.19836728465702436
1688152509962699,-0.7782101167315432,0.5340657663844013,-0.19836728465702436
1688152509978688,-0.6561379415579722,0.5951018539711868,-0.16784924086368846
1688152509994678,-0.6866559853513081,0.5340657663844013,-0.16784924086368846
1688152510010668,-0.8087281605248791,0.4730296787976158,-0.19836728465702436
1688152510026658,-0.7782101167315432,0.5645838101777372,-0.22888532845047393
1688152510042647,-0.6256198977645226,0.5951018539711868,-0.2594033722438098
1688152510058637,-0.6256198977645226,0.5645838101777372,-0.22888532845047393
1688152510074627,-0.8392462043183286,0.5340657663844013,-0.19836728465702436
1688152510090617,-0.7782101167315432,0.5340657663844013,-0.19836728465702436
1688152510106607,-0.6561379415579722,0.5645838101777372,-0.19836728465702436
1688152510122596,-0.6256198977645226,0.5035477225909517,-0.22888532845047393
1688152510138586,-0.7476920729380936,0.5035477225909517,-0.16784924086368846
1688152510154576,-0.7171740291447577,0.5340657663844013,-0.19836728465702436
1688152510170566,-0.5951018539711868,0.5645838101777372,-0.22888532845047393
1688152510186554,-0.6561379415579722,0.5951018539711868,-0.2594033722438098
1688152510202543,-0.8087281605248791,0.5951018539711868,-0.22888532845047393
1688152510218533,-0.8697642481116645,0.5645838101777372,-0.22888532845047393
1688152510234523,-0.5951018539711868,0.5951018539711868,-0.19836728465702436
1688152510250513,-0.5951018539711868,0.5951018539711868,-0.2594033722438098
1688152510266502,-0.7171740291447577,0.5340657663844013,-0.22888532845047393
1688152510282492,-0.7782101167315432,0.5340657663844013,-0.22888532845047393
1688152510298482,-0.6866559853513081,0.5645838101777372,-0.2594033722438098
1688152510314472,-0.5951018539711868,0.5035477225909517,-0.19836728465702436
1688152510330462,-0.7782101167315432,0.5340657663844013,-0.2899214160372594
1688152510346451,-0.7782101167315432,0.5645838101777372,-0.19836728465702436
1688152510362441,-0.6866559853513081,0.5951018539711868,-0.16784924086368846
1688152510378431,-0.5645838101777372,0.5951018539711868,-0.22888532845047393
1688152510394421,-0.7171740291447577,0.5645838101777372,-0.22888532845047393
1688152510410411,-0.8392462043183286,0.5340657663844013,-0.22888532845047393
1688152510426400,-0.6866559853513081,0.5645838101777372,-0.19836728465702436
1688152510442390,-0.6561379415579722,0.5645838101777372,-0.16784924086368846
1688152510458380,-0.7476920729380936,0.5645838101777372,-0.19836728465702436
1688152510474370,-0.8392462043183286,0.5645838101777372,-0.16784924086368846
1688152510490359,-0.7171740291447577,0.5340657663844013,-0.22888532845047393
1688152510506347,-0.7171740291447577,0.5951018539711868,-0.22888532845047393
1688152510522337,-0.7782101167315432,0.5340657663844013,-0.19836728465702436
1688152510538327,-0.8392462043183286,0.5645838101777372,-0.2594033722438098
1688152510554317,-0.5951018539711868,0.5645838101777372,-0.22888532845047393
1688152510570306,-0.6561379415579722,0.6256198977645226,-0.22888532845047393
1688152510586296,-0.7476920729380936,0.5340657663844013,-0.22888532845047393
1688152510602286,-0.8087281605248791,0.5340657663844013,-0.2594033722438098
1688152510618276,-0.7171740291447577,0.5951018539711868,-0.16784924086368846
1688152510634266,-0.6256198977645226,0.5951018539711868,-0.19836728465702436
1688152510650255,-0.7171740291447577,0.5340657663844013,-0.19836728465702436
1688152510666245,-0.8392462043183286,0.5340657663844013,-0.16784924086368846
1688152510682235,-0.6866559853513081,0.5951018539711868,-0.16784924086368846
1688152510698225,-0.6561379415579722,0.5951018539711868,-0.16784924086368846
1688152510714214,-0.7171740291447577,0.5035477225909517,-0.1373311970702389
1688152510730204,-0.8392462043183286,0.44251163500416624,-0.16784924086368846
1688152510746194,-0.6866559853513081,0.4730296787976158,-0.19836728465702436
1688152510762184,-0.6561379415579722,0.4730296787976158,-0.16784924086368846
1688152510778174,-0.8087281605248791,0.5035477225909517,-0.19836728465702436
1688152510794163,-0.7782101167315432,0.5340657663844013,-0.2594033722438098
1688152510810153,-0.7171740291447577,0.5645838101777372,-0.2594033722438098
1688152510826110,-0.5645838101777372,0.5035477225909517,-0.22888532845047393
1688152510842100,-0.6866559853513081,0.5035477225909517,-0.19836728465702436
1688152510858090,-0.7171740291447577,0.5340657663844013,-0.22888532845047393
1688152510874080,-0.6561379415579722,0.5951018539711868,-0.19836728465702436
1688152510890070,-0.5951018539711868,0.6256198977645226,-0.16784924086368846
1688152510906059,-0.7171740291447577,0.5340657663844013,-0.16784924086368846
1688152510922049,-0.7782101167315432,0.4730296787976158,-0.19836728465702436
1688152510938039,-0.7171740291447577,0.5645838101777372,-0.19836728465702436
1688152510954029,-0.5951018539711868,0.5340657663844013,-0.19836728465702436
1688152510970018,-0.6866559853513081,0.5340657663844013,-0.19836728465702436
1688152510986008,-0.8087281605248791,0.5340657663844013,-0.19836728465702436
1688152511001998,-0.6256198977645226,0.5645838101777372,-0.19836728465702436
1688152511017988,-0.6561379415579722,0.6561379415579722,-0.19836728465702436
1688152511033978,-0.7171740291447577,0.5951018539711868,-0.22888532845047393
1688152511049967,-0.7782101167315432,0.5340657663844013,-0.2594033722438098
1688152511065957,-0.6866559853513081,0.6256198977645226,-0.2594033722438098
1688152511081947,-0.5645838101777372,0.5645838101777372,-0.16784924086368846
1688152511097937,-0.7476920729380936,0.5035477225909517,-0.22888532845047393
1688152511113927,-0.8392462043183286,0.5645838101777372,-0.2594033722438098
1688152511129916,-0.7171740291447577,0.5951018539711868,-0.22888532845047393
1688152511145904,-0.6256198977645226,0.6256198977645226,-0.22888532845047393
1688152511161894,-0.6866559853513081,0.5645838101777372,-0.16784924086368846
1688152511177884,-0.7476920729380936,0.5035477225909517,-0.22888532845047393
1688152511193874,-0.6866559853513081,0.5340657663844013,-0.19836728465702436
1688152511209863,-0.5645838101777372,0.6256198977645226,-0.22888532845047393
1688152511225853,-0.6561379415579722,0.6256198977645226,-0.22888532845047393
1688152511241843,-0.7782101167315432,0.5035477225909517,-0.22888532845047393
1688152511257833,-0.7476920729380936,0.5951018539711868,-0.22888532845047393
1688152511273822,-0.6561379415579722,0.6256198977645226,-0.16784924086368846
1688152511289812,-0.7171740291447577,0.5645838101777372,-0.16784924086368846
1688152511305802,-0.8392462043183286,0.5035477225909517,-0.19836728465702436
1688152511321792,-0.6561379415579722,0.5645838101777372,-0.16784924086368846
1688152511337782,-0.5340657663844013,0.5340657663844013,-0.1373311970702389
1688152511353771,-0.6561379415579722,0.5035477225909517,-0.16784924086368846
1688152511369761,-0.7782101167315432,0.5340657663844013,-0.22888532845047393
1688152511385751,-0.6866559853513081,0.5340657663844013,-0.19836728465702436
1688152511401741,-0.5340657663844013,0.5035477225909517,-0.22888532845047393
1688152511417730,-0.6561379415579722,0.5340657663844013,-0.2594033722438098
1688152511433720,-0.7171740291447577,0.5340657663844013,-0.16784924086368846
1688152511449710,-0.6866559853513081,0.5340657663844013,-0.19836728465702436
1688152511465698,-0.6866559853513081,0.5645838101777372,-0.19836728465702436
1688152511481688,-0.5035477225909517,0.5340657663844013,-0.19836728465702436
1688152511497677,-0.9918364232852355,0.5340657663844013,-0.2899214160372594
1688152511513667,-0.4730296787976158,0.4730296787976158,-0.19836728465702436
1688152511529657,-0.8087281605248791,0.5951018539711868,-0.2594033722438098
1688152511545647,-0.5340657663844013,0.41199359121083035,-0.22888532845047393
1688152511561637,-0.93080033569845,0.5035477225909517,-0.22888532845047393
1688152511577626,-0.5951018539711868,0.5340657663844013,-0.16784924086368846
1688152511593616,-0.6866559853513081,0.6256198977645226,-0.19836728465702436
1688152511609606,-0.6256198977645226,0.5035477225909517,-0.106813153276903
1688152511625596,-0.8392462043183286,0.5645838101777372,-0.16784924086368846
1688152511641585,-0.6866559853513081,0.5645838101777372,-0.16784924086368846
1688152511657575,-0.6561379415579722,0.5645838101777372,-0.19836728465702436
1688152511673565,-0.6561379415579722,0.5951018539711868,-0.2594033722438098
1688152511689555,-0.8087281605248791,0.5645838101777372,-0.22888532845047393
1688152511705545,-0.6866559853513081,0.5645838101777372,-0.19836728465702436
1688152511721534,-0.6561379415579722,0.5951018539711868,-0.19836728465702436
1688152511737524,-0.5645838101777372,0.5340657663844013,-0.16784924086368846
1688152511753514,-0.8392462043183286,0.5035477225909517,-0.16784924086368846
1688152511769504,-0.6866559853513081,0.5035477225909517,-0.16784924086368846
1688152511785492,-0.6561379415579722,0.5951018539711868,-0.1373311970702389
1688152511801481,-0.6561379415579722,0.5035477225909517,-0.22888532845047393
1688152511817471,-0.8697642481116645,0.5340657663844013,-0.2594033722438098
1688152511833461,-0.7782101167315432,0.5951018539711868,-0.16784924086368846
1688152511849451,-0.6256198977645226,0.5951018539711868,-0.1373311970702389
1688152511865440,-0.6561379415579722,0.5951018539711868,-0.19836728465702436
1688152511881430,-0.7171740291447577,0.5340657663844013,-0.22888532845047393
1688152511897420,-0.7171740291447577,0.5951018539711868,-0.19836728465702436
1688152511913410,-0.6561379415579722,0.6561379415579722,-0.16784924086368846
1688152511929400,-0.5951018539711868,0.6256198977645226,-0.16784924086368846
1688152511945389,-0.7476920729380936,0.5645838101777372,-0.22888532845047393
1688152511961379,-0.7476920729380936,0.5340657663844013,-0.19836728465702436
1688152511977369,-0.5951018539711868,0.5951018539711868,-0.1373311970702389
1688152511993359,-0.5951018539711868,0.5340657663844013,-0.16784924086368846
1688152512009348,-0.8087281605248791,0.5340657663844013,-0.19836728465702436
1688152512025338,-0.7782101167315432,0.5340657663844013,-0.22888532845047393
1688152512041328,-0.6256198977645226,0.5645838101777372,-0.22888532845047393
1688152512057318,-0.6561379415579722,0.5645838101777372,-0.22888532845047393
1688152512073308,-0.8392462043183286,0.5340657663844013,-0.22888532845047393
1688152512089297,-0.8087281605248791,0.5035477225909517,-0.2594033722438098
1688152512105255,-0.5951018539711868,0.5951018539711868,-0.19836728465702436
1688152512121244,-0.6256198977645226,0.5951018539711868,-0.19836728465702436
1688152512137233,-0.7171740291447577,0.5340657663844013,-0.22888532845047393
1688152512153223,-0.7782101167315432,0.5340657663844013,-0.19836728465702436
1688152512169212,-0.5951018539711868,0.5951018539711868,-0.22888532845047393
1688152512185201,-0.6256198977645226,0.5645838101777372,-0.19836728465702436
1688152512201191,-0.8392462043183286,0.5340657663844013,-0.22888532845047393
1688152512217180,-0.8087281605248791,0.5645838101777372,-0.22888532845047393
1688152512233169,-0.6866559853513081,0.5645838101777372,-0.22888532845047393
1688152512249158,-0.5951018539711868,0.5645838101777372,-0.16784924086368846
1688152512265148,-0.7171740291447577,0.5340657663844013,-0.19836728465702436
1688152512281137,-0.7476920729380936,0.5645838101777372,-0.22888532845047393
1688152512297126,-0.6561379415579722,0.5951018539711868,-0.2594033722438098
1688152512313116,-0.5951018539711868,0.5951018539711868,-0.22888532845047393
1688152512329105,-0.6561379415579722,0.5340657663844013,-0.2594033722438098
1688152512345094,-0.8087281605248791,0.5645838101777372,-0.2594033722438098
1688152512361084,-0.6866559853513081,0.6256198977645226,-0.19836728465702436
1688152512377073,-0.5035477225909517,0.5645838101777372,-0.16784924086368846
1688152512393062,-0.7782101167315432,0.5645838101777372,-0.19836728465702436
1688152512409052,-0.8697642481116645,0.5645838101777372,-0.2594033722438098
1688152512425048,-0.6866559853513081,0.5951018539711868,-0.19836728465702436
1688152512441038,-0.5951018539711868,0.5951018539711868,-0.19836728465702436
1688152512457027,-0.6561379415579722,0.5035477225909517,-0.19836728465702436
1688152512473016,-0.8392462043183286,0.5645838101777372,-0.1373311970702389
1688152512489006,-0.6866559853513081,0.5645838101777372,-0.19836728465702436
1688152512504995,-0.6256198977645226,0.6256198977645226,-0.19836728465702436
1688152512520984,-0.7171740291447577,0.5340657663844013,-0.16784924086368846
1688152512536974,-0.8392462043183286,0.5340657663844013,-0.22888532845047393
1688152512552963,-0.6256198977645226,0.5951018539711868,-0.22888532845047393
1688152512568952,-0.6256198977645226,0.5951018539711868,-0.22888532845047393
1688152512584941,-0.6866559853513081,0.5340657663844013,-0.22888532845047393
1688152512600931,-0.93080033569845,0.5645838101777372,-0.22888532845047393
1688152512616920,-0.6866559853513081,0.5645838101777372,-0.2594033722438098
1688152512632909,-0.5645838101777372,0.6256198977645226,-0.22888532845047393
1688152512648899,-0.7476920729380936,0.5951018539711868,-0.2594033722438098
1688152512664888,-0.7476920729380936,0.5340657663844013,-0.22888532845047393
1688152512680877,-0.6866559853513081,0.5645838101777372,-0.22888532845047393
1688152512696867,-0.5951018539711868,0.5340657663844013,-0.19836728465702436
1688152512712856,-0.7171740291447577,0.5645838101777372,-0.2594033722438098
1688152512728845,-0.8392462043183286,0.5645838101777372,-0.22888532845047393
1688152512744842,-0.7476920729380936,0.5645838101777372,-0.19836728465702436
1688152512760831,-0.5951018539711868,0.4730296787976158,-0.22888532845047393
1688152512776821,-0.7171740291447577,0.5035477225909517,-0.22888532845047393
1688152512792810,-0.8087281605248791,0.5035477225909517,-0.19836728465702436
1688152512808799,-0.7171740291447577,0.5645838101777372,-0.22888532845047393
1688152512824789,-0.5951018539711868,0.5645838101777372,-0.16784924086368846
1688152512840778,-0.6866559853513081,0.5340657663844013,-0.16784924086368846
1688152512856767,-0.8392462043183286,0.5035477225909517,-0.22888532845047393
1688152512872757,-0.6866559853513081,0.4730296787976158,-0.2594033722438098
1688152512888746,-0.6256198977645226,0.5340657663844013,-0.19836728465702436
1688152512904735,-0.7171740291447577,0.5340657663844013,-0.19836728465702436
1688152512920724,-0.7782101167315432,0.5340657663844013,-0.22888532845047393
1688152512936714,-0.7782101167315432,0.5645838101777372,-0.16784924086368846
1688152512952703,-0.7171740291447577,0.5645838101777372,-0.19836728465702436
1688152512968692,-0.7476920729380936,0.5645838101777372,-0.19836728465702436
1688152512984682,-0.8392462043183286,0.5340657663844013,-0.2594033722438098
1688152513000671,-0.6561379415579722,0.5645838101777372,-0.22888532845047393
1688152513016660,-0.6561379415579722,0.5645838101777372,-0.16784924086368846
1688152513032650,-0.7782101167315432,0.5645838101777372,-0.16784924086368846
1688152513048639,-0.8697642481116645,0.5340657663844013,-0.22888532845047393
1688152513064636,-0.7171740291447577,0.5951018539711868,-0.22888532845047393
1688152513080625,-0.5340657663844013,0.5645838101777372,-0.16784924086368846
1688152513096614,-0.6561379415579722,0.5951018539711868,-0.19836728465702436
1688152513112604,-0.8392462043183286,0.5340657663844013,-0.22888532845047393
1688152513128593,-0.6866559853513081,0.5645838101777372,-0.19836728465702436
1688152513144582,-0.6561379415579722,0.6256198977645226,-0.1373311970702389
1688152513160572,-0.6256198977645226,0.5035477225909517,-0.22888532845047393
1688152513176561,-0.8087281605248791,0.5951018539711868,-0.22888532845047393
1688152513192550,-0.6561379415579722,0.5645838101777372,-0.16784924086368846
1688152513208540,-0.5951018539711868,0.5951018539711868,-0.19836728465702436
1688152513224529,-0.7171740291447577,0.5951018539711868,-0.2899214160372594
1688152513240518,-0.8392462043183286,0.5645838101777372,-0.2594033722438098
1688152513256507,-0.7782101167315432,0.6256198977645226,-0.19836728465702436
1688152513272497,-0.5645838101777372,0.5645838101777372,-0.16784924086368846
1688152513288486,-0.6561379415579722,0.5645838101777372,-0.22888532845047393
1688152513304475,-0.7782101167315432,0.5340657663844013,-0.2594033722438098
1688152513320465,-0.6866559853513081,0.5645838101777372,-0.16784924086368846
1688152513336454,-0.6561379415579722,0.6256198977645226,-0.19836728465702436
1688152513352443,-0.6256198977645226,0.5340657663844013,-0.19836728465702436
1688152513368433,-0.8697642481116645,0.5645838101777372,-0.22888532845047393
1688152513384399,-0.6866559853513081,0.5645838101777372,-0.22888532845047393
1688152513400388,-0.5951018539711868,0.5951018539711868,-0.16784924086368846
1688152513416378,-0.5951018539711868,0.5340657663844013,-0.16784924086368846
1688152513432367,-0.7782101167315432,0.5340657663844013,-0.22888532845047393
1688152513448356,-0.8087281605248791,0.5340657663844013,-0.19836728465702436
1688152513464346,-0.6256198977645226,0.5951018539711868,-0.19836728465702436
1688152513480335,-0.6866559853513081,0.5645838101777372,-0.19836728465702436
1688152513496324,-0.7476920729380936,0.5340657663844013,-0.22888532845047393
1688152513512313,-0.7782101167315432,0.5645838101777372,-0.19836728465702436
1688152513528303,-0.6561379415579722,0.5340657663844013,-0.22888532845047393
1688152513544292,-0.6866559853513081,0.6256198977645226,-0.16784924086368846
1688152513560281,-0.7782101167315432,0.4730296787976158,-0.19836728465702436
1688152513576271,-0.7476920729380936,0.4730296787976158,-0.19836728465702436
1688152513592260,-0.6561379415579722,0.5951018539711868,-0.19836728465702436
1688152513608249,-0.6561379415579722,0.5645838101777372,-0.22888532845047393
1688152513624239,-0.8392462043183286,0.5340657663844013,-0.22888532845047393
1688152513640228,-0.8392462043183286,0.5645838101777372,-0.19836728465702436
1688152513656217,-0.5645838101777372,0.5645838101777372,-0.16784924086368846
1688152513672207,-0.6561379415579722,0.6256198977645226,-0.19836728465702436
1688152513688196,-0.7782101167315432,0.4730296787976158,-0.16784924086368846
1688152513704193,-0.8087281605248791,0.5035477225909517,-0.19836728465702436
1688152513720182,-0.6256198977645226,0.5340657663844013,-0.19836728465702436
1688152513736171,-0.5645838101777372,0.5035477225909517,-0.16784924086368846
1688152513752161,-0.7782101167315432,0.5340657663844013,-0.19836728465702436
1688152513768150,-0.7171740291447577,0.5340657663844013,-0.1373311970702389
1688152513784139,-0.5951018539711868,0.6561379415579722,-0.16784924086368846
1688152513800129,-0.6256198977645226,0.5645838101777372,-0.22888532845047393
1688152513816118,-0.7171740291447577,0.5340657663844013,-0.16784924086368846
1688152513832107,-0.7476920729380936,0.5340657663844013,-0.19836728465702436
1688152513848096,-0.5951018539711868,0.5951018539711868,-0.19836728465702436
1688152513864086,-0.6256198977645226,0.6256198977645226,-0.22888532845047393
1688152513880075,-0.7476920729380936,0.5340657663844013,-0.22888532845047393
1688152513896064,-0.8697642481116645,0.6256198977645226,-0.19836728465702436
1688152513912054,-0.6256198977645226,0.5645838101777372,-0.19836728465702436
1688152513928043,-0.6256198977645226,0.5951018539711868,-0.22888532845047393
1688152513944032,-0.7476920729380936,0.5035477225909517,-0.2594033722438098
1688152513960022,-0.8392462043183286,0.5340657663844013,-0.22888532845047393
1688152513976011,-0.5951018539711868,0.5340657663844013,-0.16784924086368846
1688152513992000,-0.6256198977645226,0.5645838101777372,-0.2594033722438098
1688152514007990,-0.7782101167315432,0.5645838101777372,-0.22888532845047393
1688152514023986,-0.8087281605248791,0.5340657663844013,-0.22888532845047393
1688152514039976,-0.6561379415579722,0.5645838101777372,-0.2594033722438098
1688152514055965,-0.6256198977645226,0.5645838101777372,-0.22888532845047393
1688152514071954,-0.7171740291447577,0.5951018539711868,-0.19836728465702436
1688152514087944,-0.7476920729380936,0.4730296787976158,-0.19836728465702436
1688152514103933,-0.7476920729380936,0.6256198977645226,-0.22888532845047393
1688152514119922,-0.6561379415579722,0.5340657663844013,-0.2594033722438098
1688152514135912,-0.6866559853513081,0.5951018539711868,-0.22888532845047393
1688152514151901,-0.8392462043183286,0.5035477225909517,-0.2899214160372594
1688152514167890,-0.6256198977645226,0.5340657663844013,-0.19836728465702436
1688152514183879,-0.6866559853513081,0.5951018539711868,-0.22888532845047393
1688152514199869,-0.6256198977645226,0.5645838101777372,-0.19836728465702436
1688152514215858,-0.93080033569845,0.6256198977645226,-0.2899214160372594
1688152514231847,-0.5951018539711868,0.5645838101777372,-0.22888532845047393
1688152514247837,-0.6866559853513081,0.5951018539711868,-0.16784924086368846
1688152514263826,-0.7782101167315432,0.5035477225909517,-0.2594033722438098
1688152514279815,-0.8087281605248791,0.5645838101777372,-0.19836728465702436
1688152514295805,-0.7782101167315432,0.5340657663844013,-0.16784924086368846
1688152514311794,-0.5035477225909517,0.5645838101777372,-0.19836728465702436
1688152514327783,-0.8087281605248791,0.5951018539711868,-0.16784924086368846
1688152514343780,-0.7782101167315432,0.4730296787976158,-0.19836728465702436
1688152514359769,-0.6866559853513081,0.5951018539711868,-0.1373311970702389
1688152514375759,-0.6561379415579722,0.6561379415579722,-0.19836728465702436
1688152514391748,-0.7171740291447577,0.5645838101777372,-0.2594033722438098
1688152514407737,-0.8087281605248791,0.5951018539711868,-0.22888532845047393
1688152514423727,-0.6256198977645226,0.6256198977645226,-0.19836728465702436
1688152514439716,-0.6256198977645226,0.6256198977645226,-0.19836728465702436
1688152514455705,-0.6561379415579722,0.5035477225909517,-0.19836728465702436
1688152514471695,-0.7782101167315432,0.4730296787976158,-0.22888532845047393
1688152514487684,-0.6256198977645226,0.5340657663844013,-0.22888532845047393
1688152514503673,-0.5951018539711868,0.5340657663844013,-0.19836728465702436
1688152514519662,-0.7171740291447577,0.5645838101777372,-0.19836728465702436
1688152514535652,-0.8087281605248791,0.5645838101777372,-0.22888532845047393
1688152514551641,-0.7171740291447577,0.6256198977645226,-0.16784924086368846
1688152514567630,-0.5951018539711868,0.5951018539711868,-0.19836728465702436
1688152514583620,-0.6866559853513081,0.5340657663844013,-0.22888532845047393
1688152514599609,-0.8392462043183286,0.4730296787976158,-0.2899214160372594
1688152514615598,-0.6256198977645226,0.5645838101777372,-0.22888532845047393
1688152514631588,-0.6256198977645226,0.6256198977645226,-0.19836728465702436
1688152514647577,-0.6561379415579722,0.4730296787976158,-0.19836728465702436
1688152514663543,-0.8697642481116645,0.5645838101777372,-0.22888532845047393
1688152514679533,-0.6561379415579722,0.5340657663844013,-0.22888532845047393
1688152514695522,-0.5951018539711868,0.5645838101777372,-0.2594033722438098
1688152514711511,-0.6561379415579722,0.5340657663844013,-0.2594033722438098
1688152514727501,-0.8087281605248791,0.5035477225909517,-0.22888532845047393
1688152514743490,-0.7171740291447577,0.5035477225909517,-0.19836728465702436
1688152514759479,-0.5035477225909517,0.5340657663844013,-0.22888532845047393
1688152514775468,-0.8087281605248791,0.5951018539711868,-0.19836728465702436
1688152514791458,-0.7782101167315432,0.5035477225909517,-0.22888532845047393
1688152514807447,-0.7171740291447577,0.5951018539711868,-0.19836728465702436
1688152514823436,-0.5951018539711868,0.5951018539711868,-0.16784924086368846
1688152514839426,-0.6256198977645226,0.5645838101777372,-0.16784924086368846
1688152514855415,-0.9002822919051141,0.5645838101777372,-0.2594033722438098
1688152514871404,-0.7476920729380936,0.5645838101777372,-0.22888532845047393
1688152514887394,-0.6866559853513081,0.6866559853513081,-0.16784924086368846
1688152514903383,-0.5951018539711868,0.5951018539711868,-0.16784924086368846
1688152514919372,-0.8392462043183286,0.5340657663844013,-0.22888532845047393
1688152514935361,-0.8087281605248791,0.5340657663844013,-0.19836728465702436
1688152514951351,-0.5951018539711868,0.5645838101777372,-0.19836728465702436
1688152514967340,-0.6866559853513081,0.5340657663844013,-0.22888532845047393
1688152514983337,-0.7476920729380936,0.5035477225909517,-0.2594033722438098
1688152514999326,-0.7476920729380936,0.5340657663844013,-0.19836728465702436
1688152515015316,-0.5951018539711868,0.5645838101777372,-0.2594033722438098
1688152515031305,-0.7782101167315432,0.5951018539711868,-0.2594033722438098
1688152515047294,-0.8392462043183286,0.5035477225909517,-0.2899214160372594
1688152515063284,-0.7171740291447577,0.5645838101777372,-0.19836728465702436
1688152515079273,-0.6866559853513081,0.5645838101777372,-0.19836728465702436
1688152515095262,-0.5951018539711868,0.5645838101777372,-0.19836728465702436
1688152515111251,-0.8087281605248791,0.5340657663844013,-0.2899214160372594
1688152515127241,-0.7782101167315432,0.4730296787976158,-0.2594033722438098
1688152515143230,-0.7171740291447577,0.5645838101777372,-0.22888532845047393
1688152515159219,-0.6256198977645226,0.4730296787976158,-0.22888532845047393
1688152515175209,-0.8392462043183286,0.5645838101777372,-0.2594033722438098
1688152515191198,-0.7171740291447577,0.5035477225909517,-0.2899214160372594
1688152515207187,-0.5340657663844013,0.5340657663844013,-0.16784924086368846
1688152515223177,-0.8392462043183286,0.5645838101777372,-0.22888532845047393
1688152515239166,-0.7171740291447577,0.5035477225909517,-0.2594033722438098
1688152515255155,-0.8697642481116645,0.6256198977645226,-0.2594033722438098
1688152515271144,-0.5340657663844013,0.4730296787976158,-0.22888532845047393
1688152515287134,-0.6561379415579722,0.6256198977645226,-0.19836728465702436
1688152515303131,-0.7476920729380936,0.5645838101777372,-0.22888532845047393
1688152515319120,-0.7782101167315432,0.5951018539711868,-0.19836728465702436
1688152515335109,-0.6561379415579722,0.6256198977645226,-0.16784924086368846
1688152515351099,-0.6561379415579722,0.5951018539711868,-0.19836728465702436
1688152515367088,-0.8392462043183286,0.5340657663844013,-0.22888532845047393
1688152515383077,-0.7476920729380936,0.5035477225909517,-0.22888532845047393
1688152515399067,-0.6866559853513081,0.5645838101777372,-0.22888532845047393
1688152515415056,-0.6561379415579722,0.5645838101777372,-0.19836728465702436
1688152515431045,-0.7782101167315432,0.5340657663844013,-0.2594033722438098
1688152515447034,-0.8087281605248791,0.5645838101777372,-0.22888532845047393
1688152515463024,-0.5645838101777372,0.5645838101777372,-0.22888532845047393
1688152515479013,-0.6866559853513081,0.6256198977645226,-0.2594033722438098
1688152515495002,-0.8087281605248791,0.5951018539711868,-0.2594033722438098
1688152515510992,-0.7782101167315432,0.5645838101777372,-0.19836728465702436
1688152515526981,-0.6561379415579722,0.5951018539711868,-0.1373311970702389
1688152515542970,-0.6256198977645226,0.5951018539711868,-0.16784924086368846
1688152515558960,-0.8087281605248791,0.5951018539711868,-0.2594033722438098
1688152515574949,-0.7782101167315432,0.5951018539711868,-0.19836728465702436
1688152515590938,-0.7171740291447577,0.6256198977645226,-0.22888532845047393
1688152515606927,-0.5951018539711868,0.5645838101777372,-0.1373311970702389
1688152515622924,-0.7171740291447577,0.5035477225909517,-0.16784924086368846
1688152515638914,-0.8087281605248791,0.5035477225909517,-0.19836728465702436
1688152515654903,-0.6866559853513081,0.5340657663844013,-0.22888532845047393
1688152515670892,-0.6256198977645226,0.5340657663844013,-0.19836728465702436
1688152515686882,-0.8392462043183286,0.5951018539711868,-0.2899214160372594
1688152515702871,-0.7782101167315432,0.5340657663844013,-0.2594033722438098
1688152515718860,-0.6256198977645226,0.5645838101777372,-0.22888532845047393
1688152515734850,-0.5951018539711868,0.5340657663844013,-0.19836728465702436
1688152515750839,-0.8087281605248791,0.5340657663844013,-0.2594033722438098
1688152515766828,-0.7476920729380936,0.5035477225909517,-0.22888532845047393
1688152515782817,-0.6256198977645226,0.5951018539711868,-0.22888532845047393
1688152515798807,-0.6256198977645226,0.5951018539711868,-0.19836728465702436
1688152515814796,-0.7476920729380936,0.5645838101777372,-0.22888532845047393
1688152515830785,-0.8697642481116645,0.5645838101777372,-0.22888532845047393
1688152515846775,-0.6866559853513081,0.5645838101777372,-0.19836728465702436
1688152515862764,-0.6256198977645226,0.5645838101777372,-0.22888532845047393
1688152515878753,-0.7171740291447577,0.5340657663844013,-0.22888532845047393
1688152515894743,-0.8087281605248791,0.5340657663844013,-0.22888532845047393
1688152515910732,-0.7171740291447577,0.5340657663844013,-0.16784924086368846
1688152515926721,-0.6866559853513081,0.5951018539711868,-0.16784924086368846
1688152515942688,-0.7476920729380936,0.5951018539711868,-0.22888532845047393
1688152515958677,-0.7476920729380936,0.5645838101777372,-0.19836728465702436
1688152515974666,-0.6866559853513081,0.5951018539711868,-0.16784924086368846
1688152515990656,-0.6866559853513081,0.5645838101777372,-0.16784924086368846
1688152516006645,-0.6866559853513081,0.5340657663844013,-0.16784924086368846
1688152516022634,-0.8392462043183286,0.5340657663844013,-0.2594033722438098
1688152516038623,-0.6256198977645226,0.5645838101777372,-0.22888532845047393
1688152516054613,-0.6256198977645226,0.5645838101777372,-0.2594033722438098
1688152516070602,-0.7476920729380936,0.5035477225909517,-0.22888532845047393
1688152516086591,-0.8697642481116645,0.5951018539711868,-0.19836728465702436
1688152516102581,-0.6256198977645226,0.5951018539711868,-0.1373311970702389
1688152516118570,-0.5951018539711868,0.5645838101777372,-0.19836728465702436
1688152516134559,-0.7782101167315432,0.5035477225909517,-0.19836728465702436
1688152516150549,-0.7476920729380936,0.5035477225909517,-0.22888532845047393
1688152516166538,-0.6561379415579722,0.6256198977645226,-0.22888532845047393
1688152516182527,-0.5340657663844013,0.5951018539711868,-0.19836728465702436
1688152516198516,-0.7476920729380936,0.5340657663844013,-0.22888532845047393
1688152516214506,-0.7171740291447577,0.5035477225909517,-0.19836728465702436
1688152516230495,-0.7476920729380936,0.5951018539711868,-0.22888532845047393
1688152516246484,-0.5340657663844013,0.5645838101777372,-0.19836728465702436
1688152516262481,-0.8087281605248791,0.5035477225909517,-0.16784924086368846
1688152516278471,-0.8697642481116645,0.5340657663844013,-0.2594033722438098
1688152516294460,-0.7476920729380936,0.5951018539711868,-0.22888532845047393
1688152516310449,-0.5340657663844013,0.5951018539711868,-0.22888532845047393
1688152516326439,-0.6866559853513081,0.5035477225909517,-0.2594033722438098
1688152516342428,-0.7782101167315432,0.5340657663844013,-0.2594033722438098
1688152516358417,-0.7171740291447577,0.5645838101777372,-0.1373311970702389
1688152516374406,-0.5951018539711868,0.5645838101777372,-0.19836728465702436
1688152516390396,-0.7171740291447577,0.5340657663844013,-0.19836728465702436
1688152516406385,-0.9002822919051141,0.5340657663844013,-0.1373311970702389
1688152516422374,-0.7171740291447577,0.5645838101777372,-0.16784924086368846
1688152516438364,-0.6256198977645226,0.6561379415579722,-0.19836728465702436
1688152516454353,-0.6866559853513081,0.5645838101777372,-0.16784924086368846
1688152516470342,-0.8697642481116645,0.4730296787976158,-0.19836728465702436
1688152516486332,-0.7171740291447577,0.5035477225909517,-0.16784924086368846
1688152516502321,-0.6561379415579722,0.6256198977645226,-0.16784924086368846
1688152516518310,-0.6866559853513081,0.5645838101777372,-0.19836728465702436
1688152516534299,-0.93080033569845,0.5645838101777372,-0.2594033722438098
1688152516550289,-0.6866559853513081,0.5340657663844013,-0.19836728465702436
1688152516566278,-0.5645838101777372,0.5645838101777372,-0.22888532845047393
1688152516582275,-0.6561379415579722,0.5035477225909517,-0.22888532845047393
1688152516598264,-0.8697642481116645,0.5645838101777372,-0.22888532845047393
1688152516614254,-0.7476920729380936,0.5951018539711868,-0.19836728465702436
1688152516630243,-0.6256198977645226,0.6256198977645226,-0.19836728465702436
1688152516646232,-0.6866559853513081,0.5035477225909517,-0.22888532845047393
1688152516662222,-0.9002822919051141,0.5035477225909517,-0.22888532845047393
1688152516678211,-0.7476920729380936,0.5035477225909517,-0.2594033722438098
1688152516694200,-0.6256198977645226,0.6256198977645226,-0.19836728465702436
1688152516710189,-0.6866559853513081,0.5035477225909517,-0.2594033722438098
1688152516726179,-0.8087281605248791,0.5645838101777372,-0.19836728465702436
1688152516742168,-0.8392462043183286,0.5951018539711868,-0.22888532845047393
1688152516758157,-0.6256198977645226,0.5340657663844013,-0.19836728465702436
1688152516774147,-0.7782101167315432,0.5340657663844013,-0.19836728465702436
1688152516790136,-0.8087281605248791,0.41199359121083035,-0.22888532845047393
1688152516806125,-0.7476920729380936,0.5951018539711868,-0.19836728465702436
1688152516822115,-0.5951018539711868,0.5951018539711868,-0.2594033722438098
1688152516838104,-0.6561379415579722,0.5645838101777372,-0.2594033722438098
1688152516854093,-0.9002822919051141,0.5035477225909517,-0.2594033722438098
1688152516870082,-0.7782101167315432,0.5340657663844013,-0.2594033722438098
1688152516886072,-0.6866559853513081,0.5951018539711868,-0.22888532845047393
1688152516902069,-0.5645838101777372,0.5340657663844013,-0.22888532845047393
1688152516918058,-0.9002822919051141,0.5951018539711868,-0.22888532845047393
1688152516934047,-0.8087281605248791,0.5951018539711868,-0.2594033722438098
1688152516950037,-0.5951018539711868,0.6256198977645226,-0.19836728465702436
1688152516966026,-0.5951018539711868,0.5951018539711868,-0.16784924086368846
1688152516982015,-0.7782101167315432,0.5340657663844013,-0.19836728465702436
1688152516998005,-0.8087281605248791,0.5340657663844013,-0.19836728465702436
1688152517013994,-0.5340657663844013,0.5340657663844013,-0.22888532845047393
1688152517029983,-0.6256198977645226,0.5645838101777372,-0.19836728465702436
1688152517045972,-0.8697642481116645,0.5951018539711868,-0.19836728465702436
1688152517061962,-0.8392462043183286,0.5645838101777372,-0.16784924086368846
1688152517077951,-0.5645838101777372,0.5951018539711868,-0.19836728465702436
1688152517093940,-0.5951018539711868,0.5645838101777372,-0.22888532845047393
1688152517109930,-0.7171740291447577,0.5645838101777372,-0.19836728465702436
1688152517125919,-0.7476920729380936,0.5340657663844013,-0.19836728465702436
1688152517141908,-0.5645838101777372,0.5645838101777372,-0.19836728465702436
1688152517157898,-0.6256198977645226,0.5645838101777372,-0.22888532845047393
1688152517173887,-0.8087281605248791,0.5645838101777372,-0.2594033722438098
1688152517189876,-0.8087281605248791,0.5951018539711868,-0.19836728465702436
1688152517205865,-0.5340657663844013,0.5340657663844013,-0.1373311970702389
1688152517221832,-0.6256198977645226,0.6256198977645226,-0.16784924086368846
1688152517237821,-0.7171740291447577,0.4730296787976158,-0.19836728465702436
1688152517253811,-0.8697642481116645,0.5340657663844013,-0.1373311970702389
1688152517269800,-0.5951018539711868,0.5340657663844013,-0.16784924086368846
1688152517285789,-0.5951018539711868,0.5951018539711868,-0.22888532845047393
1688152517301778,-0.8392462043183286,0.5035477225909517,-0.2594033722438098
1688152517317768,-0.8392462043183286,0.41199359121083035,-0.19836728465702436
1688152517333757,-0.6561379415579722,0.5645838101777372,-0.2594033722438098
1688152517349746,-0.5340657663844013,0.5645838101777372,-0.2594033722438098
1688152517365736,-0.7782101167315432,0.5645838101777372,-0.22888532845047393
1688152517381725,-0.8087281605248791,0.5035477225909517,-0.19836728465702436
1688152517397714,-0.6256198977645226,0.5645838101777372,-0.19836728465702436
1688152517413704,-0.5951018539711868,0.5645838101777372,-0.19836728465702436
1688152517429693,-0.6866559853513081,0.5035477225909517,-0.22888532845047393
1688152517445682,-0.8697642481116645,0.5645838101777372,-0.22888532845047393
1688152517461671,-0.6256198977645226,0.5645838101777372,-0.19836728465702436
1688152517477661,-0.5951018539711868,0.5340657663844013,-0.19836728465702436
1688152517493650,-0.6866559853513081,0.4730296787976158,-0.19836728465702436
1688152517509639,-0.8392462043183286,0.5340657663844013,-0.19836728465702436
1688152517525629,-0.6866559853513081,0.5340657663844013,-0.22888532845047393
1688152517541626,-0.5951018539711868,0.6256198977645226,-0.2594033722438098
1688152517557615,-0.7171740291447577,0.5340657663844013,-0.22888532845047393
1688152517573604,-0.7476920729380936,0.5340657663844013,-0.22888532845047393
1688152517589594,-0.6561379415579722,0.5951018539711868,-0.2594033722438098
1688152517605583,-0.6866559853513081,0.5645838101777372,-0.22888532845047393
1688152517621572,-0.6866559853513081,0.5340657663844013,-0.19836728465702436
1688152517637561,-0.7782101167315432,0.5340657663844013,-0.1373311970702389
1688152517653551,-0.5951018539711868,0.5340657663844013,-0.16784924086368846
1688152517669540,-0.5951018539711868,0.5645838101777372,-0.22888532845047393
1688152517685529,-0.6866559853513081,0.5035477225909517,-0.22888532845047393
1688152517701519,-0.9002822919051141,0.6256198977645226,-0.19836728465702436
1688152517717508,-0.6561379415579722,0.5035477225909517,-0.16784924086368846
1688152517733497,-0.6256198977645226,0.5645838101777372,-0.1373311970702389
1688152517749487,-0.8087281605248791,0.5645838101777372,-0.2594033722438098
1688152517765476,-0.7782101167315432,0.5645838101777372,-0.19836728465702436
1688152517781465,-0.7476920729380936,0.5645838101777372,-0.16784924086368846
1688152517797454,-0.5645838101777372,0.5340657663844013,-0.16784924086368846
1688152517813444,-0.8087281605248791,0.5340657663844013,-0.22888532845047393
1688152517829433,-0.7782101167315432,0.5035477225909517,-0.19836728465702436
1688152517845422,-0.6256198977645226,0.5645838101777372,-0.19836728465702436
1688152517861419,-0.6256198977645226,0.6256198977645226,-0.16784924086368846
1688152517877409,-0.6561379415579722,0.5951018539711868,-0.19836728465702436
1688152517893398,-0.8392462043183286,0.5645838101777372,-0.22888532845047393
1688152517909387,-0.6561379415579722,0.5645838101777372,-0.19836728465702436
1688152517925377,-0.6256198977645226,0.5951018539711868,-0.19836728465702436
1688152517941366,-0.6866559853513081,0.5035477225909517,-0.22888532845047393
1688152517957355,-0.8697642481116645,0.5951018539711868,-0.19836728465702436
1688152517973344,-0.6866559853513081,0.5645838101777372,-0.1373311970702389
1688152517989334,-0.6256198977645226,0.5951018539711868,-0.22888532845047393
1688152518005323,-0.7171740291447577,0.5340657663844013,-0.19836728465702436
1688152518021312,-0.8087281605248791,0.5340657663844013,-0.22888532845047393
1688152518037302,-0.7476920729380936,0.5951018539711868,-0.2594033722438098
1688152518053291,-0.5340657663844013,0.5340657663844013,-0.22888532845047393
1688152518069280,-0.7171740291447577,0.4730296787976158,-0.22888532845047393
1688152518085270,-0.7476920729380936,0.44251163500416624,-0.2594033722438098
1688152518101259,-0.7171740291447577,0.5951018539711868,-0.19836728465702436
1688152518117248,-0.5645838101777372,0.5951018539711868,-0.22888532845047393
1688152518133237,-0.7171740291447577,0.5340657663844013,-0.16784924086368846
1688152518149227,-0.8697642481116645,0.5340657663844013,-0.2594033722438098
1688152518165216,-0.7171740291447577,0.5340657663844013,-0.2594033722438098
1688152518181213,-0.6256198977645226,0.6561379415579722,-0.16784924086368846
1688152518197202,-0.7476920729380936,0.5645838101777372,-0.16784924086368846
1688152518213192,-0.9002822919051141,0.5951018539711868,-0.1373311970702389
1688152518229181,-0.7476920729380936,0.5645838101777372,-0.19836728465702436
1688152518245170,-0.5951018539711868,0.5645838101777372,-0.16784924086368846
1688152518261160,-0.6561379415579722,0.5340657663844013,-0.19836728465702436
1688152518277149,-0.8087281605248791,0.5340657663844013,-0.16784924086368846
1688152518293138,-0.7476920729380936,0.5645838101777372,-0.1373311970702389
1688152518309127,-0.6256198977645226,0.5951018539711868,-0.16784924086368846
1688152518325117,-0.6561379415579722,0.5340657663844013,-0.22888532845047393
1688152518341106,-0.7476920729380936,0.4730296787976158,-0.19836728465702436
1688152518357095,-0.7476920729380936,0.5340657663844013,-0.19836728465702436
1688152518373085,-0.5340657663844013,0.5340657663844013,-0.1373311970702389
1688152518389074,-0.6866559853513081,0.5645838101777372,-0.16784924086368846
1688152518405063,-0.7782101167315432,0.4730296787976158,-0.16784924086368846
1688152518421053,-0.7171740291447577,0.5340657663844013,-0.19836728465702436
1688152518437042,-0.5645838101777372,0.5340657663844013,-0.19836728465702436
1688152518453031,-0.6256198977645226,0.5340657663844013,-0.2594033722438098
1688152518469020,-0.8087281605248791,0.5645838101777372,-0.19836728465702436
1688152518485010,-0.6561379415579722,0.5645838101777372,-0.16784924086368846
1688152518500976,-0.5645838101777372,0.5645838101777372,-0.19836728465702436
1688152518516965,-0.7171740291447577,0.4730296787976158,-0.16784924086368846
1688152518532955,-0.8697642481116645,0.5340657663844013,-0.22888532845047393
1688152518548944,-0.6866559853513081,0.5340657663844013,-0.16784924086368846
1688152518564933,-0.5645838101777372,0.5951018539711868,-0.16784924086368846
1688152518580923,-0.6866559853513081,0.5340657663844013,-0.2594033722438098
1688152518596912,-0.8087281605248791,0.5340657663844013,-0.22888532845047393
1688152518612901,-0.7476920729380936,0.5645838101777372,-0.2594033722438098
1688152518628891,-0.5951018539711868,0.5035477225909517,-0.22888532845047393
1688152518644880,-0.7476920729380936,0.5340657663844013,-0.2594033722438098
1688152518660869,-0.7782101167315432,0.44251163500416624,-0.2899214160372594
1688152518676859,-0.7782101167315432,0.5340657663844013,-0.22888532845047393
1688152518692848,-0.5645838101777372,0.5951018539711868,-0.22888532845047393
1688152518708837,-0.6256198977645226,0.5951018539711868,-0.2594033722438098
1688152518724826,-0.7476920729380936,0.5340657663844013,-0.19836728465702436
1688152518740816,-0.7171740291447577,0.5645838101777372,-0.16784924086368846
1688152518756805,-0.5645838101777372,0.5645838101777372,-0.1373311970702389
1688152518772794,-0.6256198977645226,0.5951018539711868,-0.22888532845047393
1688152518788784,-0.7171740291447577,0.4730296787976158,-0.2899214160372594
1688152518804773,-0.7171740291447577,0.5340657663844013,-0.22888532845047393
1688152518820770,-0.5645838101777372,0.5645838101777372,-0.1373311970702389
1688152518836759,-0.5951018539711868,0.5340657663844013,-0.16784924086368846
1688152518852748,-0.8392462043183286,0.5340657663844013,-0.19836728465702436
1688152518868738,-0.7171740291447577,0.5340657663844013,-0.19836728465702436
1688152518884727,-0.6561379415579722,0.5340657663844013,-0.19836728465702436
1688152518900716,-0.6561379415579722,0.4730296787976158,-0.22888532845047393
1688152518916706,-0.7782101167315432,0.5035477225909517,-0.2899214160372594
1688152518932695,-0.8697642481116645,0.5951018539711868,-0.22888532845047393
1688152518948684,-0.6561379415579722,0.5645838101777372,-0.19836728465702436
1688152518964674,-0.6866559853513081,0.5951018539711868,-0.22888532845047393
1688152518980663,-0.7476920729380936,0.44251163500416624,-0.22888532845047393
1688152518996652,-0.7476920729380936,0.5035477225909517,-0.22888532845047393
1688152519012642,-0.6561379415579722,0.5645838101777372,-0.22888532845047393
1688152519028631,-0.6256198977645226,0.5951018539711868,-0.19836728465702436
1688152519044620,-0.7782101167315432,0.5645838101777372,-0.19836728465702436
1688152519060609,-0.7171740291447577,0.5340657663844013,-0.22888532845047393
1688152519076599,-0.6866559853513081,0.6256198977645226,-0.19836728465702436
1688152519092588,-0.6256198977645226,0.5645838101777372,-0.19836728465702436
1688152519108577,-0.8697642481116645,0.5951018539711868,-0.19836728465702436
1688152519124567,-0.7782101167315432,0.5035477225909517,-0.16784924086368846
1688152519140564,-0.6561379415579722,0.5340657663844013,-0.16784924086368846
1688152519156553,-0.5645838101777372,0.5340657663844013,-0.16784924086368846
1688152519172542,-0.6866559853513081,0.5340657663844013,-0.16784924086368846
1688152519188532,-0.8392462043183286,0.5951018539711868,-0.16784924086368846
1688152519204521,-0.6256198977645226,0.6256198977645226,-0.22888532845047393
1688152519220510,-0.6256198977645226,0.5645838101777372,-0.19836728465702436
1688152519236499,-0.7476920729380936,0.5035477225909517,-0.19836728465702436
1688152519252489,-0.8087281605248791,0.5035477225909517,-0.19836728465702436
1688152519268478,-0.6866559853513081,0.5645838101777372,-0.19836728465702436
1688152519284467,-0.6561379415579722,0.5645838101777372,-0.19836728465702436
1688152519300457,-0.6866559853513081,0.4730296787976158,-0.19836728465702436
1688152519316446,-0.8392462043183286,0.5340657663844013,-0.2594033722438098
1688152519332435,-0.5951018539711868,0.5340657663844013,-0.19836728465702436
1688152519348425,-0.6256198977645226,0.5340657663844013,-0.19836728465702436
1688152519364414,-0.8087281605248791,0.5340657663844013,-0.19836728465702436
1688152519380403,-0.9002822919051141,0.5645838101777372,-0.19836728465702436
1688152519396392,-0.6561379415579722,0.5340657663844013,-0.2594033722438098
1688152519412382,-0.5951018539711868,0.5340657663844013,-0.2899214160372594
1688152519428371,-0.7476920729380936,0.5340657663844013,-0.22888532845047393
1688152519444360,-0.8087281605248791,0.5951018539711868,-0.19836728465702436
1688152519460357,-0.6866559853513081,0.6256198977645226,-0.16784924086368846
1688152519476347,-0.5951018539711868,0.5951018539711868,-0.19836728465702436
1688152519492336,-0.7171740291447577,0.5035477225909517,-0.19836728465702436
1688152519508325,-0.8392462043183286,0.5340657663844013,-0.1373311970702389
1688152519524315,-0.5951018539711868,0.5340657663844013,-0.19836728465702436
1688152519540304,-0.6256198977645226,0.6256198977645226,-0.22888532845047393
1688152519556293,-0.7476920729380936,0.5645838101777372,-0.22888532845047393
1688152519572282,-0.7782101167315432,0.5035477225909517,-0.22888532845047393
1688152519588272,-0.6866559853513081,0.5951018539711868,-0.22888532845047393
1688152519604261,-0.5951018539711868,0.5340657663844013,-0.22888532845047393
1688152519620250,-0.7782101167315432,0.5340657663844013,-0.2594033722438098
1688152519636240,-0.8087281605248791,0.5645838101777372,-0.22888532845047393
1688152519652229,-0.7476920729380936,0.5951018539711868,-0.19836728465702436
1688152519668218,-0.5645838101777372,0.5340657663844013,-0.22888532845047393
1688152519684208,-0.7476920729380936,0.6256198977645226,-0.22888532845047393
1688152519700197,-0.7782101167315432,0.5645838101777372,-0.19836728465702436
1688152519716186,-0.6561379415579722,0.5645838101777372,-0.16784924086368846
1688152519732175,-0.5645838101777372,0.5645838101777372,-0.19836728465702436
1688152519748165,-0.6866559853513081,0.5645838101777372,-0.16784924086368846
1688152519764154,-0.9002822919051141,0.6256198977645226,-0.19836728465702436
1688152519780120,-0.6561379415579722,0.5645838101777372,-0.19836728465702436
1688152519796110,-0.6256198977645226,0.5951018539711868,-0.22888532845047393
1688152519812099,-0.6256198977645226,0.5340657663844013,-0.19836728465702436
1688152519828088,-0.8087281605248791,0.5340657663844013,-0.19836728465702436
1688152519844078,-0.6256198977645226,0.5951018539711868,-0.16784924086368846
1688152519860067,-0.5951018539711868,0.6561379415579722,-0.22888532845047393
1688152519876056,-0.7476920729380936,0.5340657663844013,-0.2594033722438098
1688152519892046,-0.7782101167315432,0.4730296787976158,-0.19836728465702436
1688152519908035,-0.7171740291447577,0.5035477225909517,-0.16784924086368846
1688152519924024,-0.6561379415579722,0.5645838101777372,-0.22888532845047393
1688152519940014,-0.7782101167315432,0.5951018539711868,-0.22888532845047393
1688152519956003,-0.93080033569845,0.5951018539711868,-0.19836728465702436
1688152519971992,-0.6866559853513081,0.5035477225909517,-0.2594033722438098
1688152519987981,-0.5645838101777372,0.5645838101777372,-0.19836728465702436
1688152520003971,-0.6561379415579722,0.5340657663844013,-0.16784924086368846
1688152520019960,-0.8392462043183286,0.5645838101777372,-0.19836728465702436
1688152520035949,-0.7171740291447577,0.5340657663844013,-0.19836728465702436
1688152520051939,-0.6866559853513081,0.5645838101777372,-0.22888532845047393
1688152520067928,-0.6866559853513081,0.5645838101777372,-0.22888532845047393
1688152520083917,-0.8087281605248791,0.5645838101777372,-0.19836728465702436
1688152520099914,-0.7476920729380936,0.5645838101777372,-0.2594033722438098
1688152520115903,-0.5951018539711868,0.5951018539711868,-0.19836728465702436
1688152520131893,-0.7171740291447577,0.5645838101777372,-0.19836728465702436
1688152520147882,-0.8087281605248791,0.5035477225909517,-0.19836728465702436
1688152520163871,-0.7171740291447577,0.5645838101777372,-0.19836728465702436
1688152520179861,-0.5645838101777372,0.6256198977645226,-0.16784924086368846
1688152520195850,-0.7171740291447577,0.5645838101777372,-0.16784924086368846
1688152520211839,-0.8697642481116645,0.5645838101777372,-0.22888532845047393
1688152520227829,-0.7476920729380936,0.5340657663844013,-0.19836728465702436
1688152520243818,-0.6256198977645226,0.5340657663844013,-0.19836728465702436
1688152520259807,-0.5951018539711868,0.5035477225909517,-0.16784924086368846
1688152520275797,-0.9002822919051141,0.5645838101777372,-0.22888532845047393
1688152520291786,-0.7476920729380936,0.5035477225909517,-0.22888532845047393
1688152520307775,-0.6561379415579722,0.5340657663844013,-0.19836728465702436
1688152520323764,-0.6561379415579722,0.5340657663844013,-0.16784924086368846
1688152520339754,-0.7782101167315432,0.5035477225909517,-0.22888532845047393
1688152520355743,-0.8087281605248791,0.5951018539711868,-0.2594033722438098
1688152520371732,-0.6256198977645226,0.5951018539711868,-0.16784924086368846
1688152520387722,-0.6866559853513081,0.5340657663844013,-0.19836728465702436
1688152520403711,-0.7171740291447577,0.5035477225909517,-0.16784924086368846
1688152520419708,-0.7476920729380936,0.5340657663844013,-0.19836728465702436
1688152520435697,-0.5340657663844013,0.5645838101777372,-0.22888532845047393
1688152520451686,-0.6866559853513081,0.5951018539711868,-0.1373311970702389
1688152520467676,-0.7171740291447577,0.4730296787976158,-0.19836728465702436
1688152520483665,-0.7476920729380936,0.5645838101777372,-0.22888532845047393
1688152520499654,-0.5340657663844013,0.5645838101777372,-0.16784924086368846
1688152520515644,-0.5340657663844013,0.5645838101777372,-0.16784924086368846
1688152520531633,-0.8392462043183286,0.5340657663844013,-0.2594033722438098
1688152520547622,-0.7171740291447577,0.5340657663844013,-0.19836728465702436
1688152520563612,-0.7171740291447577,0.6561379415579722,-0.16784924086368846
1688152520579601,-0.6256198977645226,0.5951018539711868,-0.19836728465702436
1688152520595590,-0.8392462043183286,0.5951018539711868,-0.19836728465702436
1688152520611580,-0.7476920729380936,0.5951018539711868,-0.19836728465702436
1688152520627569,-0.5951018539711868,0.5645838101777372,-0.1373311970702389
1688152520643558,-0.7171740291447577,0.6256198977645226,-0.22888532845047393
1688152520659547,-0.7782101167315432,0.5645838101777372,-0.22888532845047393
1688152520675537,-0.7782101167315432,0.5340657663844013,-0.22888532845047393
1688152520691526,-0.5951018539711868,0.5340657663844013,-0.19836728465702436
1688152520707515,-0.6561379415579722,0.5340657663844013,-0.22888532845047393
1688152520723505,-0.7171740291447577,0.5035477225909517,-0.19836728465702436
1688152520739502,-0.8697642481116645,0.6561379415579722,-0.22888532845047393
1688152520755491,-0.5951018539711868,0.6256198977645226,-0.22888532845047393
1688152520771480,-0.5340657663844013,0.6256198977645226,-0.19836728465702436
1688152520787469,-0.8392462043183286,0.5645838101777372,-0.16784924086368846
1688152520803459,-0.8087281605248791,0.5035477225909517,-0.19836728465702436
1688152520819448,-0.6866559853513081,0.5951018539711868,-0.16784924086368846
1688152520835437,-0.5035477225909517,0.5035477225909517,-0.16784924086368846
1688152520851427,-0.7476920729380936,0.5340657663844013,-0.16784924086368846
1688152520867416,-0.7476920729380936,0.4730296787976158,-0.16784924086368846
1688152520883405,-0.6256198977645226,0.5340657663844013,-0.1373311970702389
1688152520899395,-0.6866559853513081,0.5951018539711868,-0.16784924086368846
1688152520915384,-0.7171740291447577,0.5035477225909517,-0.22888532845047393
1688152520931373,-0.8087281605248791,0.5645838101777372,-0.16784924086368846
1688152520947363,-0.6256198977645226,0.5645838101777372,-0.22888532845047393
1688152520963352,-0.6256198977645226,0.5645838101777372,-0.16784924086368846
1688152520979341,-0.7782101167315432,0.5340657663844013,-0.1373311970702389
1688152520995330,-0.7782101167315432,0.5340657663844013,-0.16784924086368846
1688152521011320,-0.6256198977645226,0.5340657663844013,-0.16784924086368846
1688152521027309,-0.5951018539711868,0.5340657663844013,-0.22888532845047393
1688152521043298,-0.7782101167315432,0.5340657663844013,-0.22888532845047393
1688152521059265,-0.8392462043183286,0.6256198977645226,-0.22888532845047393
1688152521075254,-0.6256198977645226,0.6561379415579722,-0.2899214160372594
1688152521091243,-0.5340657663844013,0.6256198977645226,-0.22888532845047393
1688152521107233,-0.7476920729380936,0.5340657663844013,-0.22888532845047393
1688152521123222,-0.7782101167315432,0.4730296787976158,-0.22888532845047393
1688152521139211,-0.7171740291447577,0.5951018539711868,-0.22888532845047393
1688152521155201,-0.5951018539711868,0.5340657663844013,-0.2594033722438098
1688152521171190,-0.6866559853513081,0.4730296787976158,-0.22888532845047393
1688152521187179,-0.8087281605248791,0.5340657663844013,-0.19836728465702436
1688152521203168,-0.6561379415579722,0.5951018539711868,-0.1373311970702389
1688152521219158,-0.5645838101777372,0.5951018539711868,-0.19836728465702436
1688152521235147,-0.7476920729380936,0.5035477225909517,-0.2594033722438098
1688152521251136,-0.8087281605248791,0.5035477225909517,-0.2594033722438098
1688152521267126,-0.6866559853513081,0.6561379415579722,-0.2594033722438098
1688152521283115,-0.5340657663844013,0.5645838101777372,-0.22888532845047393
1688152521299104,-0.7171740291447577,0.5035477225909517,-0.19836728465702436
1688152521315094,-0.8087281605248791,0.5645838101777372,-0.2899214160372594
1688152521331083,-0.6256198977645226,0.5340657663844013,-0.19836728465702436
1688152521347072,-0.5645838101777372,0.5645838101777372,-0.22888532845047393
1688152521363062,-0.7476920729380936,0.5340657663844013,-0.22888532845047393
1688152521379058,-0.7476920729380936,0.5340657663844013,-0.19836728465702436
1688152521395048,-0.6561379415579722,0.5645838101777372,-0.22888532845047393
1688152521411037,-0.5951018539711868,0.5951018539711868,-0.19836728465702436
1688152521427026,-0.7476920729380936,0.6256198977645226,-0.19836728465702436
1688152521443016,-0.7171740291447577,0.5035477225909517,-0.16784924086368846
1688152521459005,-0.6256198977645226,0.5951018539711868,-0.16784924086368846
1688152521474994,-0.5951018539711868,0.5340657663844013,-0.1373311970702389
1688152521490984,-0.6561379415579722,0.5035477225909517,-0.22888532845047393
1688152521506973,-0.7782101167315432,0.5951018539711868,-0.19836728465702436
1688152521522962,-0.7476920729380936,0.5951018539711868,-0.22888532845047393
1688152521538951,-0.5340657663844013,0.5340657663844013,-0.19836728465702436
1688152521554941,-0.6256198977645226,0.5951018539711868,-0.22888532845047393
1688152521570930,-0.6866559853513081,0.4730296787976158,-0.22888532845047393
1688152521586919,-1.0833905546654705,0.6866559853513081,-0.2594033722438098
1688152521602909,-0.41199359121083035,0.5340657663844013,-0.106813153276903
1688152521618898,-0.6866559853513081,0.5340657663844013,-0.19836728465702436
1688152521634887,-0.9613183794918996,0.5645838101777372,-0.22888532845047393
1688152521650877,-0.44251163500416624,0.41199359121083035,-0.19836728465702436
1688152521666866,-0.93080033569845,0.6561379415579722,-0.22888532845047393
1688152521682855,-0.4730296787976158,0.5340657663844013,-0.19836728465702436
1688152521698852,-0.9002822919051141,0.5951018539711868,-0.22888532845047393
1688152521714841,-0.5951018539711868,0.5035477225909517,-0.19836728465702436
1688152521730831,-0.6256198977645226,0.5951018539711868,-0.19836728465702436
1688152521746820,-0.5340657663844013,0.5035477225909517,-0.2899214160372594
1688152521762809,-1.052872510872021,0.6866559853513081,-0.2899214160372594
1688152521778799,-0.5951018539711868,0.5645838101777372,-0.19836728465702436
1688152521794788,-0.5035477225909517,0.6256198977645226,-0.19836728465702436
1688152521810777,-0.6561379415579722,0.5035477225909517,-0.2594033722438098
1688152521826767,-0.7476920729380936,0.4730296787976158,-0.22888532845047393
1688152521842756,-0.6866559853513081,0.6256198977645226,-0.16784924086368846
1688152521858745,-0.5951018539711868,0.5645838101777372,-0.19836728465702436
1688152521874735,-0.7782101167315432,0.5340657663844013,-0.2594033722438098
1688152521890724,-0.7782101167315432,0.44251163500416624,-0.19836728465702436
1688152521906713,-0.6561379415579722,0.5951018539711868,-0.19836728465702436
1688152521922702,-4.898146028839506,-2.090485999847374,0.9002822919051141
1688152521938692,-44.2969405661097,-24.399176012817634,1.4496070801861833
1688152521954681,3.6163881895170107,-4.83710994125272,27.908751049057628
1688152521970670,20.950637064164084,18.844892042420042,51.46868085755705
1688152521986660,5.783169298847952,7.888914320591994,49.54604409857325
1688152522002649,3.4332799267566543,3.1891355764095124,37.766079194323765
1688152522018646,1.9989318684672526,3.6163881895170107,47.40978103303587
1688152522034635,-5.50850690470736,-0.6256198977645226,54.27634088654918
1688152522050624,-1.266498817425827,4.440375371938671,49.02723735408563
1688152522066614,-0.41199359121083035,5.355916685740453,67.2770275425346
1688152522082603,5.294880598153668,1.266498817425827,97.09315632867947
1688152522098592,5.294880598153668,5.142290379186647,104.90577553978801
1688152522114582,17.80727855344469,7.736324101625087,-198.0773632410162
1688152522130571,44.754711223010645,-16.89173723964302,-211.8410009918365
1688152522146560,20.798046845197177,-0.9613183794918996,-145.86099031052117
1688152522162550,-18.387121385519208,1.7242694743266611,-117.08247501335165
1688152522178539,10.299839780270077,8.285648889906156,-134.69138628213932
1688152522194528,2.7924010070954637,17.868314641031475,-180.2853437094683
1688152522210518,7.370107576104374,24.36865796902407,-213.24483100633256
1688152522226507,32.639047837033786,30.563820859082853,-216.8459601739529
1688152522242496,61.5091172655832,21.652552071412174,-206.16464484626545
1688152522258485,79.27061875333789,22.079804684519672,-197.61959258411537
1688152522274475,80.27771419851979,22.415503166246936,-186.17532616159303
1688152522290464,63.03501945525295,12.314030670633997,-179.797055008774
1688152522306453,76.0051880674448,-30.319676508735824,-177.81338216220342
1688152522322443,82.68863965819787,-55.954833295185836,-158.61753261615934
1688152522338409,71.0612649729153,-64.7135118638895,-124.80354009308007
1688152522354398,65.41542687113747,-71.8547341115434,-83.57366292820632
1688152522370388,57.572289616235594,-41.336690318150545,-53.147173266193704
1688152522386377,44.235904478523025,9.750514991989007,-35.8739604791333
1688152522402366,38.712138551919,47.01304646372182,-37.09468223086901
1688152522418356,39.44457160296042,19.211108567940755,-21.133745326924554
1688152522434345,28.763256275272624,-21.133745326924554,-37.52193484397651
1688152522450334,158.83115892271326,-100.2670328831922,-105.27199206530861
1688152522466323,423.97192339971,-166.39963378347443,-141.5274280918594
1688152522482313,-470.2067597467002,-139.48271915770192,-115.0377660791944
1688152522498302,-522.8503852903029,162.24917982757324,-99.07682917524983
1688152522514291,-266.13260090028234,-39.871824216067694,-40.20752269779507
1688152522530281,-21.98825055313955,38.10177767605114,-13.382162203402686
1688152522546270,5.600061036087595,15.609979400320412,-9.201190203707938
1688152522562259,9.628442816815436,-2.2735942626077303,-0.9002822919051141
1688152522578249,-21.31685358968491,3.891050583657602,-1.3275349050126124
1688152522594238,-2.7924010070954637,0.7171740291447577,-0.5035477225909517
1688152522610227,4.501411459525457,0.5951018539711868,0.1373311970702389
1688152522626217,-4.928664072632955,0.7782101167315432,-0.3509575036240449
1688152522642206,1.2359807736323773,0.16784924086368846,-0.2899214160372594
1688152522658203,-2.0294499122605885,0.41199359121083035,-0.16784924086368846
1688152522674192,-1.2054627298390415,0.3204394598305953,-0.16784924086368846
1688152522690181,-0.44251163500416624,0.41199359121083035,-0.19836728465702436
1688152522706171,-1.7242694743266611,0.5645838101777372,-0.22888532845047393
1688152522722160,-0.16784924086368846,0.2899214160372594,-0.16784924086368846
1688152522738149,-1.5106431677729688,0.41199359121083035,-0.22888532845047393
1688152522754139,-0.3509575036240449,0.41199359121083035,-0.19836728465702436
1688152522770128,-1.1139085984588064,0.5951018539711868,-0.2594033722438098
1688152522786117,-0.6561379415579722,0.4730296787976158,-0.19836728465702436
1688152522802106,-0.9613183794918996,0.44251163500416624,-0.22888532845047393
1688152522818096,-0.8087281605248791,0.5035477225909517,-0.19836728465702436
1688152522834085,0.106813153276903,-0.8392462043183286,-0.41199359121083035
1688152522850074,23.239490348668596,-18.90592813000694,5.0202182040130765
1688152522866064,50.1564049744411,-11.703669794766142,16.342412451361838
1688152522882053,21.59151598382539,-2.9449912260623705,13.748378728923399
1688152522898042,-0.8392462043183286,0.9918364232852355,-19.272144655527654
1688152522914032,-4.16571297779808,-0.3204394598305953,-37.460898756389724
1688152522930021,10.452429999236983,2.1515220874341594,-52.38422217135883
1688152522946010,-57.20607309071488,14.847028305485537,-56.41260395208667
1688152522962000,-21.957732509346215,11.551079575799122,-44.81574731059732
1688152522977996,-9.842069123369129,5.53902494850081,-17.1663996337835
1688152522993986,17.410543984130527,-11.612115663385907,0.7782101167315432
1688152523009975,3.006027313649156,-8.316166933699492,6.2714579995422355
1688152523025964,-19.21110856794087,0.3204394598305953,-7.522697795071281
1688152523041954,57.02296482795464,-12.039368276493406,31.66247043564522
1688152523057943,83.26848249027239,-10.360875867856862,55.832761120012265
1688152523073932,70.08468757152673,-41.489280537117565,68.61982146944388
1688152523089922,21.499961852445153,-108.53742275120158,54.06271457999537
1688152523105911,-28.793774319066188,-128.92347600518804,-12.222476539253762
1688152523121900,-70.1457236591134,-122.14847028305485,-84.55024032959489
1688152523137889,-72.58716716258482,-120.37842374303807,-112.9015030136569
1688152523153879,-60.34943160143439,-97.73403524834055,-96.66590371557186
1688152523169868,-54.459449149309535,-83.84832532234691,-76.15777828641183
1688152523185857,-72.86182955672541,-98.25284199282828,-62.821393148699144
1688152523201847,-79.33165484092478,-100.6942854962997,-64.89662012664985
1688152523217836,-87.2663462272069,-29.43465323872738,-116.99092088197153
1688152523233825,-85.3437094682231,-61.81429770351724,-132.49408712901504
1688152523249815,-61.78377965972379,-35.568780041199375,-114.73258564126047
1688152523265804,4.348821240558436,-28.427557793545475,-92.11871519035628
1688152523281793,37.7965972381171,-40.29907682917519,-71.24437323567554
1688152523297790,23.666742961776094,-41.73342488746471,-64.4998855573358
1688152523313779,-29.1599908445869,-42.64896620126649,-56.44312199588012
1688152523329769,-70.84763866636149,-70.90867475394828,-26.87113756008239
1688152523345758,-72.52613107499803,-82.07827878233013,-20.981155107957647
1688152523361747,-43.28984512092768,-80.61341268024728,-43.74761577782863
1688152523377737,10.940718699931267,-80.64393072404062,-54.12375066758227
1688152523393726,91.44731822690164,-98.80216678110935,-36.97261005569544
1688152523409715,192.2178988326848,-86.28976882581833,-12.497138933394353
1688152523425705,307.33196002136265,-20.279240100709558,-3.463797970550104
1688152523441694,308.18646524757764,-7.3090714885175885,21.377889677271583
1688152523457683,178.75944151979866,40.17700465400185,35.50774395361259
1688152523473672,10.971236743724717,-26.35233081559477,92.97322041657117
1688152523489662,-69.07759212634471,24.88746471351169,90.19607843137237
1688152523505651,-35.08049134050509,89.61623559929808,92.54596780346378
1688152523521640,-23.75829709315633,108.90363927672252,74.72343022812242
1688152523537630,-35.90447852292664,60.92927443350891,62.02792401007105
1688152523553619,-59.586480506599514,1.8158236057068962,56.07690547035941
1688152523569608,-115.86175326161595,-13.19905394064233,75.12016479743647
1688152523585598,-56.77882047760738,127.51964599069197,88.18188754100856
1688152523601587,34.22598611429021,67.76531624322888,46.46372167544064
1688152523617553,-49.454489967193126,-27.57305256733048,61.63118944075677
1688152523633543,15.854123750667554,-91.2031738765545,80.6439307240405
1688152523649532,-59.76958876935987,-207.141222247654,97.24574654764638
1688152523665521,157.48836499580398,171.03837644007035,59.83062485694677
1688152523681511,119.37132829785605,-84.55024032959489,85.22163729304953
