Timestamp (microseconds),Accel X (g),Accel Y (g),Accel Z (g)
1688152501640564,0.028259708552681673,0.007995727473868897,1.0307164110780498
1688152501656559,0.02923628595407024,0.006408789196612474,1.031204699778744
1688152501672554,0.029724574654764524,0.007019150072480329,1.0321812771801326
1688152501688549,0.02679484245059882,0.009094377050431035,1.0297398336766612
1688152501704544,0.028137636377508102,0.007629510948348184,1.0341344319829098
1688152501720539,0.02935835812924381,0.0061646448462653325,1.0345006485084305
1688152501736534,0.029724574654764524,0.005554283970397478,1.0348668650339512
1688152501752529,0.02679484245059882,0.010437170977340315,1.0330357824063476
1688152501768524,0.027161058976119534,0.010559243152513886,1.0316929884794384
1688152501784519,0.029968719005111666,0.007019150072480329,1.0332799267566948
1688152501800514,0.031189440756847375,0.005676356145571049,1.0340123598077362
1688152501816509,0.02789349202716096,0.007873655298695326,1.0321812771801326
1688152501832504,0.02667277027542525,0.00848401617456318,1.0308384832532234
1688152501848499,0.03045700770580595,0.005920500495918191,1.0330357824063476
1688152501864494,0.031189440756847375,0.007019150072480329,1.0331578545815212
1688152501880489,0.027649347676813818,0.009582665751125319,1.0315709163042648
1688152501896484,0.02789349202716096,0.009094377050431035,1.032669565880827
1688152501912479,0.02911421377889667,0.005920500495918191,1.036942092011902
1688152501928474,0.028137636377508102,0.006530861371786045,1.036331731136034
1688152501944469,0.02642862592507811,0.007751583123521755,1.0307164110780498
1688152501960449,0.026062409399557396,0.008972304875257464,1.0304722667277026
1688152501976444,0.028870069428549527,0.0060425726710917615,1.032913710231174
1688152501992439,0.028503852903028815,0.006530861371786045,1.0349889372091248
1688152502008434,0.025940337224383825,0.00982681010147246,1.0297398336766612
1688152502024429,0.027038986800945963,0.00836194399938961,1.0314488441290912
1688152502040424,0.029724574654764524,0.005920500495918191,1.0324254215304798
1688152502056419,0.030212863355458808,0.006408789196612474,1.0348668650339512
1688152502072414,0.02777141985198739,0.007995727473868897,1.032669565880827
1688152502088409,0.02655069810025168,0.009460593575951748,1.0336461432822155
1688152502104404,0.02923628595407024,0.005920500495918191,1.0345006485084305
1688152502120399,0.031067368581673804,0.0071412222476539,1.0355992980849926
1688152502136394,0.028503852903028815,0.007507438773174613,1.0327916380560005
1688152502152389,0.02801556420233453,0.009216449225604606,1.0332799267566948
1688152502168384,0.027649347676813818,0.007629510948348184,1.0348668650339512
1688152502184379,0.029846646829938095,0.005676356145571049,1.0353551537346455
1688152502200374,0.02789349202716096,0.008972304875257464,1.0334019989318683
1688152502216369,0.024963759822995257,0.010070954451819603,1.0319371328297855
1688152502232364,0.029480430304417382,0.0060425726710917615,1.0323033493553062
1688152502248359,0.03045700770580595,0.005188067444876765,1.0334019989318683
1688152502264354,0.027649347676813818,0.007629510948348184,1.0342565041580833
1688152502280365,0.028259708552681673,0.008239871824216038,1.0308384832532234
1688152502296360,0.02911421377889667,0.007019150072480329,1.0313267719539176
1688152502312355,0.02935835812924381,0.006775005722133187,1.0368200198367283
1688152502328350,0.027283131151293105,0.007629510948348184,1.0357213702601662
1688152502344345,0.025574120698863112,0.007873655298695326,1.0325474937056534
1688152502360340,0.029724574654764524,0.007629510948348184,1.0338902876325626
1688152502376335,0.031311512932020946,0.006408789196612474,1.0365758754863812
1688152502392330,0.02777141985198739,0.0071412222476539,1.034378576333257
1688152502408325,0.027527275501640247,0.010315098802166744,1.0342565041580833
1688152502424320,0.028747997253375956,0.006775005722133187,1.0327916380560005
1688152502440315,0.030823224231326662,0.005432211795223907,1.036087586785687
1688152502456310,0.028259708552681673,0.008117799649042468,1.033768215457389
1688152502472305,0.026306553749904538,0.00848401617456318,1.0296177615014876
1688152502488300,0.028747997253375956,0.007751583123521755,1.0304722667277026
1688152502504295,0.030212863355458808,0.005065995269703194,1.033768215457389
1688152502520290,0.028870069428549527,0.008850232700083893,1.0332799267566948
1688152502536285,0.027283131151293105,0.0109254596780346,1.0304722667277026
1688152502552280,0.029724574654764524,0.007995727473868897,1.030960555428397
1688152502568275,0.02935835812924381,0.00579842832074462,1.037186236362249
1688152502584270,0.02801556420233453,0.007873655298695326,1.0324254215304798
1688152502599914,0.027038986800945963,0.00970473792629889,1.0314488441290912
1688152502615908,0.028625925078202386,0.008117799649042468,1.031815060654612
1688152502631901,0.02935835812924381,0.006775005722133187,1.0336461432822155
1688152502647895,0.028259708552681673,0.008117799649042468,1.033524071107042
1688152502663889,0.02679484245059882,0.008728160524910322,1.033768215457389
1688152502679882,0.028625925078202386,0.007629510948348184,1.033524071107042
1688152502695876,0.03033493553063238,0.0061646448462653325,1.034378576333257
1688152502711869,0.027649347676813818,0.008117799649042468,1.032913710231174
1688152502727863,0.02667277027542525,0.008972304875257464,1.0296177615014876
1688152502743857,0.02935835812924381,0.008728160524910322,1.0310826276035705
1688152502759850,0.030090791180285237,0.0061646448462653325,1.0338902876325626
1688152502775844,0.028747997253375956,0.006530861371786045,1.0331578545815212
1688152502791837,0.02667277027542525,0.009094377050431035,1.030350194552529
1688152502807831,0.027405203326466676,0.007751583123521755,1.031815060654612
1688152502823825,0.029602502479590953,0.007751583123521755,1.0338902876325626
1688152502839818,0.02923628595407024,0.008972304875257464,1.0357213702601662
1688152502855812,0.027161058976119534,0.008606088349736751,1.0288853284504462
1688152502871805,0.02923628595407024,0.009338521400778177,1.031815060654612
1688152502887799,0.028870069428549527,0.006652933546959616,1.0327916380560005
1688152502903792,0.029602502479590953,0.006897077897306758,1.0314488441290912
1688152502919433,0.027527275501640247,0.010437170977340315,1.031815060654612
1688152502935425,0.029602502479590953,0.00848401617456318,1.0316929884794384
1688152502951418,0.03045700770580595,0.005310139620050336,1.033768215457389
1688152502967410,0.029724574654764524,0.007751583123521755,1.0340123598077362
1688152502983402,0.028259708552681673,0.01104753185320817,1.0316929884794384
1688152502999394,0.02789349202716096,0.008606088349736751,1.031815060654612
1688152503015386,0.03045700770580595,0.005554283970397478,1.0362096589608605
1688152503031378,0.02789349202716096,0.008239871824216038,1.0347447928587776
1688152503047371,0.02667277027542525,0.011413748378728883,1.0323033493553062
1688152503063363,0.02789349202716096,0.008972304875257464,1.0310826276035705
1688152503079355,0.03045700770580595,0.005188067444876765,1.0340123598077362
1688152503095347,0.027283131151293105,0.00836194399938961,1.0347447928587776
1688152503111339,0.02777141985198739,0.010193026626993174,1.0321812771801326
1688152503127331,0.0289921416037231,0.009582665751125319,1.0297398336766612
1688152503143324,0.02923628595407024,0.006530861371786045,1.036087586785687
1688152503159316,0.030090791180285237,0.008117799649042468,1.032669565880827
1688152503175308,0.02789349202716096,0.00970473792629889,1.0338902876325626
1688152503191300,0.028137636377508102,0.008850232700083893,1.032059205004959
1688152503207292,0.030823224231326662,0.006408789196612474,1.036087586785687
1688152503223284,0.029724574654764524,0.007385366598001042,1.0342565041580833
1688152503238983,0.027405203326466676,0.008972304875257464,1.031815060654612
1688152503254974,0.028381780727855244,0.009582665751125319,1.032913710231174
1688152503270964,0.029724574654764524,0.006530861371786045,1.0305943389028762
1688152503286955,0.02923628595407024,0.006652933546959616,1.0353551537346455
1688152503302946,0.02789349202716096,0.008117799649042468,1.0341344319829098
1688152503318936,0.028137636377508102,0.009582665751125319,1.0349889372091248
1688152503334927,0.02911421377889667,0.006286717021438903,1.0327916380560005
1688152503350918,0.029724574654764524,0.0060425726710917615,1.035233081559472
1688152503366909,0.026306553749904538,0.010681315327687457,1.0332799267566948
1688152503382899,0.026306553749904538,0.010070954451819603,1.0315709163042648
1688152503398890,0.02911421377889667,0.006897077897306758,1.033768215457389
1688152503414881,0.02789349202716096,0.006286717021438903,1.0347447928587776
1688152503430872,0.02545204852368954,0.010070954451819603,1.0341344319829098
1688152503446862,0.026916914625772392,0.00848401617456318,1.0313267719539176
1688152503462853,0.03033493553063238,0.0071412222476539,1.0349889372091248
1688152503478844,0.030212863355458808,0.007507438773174613,1.032913710231174
1688152503494835,0.02667277027542525,0.00848401617456318,1.0313267719539176
1688152503510825,0.028503852903028815,0.009216449225604606,1.031815060654612
1688152503526816,0.03033493553063238,0.006408789196612474,1.0325474937056534
1688152503542807,0.030090791180285237,0.007751583123521755,1.0345006485084305
1688152503558532,0.02801556420233453,0.007995727473868897,1.032669565880827
1688152503574522,0.027527275501640247,0.007629510948348184,1.0315709163042648
1688152503590512,0.028870069428549527,0.006286717021438903,1.0325474937056534
1688152503606502,0.03033493553063238,0.007385366598001042,1.031204699778744
1688152503622491,0.027527275501640247,0.009582665751125319,1.0319371328297855
1688152503638481,0.028137636377508102,0.010681315327687457,1.0324254215304798
1688152503654471,0.028747997253375956,0.006408789196612474,1.0334019989318683
1688152503670461,0.030945296406500233,0.005676356145571049,1.033768215457389
1688152503686451,0.027527275501640247,0.007873655298695326,1.0321812771801326
1688152503702440,0.02777141985198739,0.009460593575951748,1.032913710231174
1688152503718430,0.030823224231326662,0.0061646448462653325,1.0347447928587776
1688152503734420,0.03070115205615309,0.005920500495918191,1.0334019989318683
1688152503750410,0.02801556420233453,0.008606088349736751,1.0324254215304798
1688152503766399,0.02679484245059882,0.008728160524910322,1.030106050202182
1688152503782389,0.03070115205615309,0.005188067444876765,1.0336461432822155
1688152503798379,0.031189440756847375,0.006530861371786045,1.0342565041580833
1688152503814369,0.026916914625772392,0.008972304875257464,1.0341344319829098
1688152503830359,0.027038986800945963,0.007995727473868897,1.0314488441290912
1688152503846348,0.02789349202716096,0.005554283970397478,1.0340123598077362
1688152503862338,0.028870069428549527,0.006652933546959616,1.0331578545815212
1688152503878082,0.02801556420233453,0.006775005722133187,1.0310826276035705
1688152503894071,0.028381780727855244,0.008606088349736751,1.030350194552529
1688152503910060,0.02935835812924381,0.006530861371786045,1.0316929884794384
1688152503926048,0.029968719005111666,0.0060425726710917615,1.0353551537346455
1688152503942037,0.02801556420233453,0.00848401617456318,1.032913710231174
1688152503958026,0.02679484245059882,0.009216449225604606,1.0304722667277026
1688152503974015,0.028503852903028815,0.007629510948348184,1.0323033493553062
1688152503990004,0.029968719005111666,0.005065995269703194,1.0349889372091248
1688152504005993,0.027161058976119534,0.007507438773174613,1.0321812771801326
1688152504021981,0.027038986800945963,0.009582665751125319,1.0334019989318683
1688152504037970,0.0289921416037231,0.006897077897306758,1.032669565880827
1688152504053959,0.029846646829938095,0.006775005722133187,1.0325474937056534
1688152504069948,0.027405203326466676,0.009338521400778177,1.0338902876325626
1688152504085937,0.026306553749904538,0.008850232700083893,1.0308384832532234
1688152504101925,0.029968719005111666,0.0061646448462653325,1.0310826276035705
1688152504117914,0.029724574654764524,0.005920500495918191,1.0325474937056534
1688152504133903,0.027405203326466676,0.007385366598001042,1.032669565880827
1688152504149892,0.026062409399557396,0.00836194399938961,1.0323033493553062
1688152504165881,0.02935835812924381,0.006530861371786045,1.030960555428397
1688152504181870,0.029602502479590953,0.0060425726710917615,1.0349889372091248
1688152504197601,0.028259708552681673,0.007873655298695326,1.033524071107042
1688152504213589,0.02801556420233453,0.008728160524910322,1.0330357824063476
1688152504229577,0.028381780727855244,0.007995727473868897,1.0330357824063476
1688152504245565,0.029968719005111666,0.00457770656900891,1.034622720683604
1688152504261552,0.028259708552681673,0.007263294422827471,1.0308384832532234
1688152504277540,0.02801556420233453,0.010070954451819603,1.0315709163042648
1688152504293528,0.028137636377508102,0.007263294422827471,1.031815060654612
1688152504309516,0.029846646829938095,0.005310139620050336,1.034622720683604
1688152504325504,0.02777141985198739,0.006775005722133187,1.034378576333257
1688152504341492,0.028137636377508102,0.010681315327687457,1.0308384832532234
1688152504357480,0.030090791180285237,0.008239871824216038,1.030960555428397
1688152504373468,0.031067368581673804,0.006652933546959616,1.0332799267566948
1688152504389455,0.027038986800945963,0.008728160524910322,1.0314488441290912
1688152504405443,0.026062409399557396,0.010193026626993174,1.0304722667277026
1688152504421431,0.028747997253375956,0.008117799649042468,1.0308384832532234
1688152504437419,0.02935835812924381,0.004821850919356052,1.0336461432822155
1688152504453407,0.028137636377508102,0.0071412222476539,1.0348668650339512
1688152504469395,0.02667277027542525,0.011535820553902454,1.0314488441290912
1688152504485383,0.02911421377889667,0.009094377050431035,1.032913710231174
1688152504501371,0.030212863355458808,0.006286717021438903,1.0364538033112076
1688152504517151,0.028870069428549527,0.007873655298695326,1.032913710231174
1688152504533137,0.024597543297474544,0.010315098802166744,1.0330357824063476
1688152504549124,0.027283131151293105,0.006652933546959616,1.0316929884794384
1688152504565111,0.03216601815823594,0.005065995269703194,1.0331578545815212
1688152504581098,0.030090791180285237,0.007019150072480329,1.033768215457389
1688152504597085,0.027649347676813818,0.009460593575951748,1.0298619058518348
1688152504613072,0.027527275501640247,0.007873655298695326,1.0304722667277026
1688152504629059,0.030090791180285237,0.005310139620050336,1.032669565880827
1688152504645046,0.029846646829938095,0.006652933546959616,1.032913710231174
1688152504661033,0.02642862592507811,0.008728160524910322,1.0313267719539176
1688152504677020,0.027283131151293105,0.007263294422827471,1.0313267719539176
1688152504693007,0.030090791180285237,0.005554283970397478,1.031815060654612
1688152504708994,0.029480430304417382,0.006652933546959616,1.0347447928587776
1688152504724980,0.027283131151293105,0.00970473792629889,1.0308384832532234
1688152504740967,0.028137636377508102,0.009094377050431035,1.0310826276035705
1688152504756954,0.02935835812924381,0.006286717021438903,1.0347447928587776
1688152504772941,0.028259708552681673,0.005920500495918191,1.034378576333257
1688152504788928,0.02642862592507811,0.009582665751125319,1.0321812771801326
1688152504804915,0.026062409399557396,0.007751583123521755,1.032059205004959
1688152504820902,0.02911421377889667,0.004699778744182481,1.0325474937056534
1688152504836670,0.02935835812924381,0.005432211795223907,1.0305943389028762
1688152504852656,0.02655069810025168,0.008728160524910322,1.030350194552529
1688152504868641,0.028870069428549527,0.007751583123521755,1.0299839780270084
1688152504884627,0.029846646829938095,0.006652933546959616,1.0357213702601662
1688152504900613,0.02935835812924381,0.006408789196612474,1.0332799267566948
1688152504916599,0.026916914625772392,0.008117799649042468,1.0313267719539176
1688152504932585,0.027283131151293105,0.007507438773174613,1.0316929884794384
1688152504948571,0.03033493553063238,0.005676356145571049,1.0305943389028762
1688152504964557,0.028503852903028815,0.006775005722133187,1.032669565880827
1688152504980543,0.0289921416037231,0.007629510948348184,1.032669565880827
1688152504996529,0.028503852903028815,0.007751583123521755,1.032913710231174
1688152505012515,0.029968719005111666,0.0060425726710917615,1.0324254215304798
1688152505028501,0.028870069428549527,0.006652933546959616,1.0338902876325626
1688152505044487,0.02777141985198739,0.009094377050431035,1.0319371328297855
1688152505060473,0.027283131151293105,0.010559243152513886,1.0308384832532234
1688152505076459,0.03070115205615309,0.0061646448462653325,1.030960555428397
1688152505092445,0.029846646829938095,0.006897077897306758,1.0319371328297855
1688152505108431,0.02789349202716096,0.009338521400778177,1.031204699778744
1688152505124417,0.02642862592507811,0.009216449225604606,1.0293736171511405
1688152505140403,0.030090791180285237,0.005065995269703194,1.0316929884794384
1688152505156219,0.029480430304417382,0.005676356145571049,1.0351110093842983
1688152505172205,0.0289921416037231,0.00848401617456318,1.0319371328297855
1688152505188190,0.028137636377508102,0.008850232700083893,1.030106050202182
1688152505204176,0.030945296406500233,0.006408789196612474,1.0327916380560005
1688152505220161,0.031311512932020946,0.006897077897306758,1.0332799267566948
1688152505236147,0.02679484245059882,0.00848401617456318,1.0341344319829098
1688152505252132,0.027649347676813818,0.008606088349736751,1.035233081559472
1688152505268118,0.02911421377889667,0.005554283970397478,1.0349889372091248
1688152505284103,0.028381780727855244,0.005676356145571049,1.0334019989318683
1688152505300089,0.028259708552681673,0.007385366598001042,1.0316929884794384
1688152505316074,0.02777141985198739,0.008117799649042468,1.0310826276035705
1688152505332059,0.029724574654764524,0.007385366598001042,1.034378576333257
1688152505348045,0.030823224231326662,0.004455634393835339,1.0349889372091248
1688152505364030,0.02801556420233453,0.008117799649042468,1.0302281223773555
1688152505380016,0.0289921416037231,0.008606088349736751,1.0316929884794384
1688152505396001,0.028870069428549527,0.0060425726710917615,1.0345006485084305
1688152505411987,0.030090791180285237,0.006652933546959616,1.0324254215304798
1688152505427972,0.027649347676813818,0.008972304875257464,1.0336461432822155
1688152505443958,0.02801556420233453,0.009582665751125319,1.0316929884794384
1688152505459943,0.029968719005111666,0.005676356145571049,1.034622720683604
1688152505475708,0.029724574654764524,0.007019150072480329,1.0357213702601662
1688152505491692,0.02777141985198739,0.00848401617456318,1.0336461432822155
1688152505507677,0.02789349202716096,0.009094377050431035,1.032913710231174
1688152505523661,0.029968719005111666,0.005432211795223907,1.0331578545815212
1688152505539646,0.030212863355458808,0.005432211795223907,1.0323033493553062
1688152505555630,0.026306553749904538,0.007873655298695326,1.032913710231174
1688152505571615,0.02679484245059882,0.00970473792629889,1.030350194552529
1688152505587599,0.02935835812924381,0.007751583123521755,1.0298619058518348
1688152505603584,0.030090791180285237,0.00457770656900891,1.0336461432822155
1688152505619568,0.028137636377508102,0.009338521400778177,1.0319371328297855
1688152505635553,0.027527275501640247,0.009338521400778177,1.0321812771801326
1688152505651538,0.029480430304417382,0.006775005722133187,1.031815060654612
1688152505667522,0.030945296406500233,0.004455634393835339,1.0331578545815212
1688152505683507,0.028503852903028815,0.009216449225604606,1.033524071107042
1688152505699491,0.027649347676813818,0.010193026626993174,1.0305943389028762
1688152505715476,0.030945296406500233,0.006286717021438903,1.0336461432822155
1688152505731460,0.03143358510719452,0.005310139620050336,1.0364538033112076
1688152505747445,0.02679484245059882,0.007507438773174613,1.0330357824063476
1688152505763429,0.026184481574730967,0.009094377050431035,1.0308384832532234
1688152505779414,0.02911421377889667,0.006775005722133187,1.031815060654612
1688152505795257,0.029968719005111666,0.004699778744182481,1.0340123598077362
1688152505811241,0.028503852903028815,0.007873655298695326,1.034378576333257
1688152505827225,0.02679484245059882,0.008972304875257464,1.0334019989318683
1688152505843209,0.028747997253375956,0.007019150072480329,1.0327916380560005
1688152505859193,0.02911421377889667,0.005554283970397478,1.033524071107042
1688152505875177,0.029968719005111666,0.007507438773174613,1.033768215457389
1688152505891162,0.027405203326466676,0.009948882276646032,1.0314488441290912
1688152505907146,0.028747997253375956,0.007385366598001042,1.0327916380560005
1688152505923130,0.030945296406500233,0.005554283970397478,1.035233081559472
1688152505939114,0.02777141985198739,0.007629510948348184,1.035233081559472
1688152505955098,0.027649347676813818,0.009216449225604606,1.0314488441290912
1688152505971082,0.028625925078202386,0.007019150072480329,1.032669565880827
1688152505987066,0.031311512932020946,0.006530861371786045,1.0340123598077362
1688152506003050,0.028625925078202386,0.008728160524910322,1.0325474937056534
1688152506019034,0.02667277027542525,0.00982681010147246,1.030960555428397
1688152506035018,0.028381780727855244,0.007507438773174613,1.0327916380560005
1688152506051002,0.03057907988097952,0.006652933546959616,1.0357213702601662
1688152506066986,0.028625925078202386,0.006897077897306758,1.0315709163042648
1688152506082970,0.02789349202716096,0.008850232700083893,1.0347447928587776
1688152506098954,0.02911421377889667,0.00836194399938961,1.033768215457389
1688152506114776,0.03033493553063238,0.004943923094529623,1.0334019989318683
1688152506130759,0.028503852903028815,0.006775005722133187,1.033524071107042
1688152506146742,0.026306553749904538,0.009460593575951748,1.0293736171511405
1688152506162726,0.02789349202716096,0.007385366598001042,1.0314488441290912
1688152506178709,0.030212863355458808,0.005920500495918191,1.0341344319829098
1688152506194692,0.029480430304417382,0.00836194399938961,1.0327916380560005
1688152506210675,0.027283131151293105,0.00982681010147246,1.0299839780270084
1688152506226658,0.028381780727855244,0.008850232700083893,1.0310826276035705
1688152506242641,0.03045700770580595,0.0071412222476539,1.0341344319829098
1688152506258624,0.028137636377508102,0.006408789196612474,1.0331578545815212
1688152506274607,0.027038986800945963,0.010193026626993174,1.0316929884794384
1688152506290590,0.028381780727855244,0.007629510948348184,1.031204699778744
1688152506306573,0.030090791180285237,0.005920500495918191,1.034622720683604
1688152506322557,0.028747997253375956,0.0071412222476539,1.0327916380560005
1688152506338540,0.024963759822995257,0.007995727473868897,1.031815060654612
1688152506354523,0.026306553749904538,0.007995727473868897,1.0319371328297855
1688152506370506,0.030090791180285237,0.0060425726710917615,1.0370641641870755
1688152506386489,0.029480430304417382,0.00579842832074462,1.0349889372091248
1688152506402472,0.02777141985198739,0.008728160524910322,1.0310826276035705
1688152506418455,0.02655069810025168,0.00836194399938961,1.0290074006256198
1688152506434326,0.029724574654764524,0.007019150072480329,1.0331578545815212
1688152506450308,0.03033493553063238,0.006530861371786045,1.030960555428397
1688152506466291,0.028747997253375956,0.008728160524910322,1.0310826276035705
1688152506482274,0.027038986800945963,0.00982681010147246,1.0342565041580833
1688152506498256,0.02923628595407024,0.004455634393835339,1.033768215457389
1688152506514239,0.028625925078202386,0.00579842832074462,1.0327916380560005
1688152506530222,0.02642862592507811,0.010437170977340315,1.028397039749752
1688152506546204,0.028625925078202386,0.008239871824216038,1.0331578545815212
1688152506562187,0.0289921416037231,0.004821850919356052,1.030960555428397
1688152506578169,0.029480430304417382,0.004821850919356052,1.0355992980849926
1688152506594152,0.02667277027542525,0.00836194399938961,1.0331578545815212
1688152506610135,0.028381780727855244,0.010437170977340315,1.033768215457389
1688152506626117,0.029968719005111666,0.00579842832074462,1.0347447928587776
1688152506642100,0.029480430304417382,0.006530861371786045,1.0338902876325626
1688152506658083,0.027405203326466676,0.008606088349736751,1.0305943389028762
1688152506674065,0.02655069810025168,0.007751583123521755,1.0307164110780498
1688152506690048,0.029480430304417382,0.004821850919356052,1.0351110093842983
1688152506706030,0.029602502479590953,0.006897077897306758,1.035233081559472
1688152506722013,0.026916914625772392,0.009216449225604606,1.0327916380560005
1688152506737996,0.02667277027542525,0.009094377050431035,1.0315709163042648
1688152506753845,0.029480430304417382,0.0060425726710917615,1.0330357824063476
1688152506769827,0.03033493553063238,0.006408789196612474,1.0319371328297855
1688152506785809,0.027038986800945963,0.006530861371786045,1.0331578545815212
1688152506801791,0.027161058976119534,0.00848401617456318,1.0316929884794384
1688152506817773,0.029480430304417382,0.007507438773174613,1.033524071107042
1688152506833756,0.02911421377889667,0.00579842832074462,1.0341344319829098
1688152506849738,0.02655069810025168,0.008850232700083893,1.0314488441290912
1688152506865720,0.02667277027542525,0.00836194399938961,1.0302281223773555
1688152506881702,0.029602502479590953,0.006897077897306758,1.0334019989318683
1688152506897684,0.029480430304417382,0.006408789196612474,1.0314488441290912
1688152506913666,0.028870069428549527,0.009338521400778177,1.0327916380560005
1688152506929649,0.02801556420233453,0.008239871824216038,1.031815060654612
1688152506945631,0.03167772945754166,0.006530861371786045,1.0348668650339512
1688152506961613,0.03033493553063238,0.005676356145571049,1.0355992980849926
1688152506977595,0.02789349202716096,0.009216449225604606,1.0321812771801326
1688152506993577,0.02789349202716096,0.007751583123521755,1.031204699778744
1688152507009559,0.02923628595407024,0.005676356145571049,1.035477225909819
1688152507025541,0.028625925078202386,0.005432211795223907,1.0330357824063476
1688152507041524,0.027405203326466676,0.009460593575951748,1.0314488441290912
1688152507057506,0.028503852903028815,0.008850232700083893,1.0298619058518348
1688152507073364,0.029968719005111666,0.004699778744182481,1.0323033493553062
1688152507089346,0.031067368581673804,0.005310139620050336,1.0327916380560005
1688152507105327,0.02679484245059882,0.007629510948348184,1.0327916380560005
1688152507121309,0.02667277027542525,0.007995727473868897,1.0314488441290912
1688152507137291,0.029602502479590953,0.006408789196612474,1.0307164110780498
1688152507153272,0.029968719005111666,0.0060425726710917615,1.0327916380560005
1688152507169254,0.02801556420233453,0.007019150072480329,1.0316929884794384
1688152507185236,0.027649347676813818,0.008606088349736751,1.0315709163042648
1688152507201217,0.030212863355458808,0.005432211795223907,1.032669565880827
1688152507217199,0.02935835812924381,0.006286717021438903,1.0332799267566948
1688152507233181,0.027649347676813818,0.008850232700083893,1.0310826276035705
1688152507249162,0.025696192874036683,0.008239871824216038,1.0302281223773555
1688152507265144,0.027161058976119534,0.004943923094529623,1.0319371328297855
1688152507281126,0.029724574654764524,0.005676356145571049,1.0347447928587776
1688152507297107,0.027038986800945963,0.00836194399938961,1.0325474937056534
1688152507313089,0.025818265049210254,0.009094377050431035,1.028397039749752
1688152507329071,0.029968719005111666,0.006775005722133187,1.0316929884794384
1688152507345052,0.02935835812924381,0.005554283970397478,1.0334019989318683
1688152507361034,0.027527275501640247,0.007873655298695326,1.0342565041580833
1688152507377016,0.02777141985198739,0.010559243152513886,1.0305943389028762
1688152507392883,0.03057907988097952,0.007873655298695326,1.0336461432822155
1688152507408864,0.03216601815823594,0.004943923094529623,1.033524071107042
1688152507424845,0.028870069428549527,0.007263294422827471,1.0331578545815212
1688152507440827,0.027038986800945963,0.009460593575951748,1.0302281223773555
1688152507456808,0.030212863355458808,0.006652933546959616,1.031204699778744
1688152507472789,0.032410162508583085,0.0040894178683146265,1.0347447928587776
1688152507488770,0.028137636377508102,0.008117799649042468,1.0330357824063476
1688152507504751,0.027161058976119534,0.01104753185320817,1.029495689326314
1688152507520733,0.028747997253375956,0.007995727473868897,1.030350194552529
1688152507536714,0.03155565728236809,0.00579842832074462,1.0332799267566948
1688152507552695,0.029724574654764524,0.007629510948348184,1.0323033493553062
1688152507568676,0.026184481574730967,0.009216449225604606,1.0304722667277026
1688152507584657,0.02911421377889667,0.005432211795223907,1.033524071107042
1688152507600638,0.030212863355458808,0.004455634393835339,1.0332799267566948
1688152507616620,0.028381780727855244,0.007507438773174613,1.0319371328297855
1688152507632601,0.025940337224383825,0.00970473792629889,1.0325474937056534
1688152507648582,0.028747997253375956,0.007263294422827471,1.0308384832532234
1688152507664563,0.031189440756847375,0.005188067444876765,1.0332799267566948
1688152507680544,0.02789349202716096,0.00836194399938961,1.0336461432822155
1688152507696526,0.027038986800945963,0.010315098802166744,1.0305943389028762
1688152507712432,0.028747997253375956,0.006897077897306758,1.029495689326314
1688152507728413,0.03033493553063238,0.006652933546959616,1.032913710231174
1688152507744394,0.0289921416037231,0.0071412222476539,1.034622720683604
1688152507760375,0.027283131151293105,0.008606088349736751,1.0298619058518348
1688152507776355,0.027527275501640247,0.007629510948348184,1.0307164110780498
1688152507792336,0.031189440756847375,0.00457770656900891,1.0341344319829098
1688152507808317,0.029724574654764524,0.008117799649042468,1.0332799267566948
1688152507824298,0.027649347676813818,0.010437170977340315,1.0314488441290912
1688152507840278,0.028870069428549527,0.007019150072480329,1.030960555428397
1688152507856259,0.03167772945754166,0.0060425726710917615,1.0330357824063476
1688152507872240,0.028870069428549527,0.007019150072480329,1.0330357824063476
1688152507888220,0.02667277027542525,0.009948882276646032,1.0316929884794384
1688152507904201,0.027161058976119534,0.008117799649042468,1.0304722667277026
1688152507920182,0.030090791180285237,0.00579842832074462,1.0340123598077362
1688152507936163,0.029846646829938095,0.007507438773174613,1.0349889372091248
1688152507952143,0.025574120698863112,0.00970473792629889,1.0304722667277026
1688152507968124,0.028503852903028815,0.0061646448462653325,1.0321812771801326
1688152507984105,0.03033493553063238,0.005554283970397478,1.0315709163042648
1688152508000085,0.030090791180285237,0.008239871824216038,1.032669565880827
1688152508016066,0.026062409399557396,0.009338521400778177,1.031815060654612
1688152508031952,0.027161058976119534,0.008239871824216038,1.0331578545815212
1688152508047932,0.030212863355458808,0.005188067444876765,1.0341344319829098
1688152508063913,0.028259708552681673,0.007751583123521755,1.0297398336766612
1688152508079894,0.02545204852368954,0.010437170977340315,1.0302281223773555
1688152508095874,0.027283131151293105,0.008850232700083893,1.0327916380560005
1688152508111855,0.030212863355458808,0.0060425726710917615,1.0338902876325626
1688152508127836,0.02923628595407024,0.006530861371786045,1.032669565880827
1688152508143817,0.02789349202716096,0.008972304875257464,1.0330357824063476
1688152508159797,0.027283131151293105,0.007385366598001042,1.0299839780270084
1688152508175778,0.03057907988097952,0.005310139620050336,1.0305943389028762
1688152508191759,0.03045700770580595,0.006775005722133187,1.0330357824063476
1688152508207739,0.027527275501640247,0.009948882276646032,1.0307164110780498
1688152508223720,0.027283131151293105,0.007995727473868897,1.030960555428397
1688152508239701,0.030823224231326662,0.004943923094529623,1.0315709163042648
1688152508255682,0.0289921416037231,0.006775005722133187,1.0358434424353398
1688152508271662,0.027527275501640247,0.008850232700083893,1.0338902876325626
1688152508287643,0.028259708552681673,0.008728160524910322,1.0325474937056534
1688152508303624,0.031067368581673804,0.0061646448462653325,1.0355992980849926
1688152508319604,0.03179980163271523,0.006897077897306758,1.0340123598077362
1688152508335585,0.027649347676813818,0.009948882276646032,1.031815060654612
1688152508351471,0.026062409399557396,0.010315098802166744,1.0307164110780498
1688152508367451,0.029602502479590953,0.006408789196612474,1.0319371328297855
1688152508383431,0.03057907988097952,0.005676356145571049,1.0332799267566948
1688152508399411,0.027161058976119534,0.007751583123521755,1.031815060654612
1688152508415392,0.027283131151293105,0.00982681010147246,1.0307164110780498
1688152508431372,0.03033493553063238,0.0061646448462653325,1.033524071107042
1688152508447352,0.03070115205615309,0.00579842832074462,1.0332799267566948
1688152508463332,0.026306553749904538,0.009338521400778177,1.0291294728007934
1688152508479313,0.027283131151293105,0.008728160524910322,1.0297398336766612
1688152508495293,0.02911421377889667,0.0061646448462653325,1.0313267719539176
1688152508511273,0.02935835812924381,0.0071412222476539,1.0364538033112076
1688152508527253,0.02642862592507811,0.009460593575951748,1.032669565880827
1688152508543233,0.02777141985198739,0.00848401617456318,1.0325474937056534
1688152508559214,0.0289921416037231,0.005920500495918191,1.0332799267566948
1688152508575194,0.029480430304417382,0.006775005722133187,1.0331578545815212
1688152508591174,0.027161058976119534,0.010681315327687457,1.030350194552529
1688152508607154,0.028381780727855244,0.007995727473868897,1.0305943389028762
1688152508623135,0.029724574654764524,0.005554283970397478,1.035233081559472
1688152508639115,0.030823224231326662,0.007873655298695326,1.034378576333257
1688152508655095,0.02801556420233453,0.009094377050431035,1.0330357824063476
1688152508670990,0.02777141985198739,0.008972304875257464,1.0315709163042648
1688152508686969,0.029846646829938095,0.0071412222476539,1.033524071107042
1688152508702949,0.03045700770580595,0.00579842832074462,1.033524071107042
1688152508718929,0.027405203326466676,0.008728160524910322,1.0299839780270084
1688152508734909,0.028503852903028815,0.008728160524910322,1.031815060654612
1688152508750888,0.031189440756847375,0.005676356145571049,1.0327916380560005
1688152508766868,0.02923628595407024,0.005676356145571049,1.0347447928587776
1688152508782848,0.028259708552681673,0.008117799649042468,1.0315709163042648
1688152508798828,0.02777141985198739,0.009460593575951748,1.0327916380560005
1688152508814808,0.029724574654764524,0.007019150072480329,1.032059205004959
1688152508830787,0.030212863355458808,0.0071412222476539,1.0347447928587776
1688152508846767,0.028259708552681673,0.00836194399938961,1.0342565041580833
1688152508862747,0.028259708552681673,0.008728160524910322,1.029251544975967
1688152508878727,0.031311512932020946,0.006530861371786045,1.0323033493553062
1688152508894706,0.03070115205615309,0.005920500495918191,1.034378576333257
1688152508910686,0.028259708552681673,0.009948882276646032,1.0338902876325626
1688152508926666,0.027283131151293105,0.009338521400778177,1.0308384832532234
1688152508942646,0.030823224231326662,0.006408789196612474,1.0327916380560005
1688152508958625,0.030090791180285237,0.00579842832074462,1.0341344319829098
1688152508974605,0.02801556420233453,0.009460593575951748,1.0327916380560005
1688152508990539,0.02679484245059882,0.008728160524910322,1.0325474937056534
1688152509006519,0.030090791180285237,0.0060425726710917615,1.0310826276035705
1688152509022499,0.03057907988097952,0.005920500495918191,1.035233081559472
1688152509038478,0.02801556420233453,0.007019150072480329,1.0298619058518348
1688152509054458,0.028137636377508102,0.007751583123521755,1.0280308232242312
1688152509070438,0.029724574654764524,0.005065995269703194,1.0334019989318683
1688152509086418,0.03216601815823594,0.005676356145571049,1.0321812771801326
1688152509102398,0.02935835812924381,0.009338521400778177,1.0351110093842983
1688152509118377,0.028625925078202386,0.009216449225604606,1.0281528953994048
1688152509134357,0.029846646829938095,0.0060425726710917615,1.0323033493553062
1688152509150337,0.031311512932020946,0.0061646448462653325,1.0334019989318683
1688152509166317,0.02923628595407024,0.007995727473868897,1.0321812771801326
1688152509182296,0.02667277027542525,0.010315098802166744,1.0324254215304798
1688152509198276,0.028137636377508102,0.007263294422827471,1.032669565880827
1688152509214256,0.03033493553063238,0.005554283970397478,1.0332799267566948
1688152509230236,0.02789349202716096,0.007019150072480329,1.0325474937056534
1688152509246215,0.027405203326466676,0.009338521400778177,1.0330357824063476
1688152509262195,0.028503852903028815,0.006530861371786045,1.0305943389028762
1688152509278175,0.02935835812924381,0.005310139620050336,1.0331578545815212
1688152509294155,0.029846646829938095,0.00836194399938961,1.0324254215304798
1688152509310058,0.02642862592507811,0.008972304875257464,1.0327916380560005
1688152509326038,0.029846646829938095,0.007507438773174613,1.032913710231174
1688152509342017,0.029968719005111666,0.00457770656900891,1.0342565041580833
1688152509357996,0.028870069428549527,0.007751583123521755,1.0313267719539176
1688152509373975,0.026916914625772392,0.008606088349736751,1.0307164110780498
1688152509389955,0.02789349202716096,0.007873655298695326,1.0327916380560005
1688152509405934,0.030090791180285237,0.005920500495918191,1.0341344319829098
1688152509421913,0.028625925078202386,0.007995727473868897,1.0348668650339512
1688152509437893,0.02679484245059882,0.00970473792629889,1.0316929884794384
1688152509453872,0.02789349202716096,0.007507438773174613,1.0315709163042648
1688152509469851,0.030945296406500233,0.005432211795223907,1.034622720683604
1688152509485830,0.029724574654764524,0.006652933546959616,1.0327916380560005
1688152509501810,0.027283131151293105,0.00836194399938961,1.0316929884794384
1688152509517789,0.029846646829938095,0.007995727473868897,1.0310826276035705
1688152509533768,0.029846646829938095,0.004943923094529623,1.0345006485084305
1688152509549748,0.028625925078202386,0.008239871824216038,1.0345006485084305
1688152509565727,0.027038986800945963,0.007995727473868897,1.0305943389028762
1688152509581706,0.027283131151293105,0.008239871824216038,1.0310826276035705
1688152509597685,0.02935835812924381,0.0060425726710917615,1.031815060654612
1688152509613665,0.029724574654764524,0.007507438773174613,1.033524071107042
1688152509629547,0.02679484245059882,0.007263294422827471,1.030350194552529
1688152509645526,0.02777141985198739,0.007751583123521755,1.032669565880827
1688152509661504,0.029968719005111666,0.007263294422827471,1.0345006485084305
1688152509677483,0.029968719005111666,0.007263294422827471,1.0340123598077362
1688152509693462,0.027161058976119534,0.010070954451819603,1.032059205004959
1688152509709441,0.028137636377508102,0.008239871824216038,1.0323033493553062
1688152509725420,0.030823224231326662,0.0060425726710917615,1.0323033493553062
1688152509741398,0.03033493553063238,0.006530861371786045,1.0332799267566948
1688152509757377,0.027038986800945963,0.009216449225604606,1.0302281223773555
1688152509773356,0.02789349202716096,0.008239871824216038,1.0323033493553062
1688152509789335,0.03033493553063238,0.0061646448462653325,1.0340123598077362
1688152509805314,0.030090791180285237,0.007995727473868897,1.0316929884794384
1688152509821293,0.027527275501640247,0.009582665751125319,1.0348668650339512
1688152509837271,0.02679484245059882,0.00848401617456318,1.0302281223773555
1688152509853250,0.02911421377889667,0.00457770656900891,1.0310826276035705
1688152509869229,0.028503852903028815,0.007995727473868897,1.0331578545815212
1688152509885208,0.02679484245059882,0.008850232700083893,1.0308384832532234
1688152509901187,0.028259708552681673,0.00982681010147246,1.031815060654612
1688152509917165,0.03143358510719452,0.00579842832074462,1.030106050202182
1688152509933144,0.029846646829938095,0.007019150072480329,1.0353551537346455
1688152509949066,0.0252079041733424,0.009948882276646032,1.029251544975967
1688152509965045,0.025818265049210254,0.009338521400778177,1.0293736171511405
1688152509981023,0.03143358510719452,0.006286717021438903,1.0348668650339512
1688152509997002,0.028625925078202386,0.005920500495918191,1.0338902876325626
1688152510012981,0.025818265049210254,0.008728160524910322,1.030106050202182
1688152510028960,0.027405203326466676,0.007629510948348184,1.0314488441290912
1688152510044939,0.029724574654764524,0.005676356145571049,1.0327916380560005
1688152510060917,0.029968719005111666,0.006530861371786045,1.037796597238117
1688152510076896,0.02667277027542525,0.007751583123521755,1.0330357824063476
1688152510092875,0.028381780727855244,0.00982681010147246,1.0327916380560005
1688152510108854,0.032410162508583085,0.004821850919356052,1.0314488441290912
1688152510124833,0.031189440756847375,0.006652933546959616,1.035233081559472
1688152510140812,0.02789349202716096,0.00970473792629889,1.032669565880827
1688152510156790,0.02777141985198739,0.008850232700083893,1.032059205004959
1688152510172769,0.029480430304417382,0.007385366598001042,1.0308384832532234
1688152510188748,0.030823224231326662,0.006652933546959616,1.0323033493553062
1688152510204727,0.027649347676813818,0.010315098802166744,1.032059205004959
1688152510220706,0.028259708552681673,0.008972304875257464,1.0319371328297855
1688152510236684,0.03143358510719452,0.0071412222476539,1.0324254215304798
1688152510252663,0.02923628595407024,0.00579842832074462,1.0336461432822155
1688152510268585,0.02801556420233453,0.008972304875257464,1.033524071107042
1688152510284563,0.027405203326466676,0.007873655298695326,1.0305943389028762
1688152510300542,0.02935835812924381,0.007751583123521755,1.0341344319829098
1688152510316520,0.028870069428549527,0.007019150072480329,1.0340123598077362
1688152510332498,0.02789349202716096,0.008728160524910322,1.0319371328297855
1688152510348477,0.02679484245059882,0.010070954451819603,1.0316929884794384
1688152510364455,0.028870069428549527,0.007385366598001042,1.030960555428397
1688152510380433,0.029480430304417382,0.006897077897306758,1.0316929884794384
1688152510396412,0.028503852903028815,0.009216449225604606,1.0304722667277026
1688152510412390,0.027038986800945963,0.007751583123521755,1.0310826276035705
1688152510428368,0.02911421377889667,0.0071412222476539,1.0313267719539176
1688152510444347,0.03070115205615309,0.00579842832074462,1.0332799267566948
1688152510460325,0.027527275501640247,0.007751583123521755,1.033524071107042
1688152510476303,0.02667277027542525,0.009460593575951748,1.0290074006256198
1688152510492282,0.03033493553063238,0.007385366598001042,1.0307164110780498
1688152510508260,0.031067368581673804,0.007385366598001042,1.033524071107042
1688152510524238,0.028747997253375956,0.008239871824216038,1.0334019989318683
1688152510540217,0.026306553749904538,0.010437170977340315,1.0327916380560005
1688152510556195,0.030945296406500233,0.007629510948348184,1.0316929884794384
1688152510572173,0.031311512932020946,0.005188067444876765,1.0332799267566948
1688152510588104,0.028870069428549527,0.009094377050431035,1.033524071107042
1688152510604082,0.026184481574730967,0.009948882276646032,1.0304722667277026
1688152510620061,0.028870069428549527,0.007385366598001042,1.0305943389028762
1688152510636039,0.030823224231326662,0.006652933546959616,1.031815060654612
1688152510652017,0.028259708552681673,0.007873655298695326,1.0302281223773555
1688152510667996,0.027649347676813818,0.010315098802166744,1.0315709163042648
1688152510683974,0.029968719005111666,0.007751583123521755,1.031204699778744
1688152510699952,0.029968719005111666,0.005920500495918191,1.0347447928587776
1688152510715931,0.02801556420233453,0.00836194399938961,1.0319371328297855
1688152510731909,0.026916914625772392,0.010681315327687457,1.0310826276035705
1688152510747887,0.03070115205615309,0.00836194399938961,1.032669565880827
1688152510763866,0.030945296406500233,0.007507438773174613,1.032059205004959
1688152510779844,0.030090791180285237,0.007995727473868897,1.0319371328297855
1688152510795822,0.027527275501640247,0.00982681010147246,1.027786678873884
1688152510811801,0.0289921416037231,0.008117799649042468,1.0308384832532234
1688152510827779,0.03033493553063238,0.007263294422827471,1.0345006485084305
1688152510843757,0.02642862592507811,0.009216449225604606,1.032059205004959
1688152510859736,0.027038986800945963,0.010559243152513886,1.0296177615014876
1688152510875714,0.028747997253375956,0.007263294422827471,1.0290074006256198
1688152510891692,0.03033493553063238,0.0060425726710917615,1.0313267719539176
1688152510907653,0.028503852903028815,0.007629510948348184,1.033524071107042
1688152510923632,0.027527275501640247,0.011413748378728883,1.0314488441290912
1688152510939610,0.02935835812924381,0.008728160524910322,1.0334019989318683
1688152510955588,0.03326466773479808,0.005432211795223907,1.033768215457389
1688152510971567,0.028503852903028815,0.007385366598001042,1.0332799267566948
1688152510987545,0.02667277027542525,0.009460593575951748,1.0305943389028762
1688152511003523,0.02911421377889667,0.006652933546959616,1.0319371328297855
1688152511019502,0.031311512932020946,0.005554283970397478,1.0353551537346455
1688152511035480,0.028259708552681673,0.008728160524910322,1.0327916380560005
1688152511051458,0.02667277027542525,0.009948882276646032,1.0327916380560005
1688152511067437,0.029480430304417382,0.006530861371786045,1.030350194552529
1688152511083415,0.031311512932020946,0.005065995269703194,1.0340123598077362
1688152511099393,0.02923628595407024,0.007873655298695326,1.0324254215304798
1688152511115372,0.027527275501640247,0.009582665751125319,1.0308384832532234
1688152511131350,0.029968719005111666,0.008972304875257464,1.0336461432822155
1688152511147328,0.029968719005111666,0.0071412222476539,1.0340123598077362
1688152511163307,0.02935835812924381,0.008117799649042468,1.0308384832532234
1688152511179285,0.02679484245059882,0.009460593575951748,1.0319371328297855
1688152511195263,0.0289921416037231,0.007873655298695326,1.0315709163042648
1688152511211242,0.029480430304417382,0.0061646448462653325,1.033524071107042
1688152511227172,0.02911421377889667,0.007507438773174613,1.0336461432822155
1688152511243150,0.027527275501640247,0.010437170977340315,1.0308384832532234
1688152511259128,0.028747997253375956,0.008239871824216038,1.032059205004959
1688152511275106,0.029602502479590953,0.00579842832074462,1.033768215457389
1688152511291084,0.02911421377889667,0.008606088349736751,1.0332799267566948
1688152511307062,0.02679484245059882,0.010315098802166744,1.0324254215304798
1688152511323040,0.028625925078202386,0.007995727473868897,1.032669565880827
1688152511339017,0.02923628595407024,0.005920500495918191,1.033768215457389
1688152511354995,0.029480430304417382,0.006408789196612474,1.0307164110780498
1688152511370973,0.02642862592507811,0.009094377050431035,1.032669565880827
1688152511386951,0.027649347676813818,0.007507438773174613,1.033524071107042
1688152511402929,0.03045700770580595,0.005920500495918191,1.0324254215304798
1688152511418907,0.02935835812924381,0.0071412222476539,1.0332799267566948
1688152511434885,0.02777141985198739,0.010070954451819603,1.0314488441290912
1688152511450863,0.028625925078202386,0.009338521400778177,1.0304722667277026
1688152511466840,0.031189440756847375,0.005920500495918191,1.035477225909819
1688152511482818,0.029724574654764524,0.008117799649042468,1.0351110093842983
1688152511498796,0.02655069810025168,0.010437170977340315,1.0321812771801326
1688152511514774,0.029602502479590953,0.008239871824216038,1.0305943389028762
1688152511530752,0.03155565728236809,0.005310139620050336,1.032669565880827
1688152511546692,0.028870069428549527,0.008117799649042468,1.033768215457389
1688152511562669,0.027038986800945963,0.010681315327687457,1.032913710231174
1688152511578647,0.029602502479590953,0.00982681010147246,1.029495689326314
1688152511594625,0.030945296406500233,0.005676356145571049,1.0332799267566948
1688152511610603,0.0289921416037231,0.009338521400778177,1.0321812771801326
1688152511626581,0.02777141985198739,0.010193026626993174,1.032669565880827
1688152511642559,0.02789349202716096,0.008606088349736751,1.0324254215304798
1688152511658537,0.031189440756847375,0.0060425726710917615,1.0327916380560005
1688152511674514,0.028747997253375956,0.008239871824216038,1.0340123598077362
1688152511690492,0.02679484245059882,0.009582665751125319,1.032913710231174
1688152511706470,0.027283131151293105,0.009338521400778177,1.029495689326314
1688152511722448,0.030945296406500233,0.006530861371786045,1.0315709163042648
1688152511738426,0.02923628595407024,0.006286717021438903,1.033768215457389
1688152511754404,0.02789349202716096,0.009094377050431035,1.030106050202182
1688152511770382,0.027161058976119534,0.009460593575951748,1.0305943389028762
1688152511786359,0.03033493553063238,0.006530861371786045,1.0336461432822155
1688152511802337,0.030945296406500233,0.004943923094529623,1.034622720683604
1688152511818315,0.026916914625772392,0.009582665751125319,1.033768215457389
1688152511834293,0.028747997253375956,0.008728160524910322,1.0314488441290912
1688152511850271,0.030090791180285237,0.0060425726710917615,1.0307164110780498
1688152511866211,0.03070115205615309,0.0061646448462653325,1.0324254215304798
1688152511882188,0.02777141985198739,0.008606088349736751,1.0321812771801326
1688152511898166,0.028503852903028815,0.01104753185320817,1.0315709163042648
1688152511914144,0.030945296406500233,0.0071412222476539,1.0314488441290912
1688152511930122,0.030945296406500233,0.00579842832074462,1.0340123598077362
1688152511946100,0.02789349202716096,0.00848401617456318,1.0331578545815212
1688152511962078,0.02679484245059882,0.00970473792629889,1.0302281223773555
1688152511978056,0.031311512932020946,0.00579842832074462,1.0293736171511405
1688152511994033,0.029846646829938095,0.006530861371786045,1.0321812771801326
1688152512010011,0.028870069428549527,0.00970473792629889,1.032913710231174
1688152512025989,0.027405203326466676,0.00970473792629889,1.0316929884794384
1688152512041967,0.031189440756847375,0.005920500495918191,1.0315709163042648
1688152512057945,0.03155565728236809,0.005432211795223907,1.0341344319829098
1688152512073923,0.027649347676813818,0.009582665751125319,1.031815060654612
1688152512089901,0.027038986800945963,0.009948882276646032,1.0341344319829098
1688152512105878,0.029846646829938095,0.006652933546959616,1.0323033493553062
1688152512121856,0.029968719005111666,0.006286717021438903,1.0331578545815212
1688152512137834,0.02789349202716096,0.007751583123521755,1.0336461432822155
1688152512153812,0.027283131151293105,0.009582665751125319,1.0291294728007934
1688152512169790,0.031311512932020946,0.005920500495918191,1.033524071107042
1688152512185730,0.029602502479590953,0.005065995269703194,1.034622720683604
1688152512201707,0.02655069810025168,0.009460593575951748,1.032059205004959
1688152512217684,0.02679484245059882,0.010070954451819603,1.0310826276035705
1688152512233662,0.0289921416037231,0.006775005722133187,1.031815060654612
1688152512249639,0.029724574654764524,0.005676356145571049,1.0332799267566948
1688152512265617,0.027649347676813818,0.00970473792629889,1.0341344319829098
1688152512281594,0.027649347676813818,0.009948882276646032,1.0304722667277026
1688152512297571,0.0289921416037231,0.007385366598001042,1.0336461432822155
1688152512313549,0.03057907988097952,0.006652933546959616,1.0334019989318683
1688152512329526,0.02801556420233453,0.009094377050431035,1.0325474937056534
1688152512345503,0.02801556420233453,0.009948882276646032,1.0287632562752727
1688152512361481,0.03045700770580595,0.005920500495918191,1.0313267719539176
1688152512377458,0.029846646829938095,0.005065995269703194,1.033524071107042
1688152512393436,0.028747997253375956,0.007995727473868897,1.0321812771801326
1688152512409413,0.027038986800945963,0.010681315327687457,1.030350194552529
1688152512425390,0.028259708552681673,0.007263294422827471,1.031204699778744
1688152512441368,0.031067368581673804,0.0038452735179674846,1.0349889372091248
1688152512457345,0.028747997253375956,0.008850232700083893,1.034378576333257
1688152512473322,0.02679484245059882,0.00970473792629889,1.0310826276035705
1688152512489300,0.030090791180285237,0.006775005722133187,1.0330357824063476
1688152512505249,0.030212863355458808,0.005920500495918191,1.0342565041580833
1688152512521226,0.029602502479590953,0.008117799649042468,1.0330357824063476
1688152512537203,0.026306553749904538,0.011657892729076025,1.0332799267566948
1688152512553181,0.027161058976119534,0.007995727473868897,1.0316929884794384
1688152512569158,0.029846646829938095,0.0042114900434881974,1.0323033493553062
1688152512585136,0.028625925078202386,0.007507438773174613,1.0314488441290912
1688152512601113,0.028503852903028815,0.010193026626993174,1.0288853284504462
1688152512617090,0.028625925078202386,0.007873655298695326,1.0325474937056534
1688152512633068,0.03143358510719452,0.006652933546959616,1.0313267719539176
1688152512649045,0.028625925078202386,0.009216449225604606,1.0332799267566948
1688152512665022,0.026184481574730967,0.011169604028381741,1.0314488441290912
1688152512681000,0.027649347676813818,0.009460593575951748,1.0296177615014876
1688152512696977,0.02911421377889667,0.007263294422827471,1.0341344319829098
1688152512712955,0.028137636377508102,0.008972304875257464,1.032669565880827
1688152512728932,0.027527275501640247,0.00982681010147246,1.0299839780270084
1688152512744909,0.029480430304417382,0.009094377050431035,1.0315709163042648
1688152512760887,0.03057907988097952,0.00579842832074462,1.0315709163042648
1688152512776864,0.028625925078202386,0.007751583123521755,1.0332799267566948
1688152512792842,0.027405203326466676,0.008728160524910322,1.0324254215304798
1688152512808819,0.028870069428549527,0.009094377050431035,1.0304722667277026
1688152512824768,0.02923628595407024,0.005554283970397478,1.033768215457389
1688152512840745,0.028747997253375956,0.005676356145571049,1.0325474937056534
1688152512856722,0.027038986800945963,0.010193026626993174,1.031204699778744
1688152512872700,0.02777141985198739,0.009338521400778177,1.0319371328297855
1688152512888677,0.030090791180285237,0.0061646448462653325,1.0330357824063476
1688152512904655,0.028870069428549527,0.007873655298695326,1.0315709163042648
1688152512920632,0.027405203326466676,0.008850232700083893,1.0304722667277026
1688152512936609,0.028870069428549527,0.008117799649042468,1.0313267719539176
1688152512952587,0.030212863355458808,0.006408789196612474,1.0331578545815212
1688152512968564,0.029846646829938095,0.006286717021438903,1.0349889372091248
1688152512984542,0.028381780727855244,0.008606088349736751,1.0305943389028762
1688152513000519,0.02935835812924381,0.009460593575951748,1.030960555428397
1688152513016496,0.0319218738078888,0.005676356145571049,1.0305943389028762
1688152513032474,0.029846646829938095,0.006652933546959616,1.0327916380560005
1688152513048451,0.02777141985198739,0.007995727473868897,1.0314488441290912
1688152513064428,0.029480430304417382,0.00836194399938961,1.0321812771801326
1688152513080406,0.028870069428549527,0.006775005722133187,1.0348668650339512
1688152513096383,0.02935835812924381,0.007385366598001042,1.035233081559472
1688152513112361,0.02789349202716096,0.008850232700083893,1.031204699778744
1688152513128338,0.029602502479590953,0.00848401617456318,1.0325474937056534
1688152513144287,0.030090791180285237,0.007263294422827471,1.0321812771801326
1688152513160264,0.02923628595407024,0.006286717021438903,1.032059205004959
1688152513176241,0.025940337224383825,0.009582665751125319,1.034622720683604
1688152513192219,0.029968719005111666,0.009094377050431035,1.0316929884794384
1688152513208196,0.030945296406500233,0.007019150072480329,1.0327916380560005
1688152513224174,0.0289921416037231,0.0060425726710917615,1.033768215457389
1688152513240151,0.02777141985198739,0.009216449225604606,1.032059205004959
1688152513256128,0.0289921416037231,0.009460593575951748,1.0319371328297855
1688152513272106,0.02923628595407024,0.005188067444876765,1.0327916380560005
1688152513288083,0.03033493553063238,0.0071412222476539,1.0340123598077362
1688152513304061,0.028259708552681673,0.008728160524910322,1.0314488441290912
1688152513320038,0.027649347676813818,0.008728160524910322,1.0302281223773555
1688152513336015,0.03033493553063238,0.00457770656900891,1.0336461432822155
1688152513351993,0.03070115205615309,0.0060425726710917615,1.032913710231174
1688152513367970,0.02801556420233453,0.010437170977340315,1.0330357824063476
1688152513383947,0.028381780727855244,0.00970473792629889,1.0299839780270084
1688152513399925,0.029968719005111666,0.0060425726710917615,1.0331578545815212
1688152513415902,0.029480430304417382,0.006897077897306758,1.0348668650339512
1688152513431880,0.027405203326466676,0.009094377050431035,1.033524071107042
1688152513447857,0.028259708552681673,0.009460593575951748,1.0324254215304798
1688152513463775,0.031311512932020946,0.00579842832074462,1.0321812771801326
1688152513479752,0.030212863355458808,0.006897077897306758,1.034378576333257
1688152513495729,0.02789349202716096,0.008850232700083893,1.0316929884794384
1688152513511706,0.028137636377508102,0.010315098802166744,1.0327916380560005
1688152513527683,0.030212863355458808,0.007263294422827471,1.035233081559472
1688152513543660,0.029602502479590953,0.006775005722133187,1.033768215457389
1688152513559637,0.028625925078202386,0.008239871824216038,1.032669565880827
1688152513575614,0.027405203326466676,0.008972304875257464,1.0315709163042648
1688152513591591,0.03033493553063238,0.006897077897306758,1.0323033493553062
1688152513607567,0.03045700770580595,0.0061646448462653325,1.0342565041580833
1688152513623544,0.02789349202716096,0.008606088349736751,1.0310826276035705
1688152513639521,0.02642862592507811,0.008117799649042468,1.0290074006256198
1688152513655498,0.028625925078202386,0.0071412222476539,1.030350194552529
1688152513671475,0.030090791180285237,0.0040894178683146265,1.0348668650339512
1688152513687452,0.02777141985198739,0.007873655298695326,1.0314488441290912
1688152513703429,0.027283131151293105,0.009460593575951748,1.0307164110780498
1688152513719406,0.0319218738078888,0.006652933546959616,1.0325474937056534
1688152513735383,0.030945296406500233,0.006530861371786045,1.035233081559472
1688152513751360,0.028381780727855244,0.00836194399938961,1.0321812771801326
1688152513767336,0.025818265049210254,0.008606088349736751,1.0313267719539176
1688152513783294,0.02911421377889667,0.006408789196612474,1.031815060654612
1688152513799271,0.03057907988097952,0.00579842832074462,1.031815060654612
1688152513815248,0.029480430304417382,0.009094377050431035,1.0319371328297855
1688152513831225,0.028381780727855244,0.010315098802166744,1.031815060654612
1688152513847202,0.029724574654764524,0.007507438773174613,1.0325474937056534
1688152513863179,0.03143358510719452,0.006897077897306758,1.0330357824063476
1688152513879156,0.03033493553063238,0.008972304875257464,1.0308384832532234
1688152513895133,0.028747997253375956,0.010315098802166744,1.0304722667277026
1688152513911110,0.03057907988097952,0.006775005722133187,1.032913710231174
1688152513927086,0.03033493553063238,0.006530861371786045,1.0338902876325626
1688152513943063,0.027283131151293105,0.008728160524910322,1.035233081559472
1688152513959040,0.026184481574730967,0.00970473792629889,1.032913710231174
1688152513975017,0.02777141985198739,0.0060425726710917615,1.030960555428397
1688152513990994,0.02923628595407024,0.005065995269703194,1.0315709163042648
1688152514006971,0.026306553749904538,0.00836194399938961,1.0330357824063476
1688152514022948,0.026184481574730967,0.00982681010147246,1.032669565880827
1688152514038925,0.02923628595407024,0.007385366598001042,1.0315709163042648
1688152514054902,0.03289845120927737,0.004821850919356052,1.0338902876325626
1688152514070879,0.028503852903028815,0.007263294422827471,1.0347447928587776
1688152514086856,0.02789349202716096,0.008972304875257464,1.0279087510490577
1688152514102783,0.030212863355458808,0.006408789196612474,1.0251010910200655
1688152514118760,0.029968719005111666,0.005188067444876765,1.0324254215304798
1688152514134737,0.030823224231326662,0.007263294422827471,1.0285191119249255
1688152514150714,0.028747997253375956,0.009094377050431035,1.0315709163042648
1688152514166690,0.02935835812924381,0.008117799649042468,1.0304722667277026
1688152514182667,0.031067368581673804,0.005310139620050336,1.035477225909819
1688152514198644,0.028503852903028815,0.008239871824216038,1.034378576333257
1688152514214621,0.02532997634851597,0.009582665751125319,1.0330357824063476
1688152514230598,0.028503852903028815,0.0071412222476539,1.0338902876325626
1688152514246575,0.030945296406500233,0.005676356145571049,1.0345006485084305
1688152514262552,0.02923628595407024,0.006897077897306758,1.0310826276035705
1688152514278529,0.027161058976119534,0.009094377050431035,1.0302281223773555
1688152514294506,0.028747997253375956,0.007385366598001042,1.0305943389028762
1688152514310483,0.03179980163271523,0.0061646448462653325,1.0331578545815212
1688152514326460,0.028870069428549527,0.006286717021438903,1.0321812771801326
1688152514342436,0.02679484245059882,0.008728160524910322,1.031815060654612
1688152514358413,0.02801556420233453,0.006530861371786045,1.032059205004959
1688152514374390,0.031189440756847375,0.005188067444876765,1.0341344319829098
1688152514390367,0.029602502479590953,0.00848401617456318,1.034378576333257
1688152514406344,0.02642862592507811,0.010803387502861028,1.032059205004959
1688152514422332,0.029602502479590953,0.00836194399938961,1.032913710231174
1688152514438309,0.03033493553063238,0.006530861371786045,1.034622720683604
1688152514454286,0.02789349202716096,0.005920500495918191,1.0332799267566948
1688152514470263,0.026184481574730967,0.008728160524910322,1.0313267719539176
1688152514486240,0.028381780727855244,0.007263294422827471,1.0314488441290912
1688152514502217,0.031189440756847375,0.0061646448462653325,1.0341344319829098
1688152514518194,0.028625925078202386,0.006897077897306758,1.0368200198367283
1688152514534171,0.027038986800945963,0.00982681010147246,1.030106050202182
1688152514550148,0.028137636377508102,0.009094377050431035,1.0287632562752727
1688152514566125,0.031189440756847375,0.0037232013427939137,1.0327916380560005
1688152514582101,0.030823224231326662,0.00579842832074462,1.0327916380560005
1688152514598078,0.028259708552681673,0.008728160524910322,1.029251544975967
1688152514614055,0.02777141985198739,0.007385366598001042,1.0285191119249255
1688152514630032,0.028870069428549527,0.0039673456931410556,1.033524071107042
1688152514646009,0.028870069428549527,0.0071412222476539,1.034378576333257
1688152514661986,0.028137636377508102,0.010193026626993174,1.0316929884794384
1688152514677963,0.028259708552681673,0.008850232700083893,1.030350194552529
1688152514693940,0.030823224231326662,0.005065995269703194,1.0347447928587776
1688152514709917,0.028870069428549527,0.0060425726710917615,1.036087586785687
1688152514725894,0.027405203326466676,0.009216449225604606,1.030960555428397
1688152514741851,0.02667277027542525,0.00848401617456318,1.0324254215304798
1688152514757828,0.031067368581673804,0.006286717021438903,1.0332799267566948
1688152514773804,0.029724574654764524,0.006652933546959616,1.0357213702601662
1688152514789781,0.026916914625772392,0.008728160524910322,1.0331578545815212
1688152514805757,0.028259708552681673,0.007263294422827471,1.030106050202182
1688152514821734,0.03057907988097952,0.005065995269703194,1.035233081559472
1688152514837710,0.030090791180285237,0.005920500495918191,1.0327916380560005
1688152514853686,0.02642862592507811,0.010070954451819603,1.032913710231174
1688152514869663,0.026916914625772392,0.009094377050431035,1.0297398336766612
1688152514885639,0.031067368581673804,0.005554283970397478,1.0359655146105133
1688152514901616,0.031067368581673804,0.007751583123521755,1.034378576333257
1688152514917592,0.027038986800945963,0.009094377050431035,1.033524071107042
1688152514933569,0.02777141985198739,0.010681315327687457,1.0308384832532234
1688152514949545,0.030945296406500233,0.006652933546959616,1.031815060654612
1688152514965521,0.029724574654764524,0.005432211795223907,1.0353551537346455
1688152514981498,0.02667277027542525,0.009338521400778177,1.0323033493553062
1688152514997474,0.027649347676813818,0.010193026626993174,1.0305943389028762
1688152515013451,0.030823224231326662,0.006286717021438903,1.032913710231174
1688152515029427,0.03045700770580595,0.0061646448462653325,1.0338902876325626
1688152515045404,0.027649347676813818,0.008728160524910322,1.0302281223773555
1688152515061370,0.027649347676813818,0.009338521400778177,1.0276646066987105
1688152515077347,0.029724574654764524,0.005432211795223907,1.0332799267566948
1688152515093323,0.03045700770580595,0.0071412222476539,1.032669565880827
1688152515109300,0.026916914625772392,0.008972304875257464,1.0315709163042648
1688152515125276,0.027038986800945963,0.009948882276646032,1.0315709163042648
1688152515141253,0.03045700770580595,0.006286717021438903,1.034378576333257
1688152515157229,0.03057907988097952,0.005310139620050336,1.034378576333257
1688152515173205,0.027405203326466676,0.009338521400778177,1.0347447928587776
1688152515189182,0.028381780727855244,0.010070954451819603,1.0332799267566948
1688152515205158,0.031189440756847375,0.005310139620050336,1.030106050202182
1688152515221135,0.03179980163271523,0.006652933546959616,1.0321812771801326
1688152515237111,0.02911421377889667,0.007019150072480329,1.0325474937056534
1688152515253088,0.027161058976119534,0.00848401617456318,1.031815060654612
1688152515269064,0.030212863355458808,0.0061646448462653325,1.0315709163042648
1688152515285040,0.030945296406500233,0.007019150072480329,1.033524071107042
1688152515301017,0.028259708552681673,0.00848401617456318,1.032669565880827
1688152515316993,0.028503852903028815,0.009094377050431035,1.031815060654612
1688152515332970,0.029602502479590953,0.005310139620050336,1.032913710231174
1688152515348946,0.03033493553063238,0.006530861371786045,1.0338902876325626
1688152515364923,0.028870069428549527,0.00982681010147246,1.0338902876325626
1688152515380890,0.027038986800945963,0.00970473792629889,1.031204699778744
1688152515396866,0.02923628595407024,0.006530861371786045,1.0302281223773555
1688152515412842,0.03045700770580595,0.005432211795223907,1.0340123598077362
1688152515428819,0.02801556420233453,0.008239871824216038,1.0340123598077362
1688152515444795,0.027649347676813818,0.009094377050431035,1.0310826276035705
1688152515460772,0.029846646829938095,0.005676356145571049,1.0314488441290912
1688152515476748,0.03045700770580595,0.004943923094529623,1.0334019989318683
1688152515492725,0.02789349202716096,0.008972304875257464,1.0332799267566948
1688152515508701,0.028259708552681673,0.008850232700083893,1.0298619058518348
1688152515524677,0.027527275501640247,0.006897077897306758,1.033768215457389
1688152515540654,0.029968719005111666,0.005554283970397478,1.0323033493553062
1688152515556630,0.0289921416037231,0.007507438773174613,1.034378576333257
1688152515572607,0.02667277027542525,0.010193026626993174,1.0327916380560005
1688152515588583,0.03045700770580595,0.007385366598001042,1.0340123598077362
1688152515604560,0.03057907988097952,0.005676356145571049,1.0365758754863812
1688152515620536,0.027649347676813818,0.0071412222476539,1.032913710231174
1688152515636512,0.02789349202716096,0.009216449225604606,1.0291294728007934
1688152515652489,0.02801556420233453,0.006897077897306758,1.0327916380560005
1688152515668465,0.03070115205615309,0.0060425726710917615,1.0327916380560005
1688152515684442,0.030212863355458808,0.007385366598001042,1.0327916380560005
1688152515700409,0.02642862592507811,0.010193026626993174,1.0299839780270084
1688152515716385,0.02789349202716096,0.007751583123521755,1.0349889372091248
1688152515732361,0.029968719005111666,0.006408789196612474,1.035477225909819
1688152515748338,0.028137636377508102,0.00836194399938961,1.0347447928587776
1688152515764314,0.027405203326466676,0.009460593575951748,1.0308384832532234
1688152515780291,0.028870069428549527,0.007751583123521755,1.030960555428397
1688152515796267,0.02935835812924381,0.006897077897306758,1.033524071107042
1688152515812244,0.028381780727855244,0.007507438773174613,1.0308384832532234
1688152515828220,0.02789349202716096,0.009582665751125319,1.030960555428397
1688152515844196,0.028747997253375956,0.007385366598001042,1.030960555428397
1688152515860173,0.031067368581673804,0.006408789196612474,1.0321812771801326
1688152515876149,0.02923628595407024,0.007995727473868897,1.0334019989318683
1688152515892126,0.028137636377508102,0.00982681010147246,1.0323033493553062
1688152515908102,0.028747997253375956,0.008728160524910322,1.0321812771801326
1688152515924079,0.029968719005111666,0.005065995269703194,1.0319371328297855
1688152515940055,0.02935835812924381,0.007385366598001042,1.0334019989318683
1688152515956031,0.026062409399557396,0.00848401617456318,1.0315709163042648
1688152515972008,0.028747997253375956,0.007507438773174613,1.0307164110780498
1688152515987984,0.03070115205615309,0.005065995269703194,1.0313267719539176
1688152516003961,0.03045700770580595,0.0061646448462653325,1.0324254215304798
1688152516019928,0.02655069810025168,0.00970473792629889,1.032669565880827
1688152516035904,0.028747997253375956,0.009582665751125319,1.0338902876325626
1688152516051880,0.028870069428549527,0.006775005722133187,1.0330357824063476
1688152516067857,0.02911421377889667,0.006408789196612474,1.0359655146105133
1688152516083833,0.02777141985198739,0.009948882276646032,1.031204699778744
1688152516099810,0.029480430304417382,0.008239871824216038,1.0302281223773555
1688152516115786,0.03033493553063238,0.004699778744182481,1.0307164110780498
1688152516131763,0.028625925078202386,0.007629510948348184,1.0332799267566948
1688152516147739,0.027038986800945963,0.0109254596780346,1.030350194552529
1688152516163715,0.02911421377889667,0.008850232700083893,1.0336461432822155
1688152516179692,0.03179980163271523,0.006286717021438903,1.033524071107042
1688152516195668,0.03057907988097952,0.008117799649042468,1.0348668650339512
1688152516211645,0.027161058976119534,0.009582665751125319,1.0308384832532234
1688152516227621,0.02923628595407024,0.008728160524910322,1.029495689326314
1688152516243598,0.03143358510719452,0.005676356145571049,1.0332799267566948
1688152516259574,0.030090791180285237,0.0061646448462653325,1.032913710231174
1688152516275550,0.027527275501640247,0.00970473792629889,1.030960555428397
1688152516291527,0.029724574654764524,0.009460593575951748,1.0313267719539176
1688152516307503,0.031067368581673804,0.005432211795223907,1.0319371328297855
1688152516323480,0.029968719005111666,0.007385366598001042,1.0348668650339512
1688152516339447,0.026306553749904538,0.009338521400778177,1.0313267719539176
1688152516355423,0.028503852903028815,0.009216449225604606,1.030960555428397
1688152516371400,0.0319218738078888,0.0061646448462653325,1.0332799267566948
1688152516387376,0.030212863355458808,0.0071412222476539,1.0324254215304798
1688152516403352,0.027161058976119534,0.009216449225604606,1.0302281223773555
1688152516419329,0.027527275501640247,0.00848401617456318,1.0315709163042648
1688152516435305,0.031067368581673804,0.005065995269703194,1.0323033493553062
1688152516451282,0.03070115205615309,0.006897077897306758,1.033768215457389
1688152516467258,0.027649347676813818,0.00982681010147246,1.0313267719539176
1688152516483235,0.02911421377889667,0.009948882276646032,1.0298619058518348
1688152516499211,0.030823224231326662,0.006775005722133187,1.0336461432822155
1688152516515187,0.031067368581673804,0.006897077897306758,1.033768215457389
1688152516531164,0.027405203326466676,0.008972304875257464,1.0316929884794384
1688152516547140,0.02777141985198739,0.007385366598001042,1.0302281223773555
1688152516563117,0.03167772945754166,0.004943923094529623,1.0336461432822155
1688152516579093,0.03057907988097952,0.004699778744182481,1.0323033493553062
1688152516595070,0.026916914625772392,0.010193026626993174,1.0323033493553062
1688152516611046,0.027405203326466676,0.009094377050431035,1.0299839780270084
1688152516627022,0.03167772945754166,0.005676356145571049,1.0302281223773555
1688152516642999,0.030212863355458808,0.00579842832074462,1.0334019989318683
1688152516658966,0.02642862592507811,0.008606088349736751,1.0304722667277026
1688152516674942,0.02923628595407024,0.009094377050431035,1.0299839780270084
1688152516690919,0.03143358510719452,0.005920500495918191,1.0313267719539176
1688152516706895,0.03057907988097952,0.004943923094529623,1.034378576333257
1688152516722871,0.027283131151293105,0.008606088349736751,1.0314488441290912
1688152516738848,0.02642862592507811,0.00982681010147246,1.0298619058518348
1688152516754824,0.031189440756847375,0.005310139620050336,1.0324254215304798
1688152516770801,0.030823224231326662,0.005676356145571049,1.032913710231174
1688152516786777,0.0289921416037231,0.009216449225604606,1.0323033493553062
1688152516802754,0.028747997253375956,0.008728160524910322,1.0323033493553062
1688152516818730,0.030945296406500233,0.006408789196612474,1.032913710231174
1688152516834706,0.03216601815823594,0.00579842832074462,1.0341344319829098
1688152516850683,0.029480430304417382,0.008972304875257464,1.033768215457389
1688152516866659,0.026062409399557396,0.010559243152513886,1.0288853284504462
1688152516882636,0.03070115205615309,0.006775005722133187,1.0297398336766612
1688152516898612,0.031189440756847375,0.00457770656900891,1.0336461432822155
1688152516914589,0.028870069428549527,0.009338521400778177,1.033524071107042
1688152516930565,0.0289921416037231,0.010559243152513886,1.0315709163042648
1688152516946541,0.030212863355458808,0.007507438773174613,1.0314488441290912
1688152516962518,0.031189440756847375,0.005676356145571049,1.0342565041580833
1688152516978485,0.028259708552681673,0.00848401617456318,1.0334019989318683
1688152516994461,0.026062409399557396,0.010315098802166744,1.0316929884794384
1688152517010438,0.03143358510719452,0.006286717021438903,1.0313267719539176
1688152517026414,0.030945296406500233,0.0042114900434881974,1.0347447928587776
1688152517042390,0.028259708552681673,0.009094377050431035,1.0327916380560005
1688152517058367,0.028381780727855244,0.010070954451819603,1.0293736171511405
1688152517074343,0.02935835812924381,0.006897077897306758,1.032669565880827
1688152517090320,0.03204394598306237,0.004821850919356052,1.0321812771801326
1688152517106296,0.02789349202716096,0.007629510948348184,1.0325474937056534
1688152517122273,0.02642862592507811,0.010070954451819603,1.0307164110780498
1688152517138249,0.029846646829938095,0.008239871824216038,1.0316929884794384
1688152517154225,0.029846646829938095,0.005554283970397478,1.033524071107042
1688152517170202,0.028137636377508102,0.008239871824216038,1.0314488441290912
1688152517186178,0.02667277027542525,0.009338521400778177,1.0321812771801326
1688152517202155,0.0289921416037231,0.007507438773174613,1.0325474937056534
1688152517218131,0.03143358510719452,0.00579842832074462,1.032669565880827
1688152517234108,0.028870069428549527,0.006775005722133187,1.0332799267566948
1688152517250084,0.02667277027542525,0.009094377050431035,1.0319371328297855
1688152517266060,0.029724574654764524,0.008239871824216038,1.0285191119249255
1688152517282037,0.033630884260318794,0.005432211795223907,1.0338902876325626
1688152517298004,0.0289921416037231,0.006652933546959616,1.0313267719539176
1688152517313980,0.02667277027542525,0.009094377050431035,1.0319371328297855
1688152517329957,0.029846646829938095,0.008117799649042468,1.033768215457389
1688152517345933,0.03216601815823594,0.005188067444876765,1.0316929884794384
1688152517361909,0.03070115205615309,0.007263294422827471,1.0334019989318683
1688152517377886,0.027649347676813818,0.010070954451819603,1.029495689326314
1688152517393862,0.029724574654764524,0.008728160524910322,1.030350194552529
1688152517409839,0.030945296406500233,0.006652933546959616,1.0334019989318683
1688152517425815,0.029968719005111666,0.006652933546959616,1.0323033493553062
1688152517441792,0.028381780727855244,0.009094377050431035,1.0313267719539176
1688152517457768,0.02911421377889667,0.006775005722133187,1.031204699778744
1688152517473744,0.03143358510719452,0.004943923094529623,1.0340123598077362
1688152517489721,0.029968719005111666,0.007629510948348184,1.0321812771801326
1688152517505697,0.029602502479590953,0.010681315327687457,1.030106050202182
1688152517521674,0.03045700770580595,0.009216449225604606,1.0315709163042648
1688152517537650,0.03143358510719452,0.005676356145571049,1.0321812771801326
1688152517553627,0.028747997253375956,0.006897077897306758,1.0327916380560005
1688152517569603,0.02801556420233453,0.008239871824216038,1.0307164110780498
1688152517585579,0.029846646829938095,0.008606088349736751,1.0316929884794384
1688152517601556,0.0319218738078888,0.006408789196612474,1.0345006485084305
1688152517617523,0.03045700770580595,0.007507438773174613,1.0341344319829098
1688152517633499,0.02655069810025168,0.008850232700083893,1.030960555428397
1688152517649476,0.028259708552681673,0.007385366598001042,1.030350194552529
1688152517665452,0.031067368581673804,0.006897077897306758,1.0334019989318683
1688152517681429,0.028503852903028815,0.007629510948348184,1.0323033493553062
1688152517697405,0.02777141985198739,0.009094377050431035,1.0305943389028762
1688152517713381,0.030212863355458808,0.009094377050431035,1.0308384832532234
1688152517729358,0.03167772945754166,0.007751583123521755,1.030106050202182
1688152517745334,0.030212863355458808,0.006286717021438903,1.0305943389028762
1688152517761311,0.027649347676813818,0.009094377050431035,1.0310826276035705
1688152517777287,0.02801556420233453,0.007873655298695326,1.0313267719539176
1688152517793264,0.03179980163271523,0.005432211795223907,1.0330357824063476
1688152517809240,0.028625925078202386,0.006530861371786045,1.0332799267566948
1688152517825216,0.025940337224383825,0.010193026626993174,1.0316929884794384
1688152517841193,0.02923628595407024,0.009216449225604606,1.0323033493553062
1688152517857169,0.03167772945754166,0.007629510948348184,1.034622720683604
1688152517873146,0.03070115205615309,0.007263294422827471,1.032913710231174
1688152517889122,0.026062409399557396,0.009338521400778177,1.0298619058518348
1688152517905099,0.028870069428549527,0.008850232700083893,1.0307164110780498
1688152517921075,0.03070115205615309,0.004333562218661768,1.0342565041580833
1688152517937042,0.03045700770580595,0.006897077897306758,1.0334019989318683
1688152517953018,0.02777141985198739,0.007873655298695326,1.0314488441290912
1688152517968995,0.028503852903028815,0.007629510948348184,1.0316929884794384
1688152517984971,0.029724574654764524,0.005310139620050336,1.0324254215304798
1688152518000948,0.030212863355458808,0.007385366598001042,1.0336461432822155
1688152518016924,0.02679484245059882,0.008972304875257464,1.0314488441290912
1688152518032900,0.027405203326466676,0.009338521400778177,1.0307164110780498
1688152518048877,0.03167772945754166,0.005676356145571049,1.032669565880827
1688152518064853,0.029724574654764524,0.006775005722133187,1.0316929884794384
1688152518080830,0.027283131151293105,0.00970473792629889,1.0297398336766612
1688152518096806,0.026916914625772392,0.008728160524910322,1.0313267719539176
1688152518112783,0.03033493553063238,0.004455634393835339,1.0330357824063476
1688152518128759,0.03033493553063238,0.005432211795223907,1.0332799267566948
1688152518144735,0.027161058976119534,0.008972304875257464,1.0323033493553062
1688152518160712,0.02935835812924381,0.009460593575951748,1.0323033493553062
1688152518176688,0.03155565728236809,0.005188067444876765,1.0331578545815212
1688152518192665,0.03204394598306237,0.00457770656900891,1.0342565041580833
1688152518208641,0.030090791180285237,0.010070954451819603,1.032059205004959
1688152518224618,0.027527275501640247,0.009582665751125319,1.032669565880827
1688152518240594,0.03045700770580595,0.006286717021438903,1.0324254215304798
1688152518256561,0.03143358510719452,0.007019150072480329,1.033768215457389
1688152518272537,0.027649347676813818,0.010070954451819603,1.030960555428397
1688152518288514,0.02789349202716096,0.008972304875257464,1.0302281223773555
1688152518304490,0.029724574654764524,0.005676356145571049,1.030960555428397
1688152518320467,0.030823224231326662,0.0061646448462653325,1.032913710231174
1688152518336443,0.02777141985198739,0.009460593575951748,1.0330357824063476
1688152518352419,0.02935835812924381,0.00970473792629889,1.0302281223773555
1688152518368396,0.030945296406500233,0.007629510948348184,1.0331578545815212
1688152518384372,0.029846646829938095,0.007507438773174613,1.0338902876325626
1688152518400349,0.027283131151293105,0.007629510948348184,1.0313267719539176
1688152518416325,0.026306553749904538,0.009338521400778177,1.0340123598077362
1688152518432302,0.02923628595407024,0.007385366598001042,1.033524071107042
1688152518448278,0.030945296406500233,0.005676356145571049,1.0348668650339512
1688152518464254,0.02777141985198739,0.008972304875257464,1.0325474937056534
1688152518480231,0.02789349202716096,0.011657892729076025,1.0308384832532234
1688152518496207,0.030212863355458808,0.007263294422827471,1.0327916380560005
1688152518512184,0.03070115205615309,0.006897077897306758,1.0321812771801326
1688152518528160,0.028259708552681673,0.010803387502861028,1.0319371328297855
1688152518544137,0.028137636377508102,0.010437170977340315,1.0323033493553062
1688152518560113,0.028625925078202386,0.007507438773174613,1.0325474937056534
1688152518576049,0.030945296406500233,0.006897077897306758,1.0341344319829098
1688152518592025,0.02923628595407024,0.00836194399938961,1.031815060654612
1688152518608001,0.027649347676813818,0.00836194399938961,1.0334019989318683
1688152518623977,0.03143358510719452,0.0061646448462653325,1.0307164110780498
1688152518639953,0.03167772945754166,0.00457770656900891,1.0330357824063476
1688152518655929,0.028503852903028815,0.008239871824216038,1.032669565880827
1688152518671905,0.028503852903028815,0.009460593575951748,1.0310826276035705
1688152518687881,0.031067368581673804,0.007385366598001042,1.0315709163042648
1688152518703857,0.03167772945754166,0.006408789196612474,1.0330357824063476
1688152518719833,0.028381780727855244,0.00836194399938961,1.032059205004959
1688152518735809,0.029480430304417382,0.009460593575951748,1.0321812771801326
1688152518751785,0.02923628595407024,0.007995727473868897,1.0323033493553062
1688152518767761,0.029846646829938095,0.005432211795223907,1.032913710231174
1688152518783737,0.028381780727855244,0.00836194399938961,1.034378576333257
1688152518799713,0.025940337224383825,0.009216449225604606,1.032059205004959
1688152518815689,0.02935835812924381,0.007263294422827471,1.035233081559472
1688152518831665,0.029968719005111666,0.006286717021438903,1.0351110093842983
1688152518847641,0.027649347676813818,0.008972304875257464,1.0341344319829098
1688152518863617,0.027405203326466676,0.010193026626993174,1.0290074006256198
1688152518879593,0.029480430304417382,0.007385366598001042,1.0314488441290912
1688152518895568,0.029724574654764524,0.004821850919356052,1.0349889372091248
1688152518911544,0.028503852903028815,0.009338521400778177,1.0315709163042648
1688152518927520,0.027161058976119534,0.010437170977340315,1.0305943389028762
1688152518943496,0.028259708552681673,0.007995727473868897,1.032669565880827
1688152518959472,0.031189440756847375,0.005188067444876765,1.036087586785687
1688152518975448,0.02923628595407024,0.008606088349736751,1.0365758754863812
1688152518991424,0.02679484245059882,0.009948882276646032,1.0314488441290912
1688152519007400,0.030090791180285237,0.008239871824216038,1.0331578545815212
1688152519023376,0.0319218738078888,0.005065995269703194,1.0330357824063476
1688152519039352,0.03045700770580595,0.008117799649042468,1.0321812771801326
1688152519055328,0.027649347676813818,0.009338521400778177,1.033768215457389
1688152519071304,0.027405203326466676,0.007385366598001042,1.0336461432822155
1688152519087280,0.03033493553063238,0.005065995269703194,1.0332799267566948
1688152519103256,0.030090791180285237,0.007873655298695326,1.034378576333257
1688152519119232,0.027405203326466676,0.009948882276646032,1.0313267719539176
1688152519135208,0.028137636377508102,0.007751583123521755,1.031815060654612
1688152519151184,0.029602502479590953,0.005676356145571049,1.032913710231174
1688152519167160,0.030090791180285237,0.007385366598001042,1.0330357824063476
1688152519183136,0.02801556420233453,0.009338521400778177,1.031815060654612
1688152519199112,0.028503852903028815,0.008850232700083893,1.0304722667277026
1688152519215088,0.029480430304417382,0.006408789196612474,1.036331731136034
1688152519231063,0.028503852903028815,0.007019150072480329,1.0323033493553062
1688152519247039,0.027527275501640247,0.009094377050431035,1.029495689326314
1688152519263015,0.028137636377508102,0.009460593575951748,1.0323033493553062
1688152519278991,0.02935835812924381,0.005920500495918191,1.0332799267566948
1688152519294967,0.027283131151293105,0.007995727473868897,1.032669565880827
1688152519310943,0.026184481574730967,0.009582665751125319,1.0325474937056534
1688152519326919,0.027161058976119534,0.006652933546959616,1.032669565880827
1688152519342895,0.03057907988097952,0.005310139620050336,1.0319371328297855
1688152519358871,0.03057907988097952,0.00579842832074462,1.034622720683604
1688152519374847,0.027527275501640247,0.011291676203555312,1.0314488441290912
1688152519390823,0.02777141985198739,0.00848401617456318,1.0330357824063476
1688152519406799,0.031067368581673804,0.005065995269703194,1.0336461432822155
1688152519422775,0.029602502479590953,0.007263294422827471,1.035233081559472
1688152519438751,0.02923628595407024,0.011291676203555312,1.0336461432822155
1688152519454727,0.0289921416037231,0.008606088349736751,1.0331578545815212
1688152519470703,0.030823224231326662,0.006408789196612474,1.032913710231174
1688152519486679,0.02789349202716096,0.006775005722133187,1.033524071107042
1688152519502655,0.026306553749904538,0.009582665751125319,1.0308384832532234
1688152519518631,0.027527275501640247,0.007995727473868897,1.031815060654612
1688152519534607,0.030090791180285237,0.005432211795223907,1.034622720683604
1688152519550583,0.029968719005111666,0.007507438773174613,1.0342565041580833
1688152519566558,0.02667277027542525,0.00970473792629889,1.0305943389028762
1688152519582534,0.028503852903028815,0.008117799649042468,1.0291294728007934
1688152519598510,0.03167772945754166,0.006775005722133187,1.0325474937056534
1688152519614486,0.03265430685893023,0.007629510948348184,1.0316929884794384
1688152519630462,0.028870069428549527,0.008606088349736751,1.0327916380560005
1688152519646438,0.027405203326466676,0.007629510948348184,1.0313267719539176
1688152519662414,0.03057907988097952,0.004943923094529623,1.0332799267566948
1688152519678390,0.03070115205615309,0.005310139620050336,1.034378576333257
1688152519694366,0.028625925078202386,0.009582665751125319,1.0325474937056534
1688152519710342,0.02801556420233453,0.007995727473868897,1.033524071107042
1688152519726318,0.03143358510719452,0.005554283970397478,1.0348668650339512
1688152519742294,0.029602502479590953,0.007019150072480329,1.0351110093842983
1688152519758270,0.028137636377508102,0.011169604028381741,1.0310826276035705
1688152519774246,0.028259708552681673,0.008117799649042468,1.032669565880827
1688152519790222,0.032410162508583085,0.0061646448462653325,1.0324254215304798
1688152519806198,0.03045700770580595,0.0061646448462653325,1.031815060654612
1688152519822174,0.027283131151293105,0.008972304875257464,1.031204699778744
1688152519838150,0.027038986800945963,0.007995727473868897,1.0336461432822155
1688152519854126,0.030945296406500233,0.004699778744182481,1.0348668650339512
1688152519870102,0.03204394598306237,0.006775005722133187,1.0345006485084305
1688152519886078,0.028259708552681673,0.007995727473868897,1.031204699778744
1688152519902053,0.027038986800945963,0.007385366598001042,1.0308384832532234
1688152519918029,0.029480430304417382,0.00579842832074462,1.0349889372091248
1688152519934005,0.03057907988097952,0.006652933546959616,1.0349889372091248
1688152519949981,0.02911421377889667,0.009216449225604606,1.0316929884794384
1688152519965957,0.02801556420233453,0.008972304875257464,1.030960555428397
1688152519981933,0.02923628595407024,0.004821850919356052,1.0315709163042648
1688152519997909,0.028259708552681673,0.004333562218661768,1.0323033493553062
1688152520013885,0.027405203326466676,0.007629510948348184,1.0330357824063476
1688152520029861,0.027161058976119534,0.010193026626993174,1.030350194552529
1688152520045837,0.03033493553063238,0.007385366598001042,1.033524071107042
1688152520061813,0.030090791180285237,0.006897077897306758,1.0331578545815212
1688152520077789,0.026916914625772392,0.009216449225604606,1.0313267719539176
1688152520093765,0.02679484245059882,0.008606088349736751,1.0315709163042648
1688152520109741,0.03057907988097952,0.0071412222476539,1.032669565880827
1688152520125717,0.03155565728236809,0.005554283970397478,1.034622720683604
1688152520141693,0.028747997253375956,0.008239871824216038,1.031204699778744
1688152520157669,0.026916914625772392,0.008117799649042468,1.0299839780270084
1688152520173645,0.02923628595407024,0.006652933546959616,1.0291294728007934
1688152520189621,0.032288090333409514,0.0061646448462653325,1.0341344319829098
1688152520205597,0.0289921416037231,0.009948882276646032,1.032059205004959
1688152520221573,0.027405203326466676,0.010193026626993174,1.0314488441290912
1688152520237548,0.029602502479590953,0.007263294422827471,1.0307164110780498
1688152520253524,0.03070115205615309,0.00579842832074462,1.0330357824063476
1688152520269500,0.02935835812924381,0.00970473792629889,1.0323033493553062
1688152520285476,0.025940337224383825,0.0109254596780346,1.0314488441290912
1688152520301452,0.028870069428549527,0.006652933546959616,1.032669565880827
1688152520317428,0.029846646829938095,0.005676356145571049,1.033524071107042
1688152520333404,0.027283131151293105,0.00848401617456318,1.033524071107042
1688152520349380,0.027405203326466676,0.00982681010147246,1.0305943389028762
1688152520365356,0.030090791180285237,0.009216449225604606,1.0325474937056534
1688152520381332,0.03143358510719452,0.005310139620050336,1.0340123598077362
1688152520397308,0.027038986800945963,0.007019150072480329,1.0297398336766612
1688152520413284,0.025940337224383825,0.008728160524910322,1.0302281223773555
1688152520429260,0.028870069428549527,0.0071412222476539,1.0321812771801326
1688152520445236,0.030823224231326662,0.006775005722133187,1.0327916380560005
1688152520461212,0.02923628595407024,0.007873655298695326,1.0321812771801326
1688152520477188,0.025818265049210254,0.009338521400778177,1.0316929884794384
1688152520493164,0.029968719005111666,0.006652933546959616,1.029251544975967
1688152520509140,0.031067368581673804,0.006775005722133187,1.036331731136034
1688152520525116,0.03033493553063238,0.00836194399938961,1.032669565880827
1688152520541092,0.02911421377889667,0.00982681010147246,1.031204699778744
1688152520557067,0.0289921416037231,0.00836194399938961,1.0297398336766612
1688152520573043,0.031067368581673804,0.005676356145571049,1.0341344319829098
1688152520589019,0.029846646829938095,0.008728160524910322,1.0341344319829098
1688152520604995,0.02777141985198739,0.00982681010147246,1.0313267719539176
1688152520620971,0.028625925078202386,0.006286717021438903,1.0331578545815212
1688152520636947,0.028381780727855244,0.005188067444876765,1.0334019989318683
1688152520652923,0.028381780727855244,0.0071412222476539,1.0330357824063476
1688152520668899,0.028259708552681673,0.008850232700083893,1.032059205004959
1688152520684875,0.028259708552681673,0.007263294422827471,1.0332799267566948
1688152520700851,0.030945296406500233,0.005188067444876765,1.0342565041580833
1688152520716827,0.028747997253375956,0.007995727473868897,1.0347447928587776
1688152520732803,0.027405203326466676,0.010193026626993174,1.0297398336766612
1688152520748779,0.029968719005111666,0.008850232700083893,1.0315709163042648
1688152520764755,0.03167772945754166,0.005065995269703194,1.0330357824063476
1688152520780731,0.029480430304417382,0.006652933546959616,1.033524071107042
1688152520796707,0.027649347676813818,0.008972304875257464,1.0310826276035705
1688152520812683,0.028503852903028815,0.007995727473868897,1.0324254215304798
1688152520828659,0.03045700770580595,0.005432211795223907,1.0327916380560005
1688152520844635,0.028381780727855244,0.007019150072480329,1.0336461432822155
1688152520860611,0.026306553749904538,0.0109254596780346,1.0323033493553062
1688152520876587,0.028625925078202386,0.00848401617456318,1.0323033493553062
1688152520892562,0.03057907988097952,0.005432211795223907,1.0334019989318683
1688152520908538,0.029724574654764524,0.006775005722133187,1.0341344319829098
1688152520924514,0.02777141985198739,0.009948882276646032,1.0313267719539176
1688152520940490,0.027527275501640247,0.008728160524910322,1.0316929884794384
1688152520956466,0.031311512932020946,0.005920500495918191,1.0332799267566948
1688152520972442,0.03045700770580595,0.007019150072480329,1.0310826276035705
1688152520988418,0.027405203326466676,0.009216449225604606,1.0327916380560005
1688152521004394,0.028503852903028815,0.008728160524910322,1.031815060654612
1688152521020370,0.03033493553063238,0.005432211795223907,1.031815060654612
1688152521036346,0.02935835812924381,0.007507438773174613,1.0342565041580833
1688152521052322,0.02801556420233453,0.011169604028381741,1.0315709163042648
1688152521068298,0.028381780727855244,0.009094377050431035,1.030350194552529
1688152521084274,0.03155565728236809,0.006775005722133187,1.0341344319829098
1688152521100250,0.028137636377508102,0.005432211795223907,1.0332799267566948
1688152521116226,0.026916914625772392,0.009216449225604606,1.0338902876325626
1688152521132171,0.027527275501640247,0.008728160524910322,1.0324254215304798
1688152521148147,0.03070115205615309,0.00579842832074462,1.0323033493553062
1688152521164123,0.030090791180285237,0.006652933546959616,1.032059205004959
1688152521180099,0.027161058976119534,0.009338521400778177,1.0323033493553062
1688152521196075,0.028503852903028815,0.00848401617456318,1.030350194552529
1688152521212051,0.031311512932020946,0.005188067444876765,1.0325474937056534
1688152521228027,0.03045700770580595,0.005676356145571049,1.0325474937056534
1688152521244003,0.028381780727855244,0.008606088349736751,1.030960555428397
1688152521259979,0.02679484245059882,0.008972304875257464,1.0287632562752727
1688152521275955,0.03045700770580595,0.005676356145571049,1.032913710231174
1688152521291931,0.030823224231326662,0.005676356145571049,1.0302281223773555
1688152521307907,0.028381780727855244,0.00982681010147246,1.032059205004959
1688152521323883,0.028503852903028815,0.009460593575951748,1.0319371328297855
1688152521339859,0.03045700770580595,0.006775005722133187,1.0308384832532234
1688152521355835,0.030823224231326662,0.006775005722133187,1.034378576333257
1688152521371811,0.02655069810025168,0.009216449225604606,1.033524071107042
1688152521387786,0.02667277027542525,0.008850232700083893,1.0345006485084305
1688152521403762,0.029846646829938095,0.006652933546959616,1.033768215457389
1688152521419738,0.030212863355458808,0.006775005722133187,1.0331578545815212
1688152521435714,0.02679484245059882,0.009216449225604606,1.0296177615014876
1688152521451690,0.02667277027542525,0.008239871824216038,1.0299839780270084
1688152521467666,0.029602502479590953,0.007385366598001042,1.032913710231174
1688152521483642,0.031067368581673804,0.007507438773174613,1.0315709163042648
1688152521499618,0.02935835812924381,0.007873655298695326,1.033524071107042
1688152521515594,0.027405203326466676,0.009216449225604606,1.030960555428397
1688152521531570,0.028870069428549527,0.007751583123521755,1.030960555428397
1688152521547546,0.030090791180285237,0.005188067444876765,1.0340123598077362
1688152521563522,0.029724574654764524,0.008117799649042468,1.032669565880827
1688152521579498,0.028870069428549527,0.010070954451819603,1.030960555428397
1688152521595474,0.02911421377889667,0.009582665751125319,1.0334019989318683
1688152521611450,0.03033493553063238,0.0022583352407110624,1.032913710231174
1688152521627426,0.028259708552681673,0.007507438773174613,1.0299839780270084
1688152521643402,0.026062409399557396,0.010803387502861028,1.031815060654612
1688152521659378,0.029724574654764524,0.008117799649042468,1.0332799267566948
1688152521675354,0.03167772945754166,0.009582665751125319,1.0345006485084305
1688152521691330,0.030212863355458808,0.00579842832074462,1.032913710231174
1688152521707306,0.027038986800945963,0.007019150072480329,1.0316929884794384
1688152521723281,0.028381780727855244,0.006530861371786045,1.0336461432822155
1688152521739257,0.030212863355458808,0.004455634393835339,1.0332799267566948
1688152521755233,0.028259708552681673,0.009216449225604606,1.0340123598077362
1688152521771209,0.029602502479590953,0.012512397955291021,1.0314488441290912
1688152521787185,0.029846646829938095,0.004699778744182481,1.0325474937056534
1688152521803161,0.030212863355458808,0.005310139620050336,1.0315709163042648
1688152521819137,0.02679484245059882,0.008850232700083893,1.0345006485084305
1688152521835113,0.028137636377508102,0.009948882276646032,1.033768215457389
1688152521851089,0.03143358510719452,0.007263294422827471,1.0313267719539176
1688152521867065,0.03155565728236809,0.006775005722133187,1.0319371328297855
1688152521883041,0.025574120698863112,0.009094377050431035,1.0336461432822155
1688152521899017,0.027283131151293105,0.009582665751125319,1.0325474937056534
1688152521914993,0.03167772945754166,0.007385366598001042,1.0323033493553062
1688152521930969,0.03265430685893023,0.0061646448462653325,1.0334019989318683
1688152521946945,0.027038986800945963,0.008606088349736751,1.0357213702601662
1688152521962921,0.02777141985198739,-0.08709849698634331,1.0420691233691919
1688152521978897,-0.006652933546959616,-0.009094377050431035,0.9988555733577478
1688152521994873,0.03350881208514522,0.05535973144121442,1.025223163195239
1688152522010849,0.04718089570458517,0.034973678187228074,1.0402380407415883
1688152522026825,-0.011535820553902454,0.053040360112916574,1.041458762493324
1688152522042801,-0.007873655298695326,0.054383154039825854,1.0168001831082627
1688152522058776,0.06390478370336439,-1.831082627603564E-4,1.036331731136034
1688152522074752,0.030212863355458808,0.0061646448462653325,1.0365758754863812
1688152522090728,0.03533989471274879,-0.04730296787975874,1.0353551537346455
1688152522106704,0.13702601663233427,-0.16595712214847014,1.038895246814679
1688152522122680,0.14044403753719426,-0.28790722514686795,0.9873807888914321
1688152522138656,0.07904173342488718,-0.4476997024490732,0.9761501487754636
1688152522154632,0.009948882276646032,-0.013977264057373873,0.912306401159686
1688152522170608,-0.00323491264209963,0.3855649652857256,1.0271763179980162
1688152522186584,-0.003479056992446772,-0.23285267414358746,1.0778362706950482
1688152522202560,0.10931563286793278,-0.23260852979324032,1.039505607690547
1688152522218536,0.06402685587853796,-0.2263828488593882,0.9971465629053178
1688152522234512,0.15985351338979203,-0.2960860608834972,0.9738307774471657
1688152522250488,0.033752956435492365,-0.2976729991607536,1.0968795300221252
1688152522266464,-0.030212863355458808,-0.05645838101777656,1.0157015335317006
1688152522282440,0.036438544289310926,0.05023270008392444,1.0626993209735254
1688152522298416,0.09002822919050857,0.018493934538795997,0.9812771801327536
1688152522314392,-0.09454489967193114,0.15838864728770918,1.0697795071335925
1688152522330368,-0.09686427100022899,0.1537499046311135,1.0453650720988783
1688152522346344,-0.09271381704432757,0.13031204699778787,1.0385290302891583
1688152522362320,-0.10431067368581681,0.1369039444571607,1.0410925459678033
1688152522378296,-0.12152285038529032,0.15094224460212136,1.0229037918669412
1688152522394271,-0.07769893949797835,0.24872205691615168,1.0331578545815212
1688152522410247,-0.07232776379034123,0.23321889066910817,1.0020294499122606
1688152522426223,-0.09747463187609684,0.17743190661478625,1.1033493553063245
1688152522442199,0.04974441138323016,-0.05865568017090084,1.0971236743724724
1688152522458175,-0.0023804074158846333,0.030212863355458808,1.004470893415732
1688152522474151,-0.08892957961394687,0.10821698329137064,1.073319600213626
1688152522490127,-0.05999847409781012,0.030212863355458808,1.193926909285115
1688152522506103,0.025696192874036683,0.008728160524910322,1.182574196993973
1688152522522079,0.04217593652246876,-0.006775005722133187,0.7881589990081634
1688152522538055,-0.10919356069275965,0.011169604028381741,1.3688563363088422
1688152522554031,0.07525749599450648,0.09076066224155,1.1610894941634244
1688152522570007,0.03436331731136022,0.019470511940184565,1.1028610666056302
1688152522585983,0.03265430685893023,0.012756542305638163,1.0901655603875788
1688152522601959,0.023010605020218122,0.012512397955291021,1.0157015335317006
1688152522617935,0.020569161516746703,0.009216449225604606,1.0321812771801326
1688152522633911,0.029846646829938095,0.007507438773174613,1.0334019989318683
1688152522649887,0.02386511024643312,0.008117799649042468,1.036942092011902
1688152522665863,0.02276646066987098,0.007995727473868897,1.0327916380560005
1688152522681839,0.02386511024643312,0.010070954451819603,1.0314488441290912
1688152522697815,0.028259708552681673,0.007629510948348184,1.0349889372091248
1688152522713791,0.027038986800945963,0.005920500495918191,1.034622720683604
1688152522729736,0.02130159456778813,0.00848401617456318,1.032059205004959
1688152522745712,0.02398718242160669,0.00848401617456318,1.030960555428397
1688152522761688,0.0289921416037231,0.008606088349736751,1.0319371328297855
1688152522777664,0.02801556420233453,0.007873655298695326,1.032669565880827
1688152522793640,0.021911955443655984,0.010315098802166744,1.0325474937056534
1688152522809616,0.022278171969176697,0.008239871824216038,1.027786678873884
1688152522825592,0.027038986800945963,0.007019150072480329,1.032913710231174
1688152522841568,0.027038986800945963,0.009094377050431035,1.0338902876325626
1688152522857544,0.02276646066987098,0.010437170977340315,1.0321812771801326
1688152522873520,0.02532997634851597,0.005920500495918191,1.0307164110780498
1688152522889495,0.012634470130464592,0.03314259555962451,1.024368657969024
1688152522905471,-0.03314259555962451,0.10150301365682424,1.035477225909819
1688152522921447,-0.0023804074158846333,0.03851377126726163,1.0540321965362018
1688152522937423,0.04522774090180803,-0.09759670405127041,1.0314488441290912
1688152522953399,0.03961242084382377,-0.163149462119478,1.0114290074006256
1688152522969375,0.06292820630197582,-0.06439307240405912,1.0213168535896848
1688152522985351,0.09027237354085571,0.038757915617608774,1.0447547112230104
1688152523001327,0.023132677195391693,0.09735255970092282,1.030106050202182
1688152523017303,0.025574120698863112,0.019104295414663852,1.0375524528877698
1688152523033279,0.02667277027542525,-0.012024109254596738,1.0171663996337834
1688152523049255,0.05120927748531301,0.06683451590753009,1.0487830930037383
1688152523065231,0.09625391012436069,0.16913099870298343,1.0221713588158998
1688152523081207,0.07440299076829149,0.15851071946288275,1.0091096360723277
1688152523097183,0.041687647821774476,0.059632257572289404,1.0629434653238725
1688152523113159,-0.026062409399557396,-0.08331425955596261,1.0233920805676355
1688152523129135,-0.045349813076981604,-0.1464255741206988,1.0253452353704127
1688152523145111,0.007751583123521755,-0.0774547951476312,1.0281528953994048
1688152523161087,0.02130159456778813,-7.934691386282111E-4,1.032913710231174
1688152523177063,0.019714656290531707,0.008239871824216038,1.0327916380560005
1688152523193039,0.02154573891813527,0.010315098802166744,1.030106050202182
1688152523209015,0.023498893720912406,0.008117799649042468,1.0316929884794384
1688152523224990,0.15313954375524563,-0.10528725108720538,1.0802777141985196
1688152523240966,-0.024719615472648115,0.036316472114137355,1.0597695887693597
1688152523256942,0.05120927748531301,-0.031067368581673804,1.0539101243610283
1688152523272918,0.054627298390172996,-0.017151140611886717,1.051712825207904
1688152523288894,0.00848401617456318,-0.0014038300144960658,1.0442664225223162
1688152523304870,0.00848401617456318,0.041443503471427334,1.0302281223773555
1688152523320846,-0.024719615472648115,0.059632257572289404,1.0486610208285647
1688152523336822,-0.03790341039139378,0.06866559853513365,1.0364538033112076
1688152523352798,0.02276646066987098,0.01483176928358887,1.0314488441290912
1688152523368774,0.026062409399557396,0.009948882276646032,1.0330357824063476
1688152523384750,0.027527275501640247,0.007751583123521755,1.0296177615014876
1688152523400726,0.030212863355458808,0.008728160524910322,1.0315709163042648
1688152523416702,0.029968719005111666,0.008606088349736751,1.0348668650339512
1688152523432678,0.029602502479590953,0.005554283970397478,1.0376745250629433
1688152523448654,0.027649347676813818,0.009338521400778177,1.0280308232242312
1688152523464630,0.03350881208514522,0.009094377050431035,1.0296177615014876
1688152523480606,0.03399710078583951,0.006530861371786045,1.0324254215304798
1688152523496582,0.02423132677195383,0.019470511940184565,1.0347447928587776
1688152523512558,0.01898222323949028,0.019714656290531707,1.0345006485084305
1688152523528534,0.018371862363622427,0.07061875333791079,1.0296177615014876
1688152523544510,0.039124132143129486,-0.014587624933241727,1.0296177615014876
1688152523560485,0.041443503471427334,-0.03424124513618665,1.0323033493553062
1688152523576461,0.026306553749904538,0.005310139620050336,1.037796597238117
1688152523592437,0.03302052338445094,0.007263294422827471,1.0296177615014876
1688152523608413,0.032410162508583085,0.006897077897306758,1.0316929884794384
1688152523624389,0.028870069428549527,0.007263294422827471,1.0316929884794384
1688152523640365,0.02667277027542525,0.010559243152513886,1.031204699778744
1688152523656341,0.03167772945754166,0.008972304875257464,1.030960555428397
1688152523672317,0.03314259555962451,0.007873655298695326,1.0376745250629433
1688152523688293,0.030090791180285237,0.007873655298695326,1.0310826276035705
1688152523704269,0.025940337224383825,0.008850232700083893,1.0308384832532234
1688152523720245,0.030090791180285237,0.006775005722133187,1.0348668650339512
1688152523736221,0.0319218738078888,0.008606088349736751,1.031815060654612
1688152523752197,0.030090791180285237,0.00970473792629889,1.0314488441290912
1688152523768173,0.027038986800945963,0.01104753185320817,1.0291294728007934
1688152523784149,0.030945296406500233,0.006408789196612474,1.0307164110780498
1688152523800125,0.03350881208514522,0.006652933546959616,1.0348668650339512
1688152523816101,0.02777141985198739,0.007507438773174613,1.0313267719539176
1688152523832077,0.027527275501640247,0.0109254596780346,1.0332799267566948
1688152523848053,0.031189440756847375,0.00982681010147246,1.0308384832532234
1688152523864029,0.0327763790341038,0.007873655298695326,1.0325474937056534
1688152523880005,0.02667277027542525,0.009216449225604606,1.0319371328297855
1688152523895980,0.026184481574730967,0.009948882276646032,1.0297398336766612
1688152523911956,0.030090791180285237,0.008850232700083893,1.029495689326314
1688152523927932,0.03424124513618665,0.007507438773174613,1.033524071107042
1688152523943908,0.028625925078202386,0.008972304875257464,1.033524071107042
1688152523959884,0.025574120698863112,0.00970473792629889,1.0304722667277026
1688152523975860,0.031067368581673804,0.007629510948348184,1.0308384832532234
1688152523991836,0.03448538948653379,0.008606088349736751,1.031204699778744
1688152524007812,0.03179980163271523,0.0109254596780346,1.0327916380560005
1688152524023788,0.02667277027542525,0.009338521400778177,1.0287632562752727
1688152524039764,0.028259708552681673,0.006530861371786045,1.0287632562752727
1688152524055740,0.03326466773479808,0.006775005722133187,1.0323033493553062
1688152524071716,0.0319218738078888,0.009460593575951748,1.0313267719539176
1688152524087692,0.02789349202716096,0.011169604028381741,1.0307164110780498
1688152524103668,0.029480430304417382,0.009460593575951748,1.0321812771801326
1688152524119644,0.03167772945754166,0.007019150072480329,1.0327916380560005
1688152524135620,0.029602502479590953,0.005432211795223907,1.0315709163042648
1688152524151596,0.027405203326466676,0.008972304875257464,1.0304722667277026
1688152524167572,0.03045700770580595,0.011413748378728883,1.0327916380560005
1688152524183548,0.033875028610665936,0.008972304875257464,1.032669565880827
1688152524199524,0.029846646829938095,0.00579842832074462,1.0308384832532234
1688152524215500,0.026184481574730967,0.005676356145571049,1.0304722667277026
1688152524231475,0.02264438849469741,0.007995727473868897,1.0475623712520026
1688152524247451,-0.027161058976119534,0.18133821622034052,1.0246128023193712
1688152524263427,0.16156252384222203,-0.3283131151293204,0.9966582742046235
1688152524279403,-0.014343480582894585,0.10760662241550278,1.0419470511940183
1688152524295379,0.01104753185320817,0.039002059967955915,1.020706492713817
1688152524311355,-0.1106584267948425,0.3850766765850313,1.1186083772030209
1688152524327331,0.02935835812924381,-0.00579842832074462,1.0467078660257876
1688152524343307,0.023010605020218122,-0.025574120698863112,1.0391393911650262
1688152524359283,0.015197985809109582,-0.12005798428320746,1.0193636987869077
1688152524375259,-0.0567025253681237,-0.19769588769359903,1.0106965743495842
1688152524391235,0.05780117494468584,-0.11798275730525676,1.0545204852368961
1688152524407211,0.19073777370870548,0.17645532921339768,1.043167772945754
1688152524423187,0.054505226214999425,0.05133134966048658,1.0276646066987105
1688152524439163,-0.10870527199206537,0.10846112764171778,1.0362096589608605
1688152524455139,-0.12591744869153887,-0.12506294346532387,1.0264438849469748
1688152524471115,-0.030090791180285237,-0.0061646448462653325,1.0573281452658883
1688152524487091,0.029602502479590953,0.07611200122072148,1.036942092011902
1688152524503067,0.0020141908903639205,0.03302052338445094,1.0341344319829098
1688152524519043,0.14251926451514496,0.05914396887159512,1.0398718242160676
1688152524535019,0.05877775234607441,-0.04473945220111375,1.0293736171511405
1688152524550994,0.18536659800106836,-0.07208361943999408,1.0391393911650262
1688152524566970,0.18890669108110192,0.05426108186465228,1.067093919279774
1688152524582946,0.0756237125200272,0.0025024795910582043,1.0331578545815212
1688152524598922,0.04974441138323016,-0.030823224231326662,1.0065461203936827
1688152524614898,0.06524757763027367,-0.020813305867093845,1.0468299382009612
1688152524630874,0.14703593499656709,0.02264438849469741,1.0012970168612192
1688152524646850,0.22980086976424818,0.06036469062333083,0.9662623025864043
1688152524662826,0.2553139543755245,0.02008087281605242,0.9861600671396964
1688152524678802,0.22247653925383393,0.05108720531013944,1.0359655146105133
1688152524694778,0.2935225452048522,0.14544899671931066,0.9987335011825742
1688152524710754,0.35797665369649767,0.17621118486305054,1.025833524071107
1688152524726730,0.40338750286106695,0.1575341420614942,0.9782253757534143
1688152524742706,0.388006408789197,0.09149309529259142,1.1044480048828866
1688152524758682,0.17486839093614126,0.0040894178683146265,1.1104295414663916
1688152524774658,-0.06683451590753053,-0.06646829938200982,1.1439993896391245
1688152524790634,-0.35663385976958883,-0.5569542992294192,1.2235904478522928
1688152524806610,-0.20013733119707044,-0.1350728618295567,0.04364080262455161
1688152524822586,-0.10821698329137108,-0.01898222323949028,-0.20965896086060898
1688152524838562,-0.20440985732814543,0.03045700770580595,0.8936293583581296
1688152524854538,-0.10235751888303968,0.046814679179064456,0.7892576485847256
1688152524870514,-0.1526512550545509,0.06793316548409223,1.0366979476615548
1688152524886489,-0.1316548409246967,0.06207370107576082,1.0603799496452275
1688152524902465,-0.12933546959639886,0.05877775234607441,1.0546425574120697
1688152524918441,-0.12249942778667888,0.06256198977645511,1.0723430228122375
1688152524934417,-0.11517509727626463,0.07281605249103507,1.0511024643320361
1688152524950393,-0.1342183566033417,0.07122911421377864,1.0381628137636376
1688152524966369,-0.11285572594796678,0.07147325856412579,1.0434119172961012
1688152524982345,-0.11786068513008319,0.06768902113374509,1.038040741588464
1688152524998321,0.005920500495918191,0.01483176928358887,1.029495689326314
1688152525014297,0.02532997634851597,0.00982681010147246,1.0341344319829098
1688152525030273,0.029968719005111666,0.007507438773174613,1.0330357824063476
1688152525046249,0.023376821545738835,0.006530861371786045,1.0325474937056534
1688152525062225,0.024597543297474544,0.007263294422827471,1.0302281223773555
1688152525078201,0.028137636377508102,0.006652933546959616,1.0302281223773555
1688152525094177,0.0289921416037231,0.007751583123521755,1.030350194552529
1688152525110153,0.024597543297474544,0.007507438773174613,1.0324254215304798
1688152525126129,0.02532997634851597,0.007629510948348184,1.0353551537346455
1688152525142105,0.029480430304417382,0.00848401617456318,1.0310826276035705
1688152525158081,0.028870069428549527,0.007507438773174613,1.0365758754863812
1688152525174057,0.025818265049210254,0.006652933546959616,1.031815060654612
1688152525190033,0.02410925459678026,0.007751583123521755,1.034378576333257
1688152525206009,0.02789349202716096,0.008850232700083893,1.031815060654612
1688152525221984,0.028870069428549527,0.008239871824216038,1.034622720683604
1688152525237960,0.024597543297474544,0.007629510948348184,1.032669565880827
1688152525253936,0.023743038071259548,0.008239871824216038,1.030106050202182
1688152525269912,0.026184481574730967,0.008972304875257464,1.0307164110780498
1688152525285888,0.03045700770580595,0.008117799649042468,1.0291294728007934
1688152525301864,0.02410925459678026,0.00836194399938961,1.0370641641870755
1688152525317840,0.023620965896085977,0.006530861371786045,1.032059205004959
1688152525333816,0.027038986800945963,0.007629510948348184,1.0340123598077362
1688152525349792,0.031311512932020946,0.0060425726710917615,1.035233081559472
1688152525365768,0.027283131151293105,0.007385366598001042,1.0341344319829098
1688152525381744,0.02410925459678026,0.008117799649042468,1.0288853284504462
1688152525397720,0.027649347676813818,0.006775005722133187,1.0282749675745784
1688152525413696,0.028503852903028815,0.007507438773174613,1.0327916380560005
1688152525429672,0.024841687647821686,0.007507438773174613,1.034378576333257
1688152525445648,0.02423132677195383,0.0060425726710917615,1.029495689326314
1688152525461624,0.026184481574730967,0.0071412222476539,1.031204699778744
1688152525477600,0.02935835812924381,0.007019150072480329,1.0321812771801326
1688152525493576,0.02532997634851597,0.0060425726710917615,1.0349889372091248
1688152525509552,0.023254749370565264,0.006775005722133187,1.0305943389028762
1688152525525528,0.026916914625772392,0.009094377050431035,1.0336461432822155
1688152525541504,0.02923628595407024,0.008117799649042468,1.0334019989318683
1688152525557479,0.026184481574730967,0.008117799649042468,1.0313267719539176
1688152525573455,0.022400244144350268,0.006775005722133187,1.033524071107042
1688152525589431,0.02679484245059882,0.00848401617456318,1.029251544975967
1688152525605407,0.03070115205615309,0.007507438773174613,1.0359655146105133
1688152525621383,0.025940337224383825,0.007385366598001042,1.0315709163042648
1688152525637359,0.023498893720912406,0.007995727473868897,1.0310826276035705
1688152525653335,0.027649347676813818,0.007873655298695326,1.0323033493553062
1688152525669311,0.028259708552681673,0.0071412222476539,1.0336461432822155
1688152525685287,0.027038986800945963,0.006408789196612474,1.0353551537346455
1688152525701263,0.023376821545738835,0.007385366598001042,1.0305943389028762
1688152525717239,0.025085831998168828,0.0071412222476539,1.0308384832532234
1688152525733215,0.030212863355458808,0.008117799649042468,1.0347447928587776
1688152525749191,0.027527275501640247,0.009338521400778177,1.032913710231174
1688152525765167,0.022156099794003126,0.00836194399938961,1.0323033493553062
1688152525781143,0.025940337224383825,0.007507438773174613,1.0334019989318683
1688152525797119,0.029480430304417382,0.005554283970397478,1.0332799267566948
1688152525813095,0.02789349202716096,0.007629510948348184,1.0332799267566948
1688152525829071,0.02423132677195383,0.007629510948348184,1.030106050202182
1688152525845047,0.025818265049210254,0.007629510948348184,1.0293736171511405
1688152525861023,0.029968719005111666,0.006897077897306758,1.032059205004959
1688152525876999,0.028870069428549527,0.007385366598001042,1.0336461432822155
1688152525892974,0.023376821545738835,0.006286717021438903,1.0319371328297855
1688152525908950,0.025574120698863112,0.007629510948348184,1.0307164110780498
1688152525924926,0.027527275501640247,0.00848401617456318,1.0323033493553062
1688152525940902,0.0252079041733424,0.007019150072480329,1.0305943389028762
1688152525956878,0.025818265049210254,-3.0518043793392735E-4,1.0066681925688563
1688152525972854,0.02667277027542525,0.006652933546959616,1.028641184100099
1688152525988830,0.037781338216220206,0.009582665751125319,1.0332799267566948
1688152526004806,0.02667277027542525,0.014465552758068156,1.0366979476615548
1688152526020782,0.024353398947127403,0.008850232700083893,1.035477225909819
1688152526036758,0.024597543297474544,0.005188067444876765,1.0268101014724955
1688152526052734,0.03057907988097952,0.002990768291752488,1.036331731136034
1688152526068710,0.029968719005111666,0.008117799649042468,1.0351110093842983
1688152526084686,0.02386511024643312,0.013122758831158876,1.0340123598077362
1688152526100662,0.02276646066987098,0.0109254596780346,1.0373083085374226
1688152526116638,0.029602502479590953,0.00579842832074462,1.0308384832532234
1688152526132614,0.027038986800945963,0.0040894178683146265,1.0331578545815212
1688152526148590,0.02276646066987098,0.006408789196612474,1.032913710231174
1688152526164566,0.02532997634851597,0.009338521400778177,1.0347447928587776
1688152526180542,0.029968719005111666,0.010681315327687457,1.0355992980849926
1688152526196518,0.027527275501640247,0.007385366598001042,1.0325474937056534
1688152526212494,0.02398718242160669,0.003479056992446772,1.0305943389028762
1688152526228469,0.02252231631952384,0.006775005722133187,1.0299839780270084
1688152526244415,0.028381780727855244,0.00848401617456318,1.0314488441290912
1688152526260391,0.027405203326466676,0.009094377050431035,1.0340123598077362
1688152526276367,0.023254749370565264,0.007385366598001042,1.027542534523537
1688152526292343,0.02545204852368954,0.006530861371786045,1.027542534523537
1688152526308319,0.030823224231326662,0.007263294422827471,1.0379186694132905
1688152526324295,0.024475471122300974,0.0061646448462653325,1.0307164110780498
1688152526340271,0.02154573891813527,0.007751583123521755,1.0313267719539176
1688152526356247,0.027283131151293105,0.008117799649042468,1.030106050202182
1688152526372223,0.030945296406500233,0.006652933546959616,1.033524071107042
1688152526388198,0.025940337224383825,0.0071412222476539,1.0304722667277026
1688152526404174,0.023010605020218122,0.0061646448462653325,1.032059205004959
1688152526420150,0.023743038071259548,0.005554283970397478,1.0315709163042648
1688152526436126,0.03057907988097952,0.0071412222476539,1.0299839780270084
