Timestamp (microseconds),Gyro X (°/s),Gyro Y (°/s),Gyro Z (°/s)
1688152501640564,0.7476920729380936,0.41199359121083035,-1.052872510872021
1688152501656559,0.7171740291447577,0.3204394598305953,-1.0833905546654705
1688152501672554,0.7782101167315432,0.38147554741738077,-1.022354467078685
1688152501688549,0.8392462043183286,0.5035477225909517,-1.022354467078685
1688152501704544,0.8087281605248791,0.38147554741738077,-1.052872510872021
1688152501720539,0.7782101167315432,0.3509575036240449,-1.052872510872021
1688152501736534,0.7476920729380936,0.41199359121083035,-1.0833905546654705
1688152501752529,0.7171740291447577,0.5340657663844013,-1.052872510872021
1688152501768524,0.7171740291447577,0.44251163500416624,-1.052872510872021
1688152501784519,0.7476920729380936,0.3204394598305953,-1.0833905546654705
1688152501800514,0.8087281605248791,0.44251163500416624,-1.0833905546654705
1688152501816509,0.7782101167315432,0.44251163500416624,-1.022354467078685
1688152501832504,0.7171740291447577,0.44251163500416624,-1.052872510872021
1688152501848499,0.6866559853513081,0.38147554741738077,-1.0833905546654705
1688152501864494,0.6561379415579722,0.41199359121083035,-1.052872510872021
1688152501880489,0.6866559853513081,0.5645838101777372,-1.022354467078685
1688152501896484,0.7171740291447577,0.41199359121083035,-1.022354467078685
1688152501912479,0.7171740291447577,0.38147554741738077,-1.022354467078685
1688152501928474,0.8087281605248791,0.44251163500416624,-1.052872510872021
1688152501944469,0.7782101167315432,0.5645838101777372,-1.0833905546654705
1688152501960449,0.7171740291447577,0.44251163500416624,-1.052872510872021
1688152501976444,0.6866559853513081,0.38147554741738077,-1.052872510872021
1688152501992439,0.6866559853513081,0.41199359121083035,-1.022354467078685
1688152502008434,0.6561379415579722,0.5035477225909517,-0.9918364232852355
1688152502024429,0.6866559853513081,0.44251163500416624,-1.022354467078685
1688152502040424,0.7171740291447577,0.38147554741738077,-1.0833905546654705
1688152502056419,0.7476920729380936,0.38147554741738077,-1.0833905546654705
1688152502072414,0.7476920729380936,0.5340657663844013,-1.052872510872021
1688152502088409,0.7782101167315432,0.38147554741738077,-1.052872510872021
1688152502104404,0.7171740291447577,0.3204394598305953,-1.052872510872021
1688152502120399,0.6256198977645226,0.4730296787976158,-1.0833905546654705
1688152502136394,0.7171740291447577,0.4730296787976158,-1.022354467078685
1688152502152389,0.7782101167315432,0.38147554741738077,-1.022354467078685
1688152502168384,0.7476920729380936,0.3204394598305953,-1.052872510872021
1688152502184379,0.7476920729380936,0.38147554741738077,-1.052872510872021
1688152502200374,0.7476920729380936,0.5340657663844013,-1.022354467078685
1688152502216369,0.6866559853513081,0.5340657663844013,-1.052872510872021
1688152502232364,0.6866559853513081,0.3509575036240449,-1.052872510872021
1688152502248359,0.6256198977645226,0.41199359121083035,-1.0833905546654705
1688152502264354,0.7476920729380936,0.5340657663844013,-1.0833905546654705
1688152502280365,0.7476920729380936,0.4730296787976158,-1.0833905546654705
1688152502296360,0.6561379415579722,0.3509575036240449,-1.0833905546654705
1688152502312355,0.6866559853513081,0.3204394598305953,-1.052872510872021
1688152502328350,0.7171740291447577,0.4730296787976158,-1.0833905546654705
1688152502344345,0.7171740291447577,0.5340657663844013,-1.0833905546654705
1688152502360340,0.7171740291447577,0.3509575036240449,-1.0833905546654705
1688152502376335,0.7476920729380936,0.41199359121083035,-1.022354467078685
1688152502392330,0.6866559853513081,0.4730296787976158,-1.022354467078685
1688152502408325,0.6866559853513081,0.5340657663844013,-1.052872510872021
1688152502424320,0.7171740291447577,0.41199359121083035,-1.0833905546654705
1688152502440315,0.7476920729380936,0.3509575036240449,-1.052872510872021
1688152502456310,0.7476920729380936,0.4730296787976158,-1.0833905546654705
1688152502472305,0.7171740291447577,0.4730296787976158,-1.052872510872021
1688152502488300,0.6256198977645226,0.3509575036240449,-1.022354467078685
1688152502504295,0.5951018539711868,0.3204394598305953,-1.052872510872021
1688152502520290,0.6866559853513081,0.5340657663844013,-1.0833905546654705
1688152502536285,0.7782101167315432,0.5951018539711868,-1.052872510872021
1688152502552280,0.6866559853513081,0.3509575036240449,-1.052872510872021
1688152502568275,0.6866559853513081,0.41199359121083035,-1.0833905546654705
1688152502584270,0.7171740291447577,0.4730296787976158,-1.052872510872021
1688152502599914,0.7782101167315432,0.44251163500416624,-1.0833905546654705
1688152502615908,0.7782101167315432,0.2899214160372594,-1.052872510872021
1688152502631901,0.7171740291447577,0.3509575036240449,-1.022354467078685
1688152502647895,0.7171740291447577,0.4730296787976158,-1.1139085984588064
1688152502663889,0.8087281605248791,0.5645838101777372,-1.0833905546654705
1688152502679882,0.7476920729380936,0.41199359121083035,-1.0833905546654705
1688152502695876,0.7782101167315432,0.44251163500416624,-1.144426642252256
1688152502711869,0.8087281605248791,0.44251163500416624,-1.052872510872021
1688152502727863,0.7171740291447577,0.5035477225909517,-1.022354467078685
1688152502743857,0.7782101167315432,0.38147554741738077,-1.0833905546654705
1688152502759850,0.7476920729380936,0.3204394598305953,-1.022354467078685
1688152502775844,0.7476920729380936,0.4730296787976158,-0.9613183794918996
1688152502791837,0.7476920729380936,0.5035477225909517,-1.022354467078685
1688152502807831,0.7171740291447577,0.38147554741738077,-1.052872510872021
1688152502823825,0.8087281605248791,0.41199359121083035,-1.052872510872021
1688152502839818,0.7476920729380936,0.5035477225909517,-1.052872510872021
1688152502855812,0.8087281605248791,0.5340657663844013,-0.9918364232852355
1688152502871805,0.7782101167315432,0.38147554741738077,-1.022354467078685
1688152502887799,0.7171740291447577,0.3509575036240449,-1.052872510872021
1688152502903792,0.7782101167315432,0.44251163500416624,-1.1139085984588064
1688152502919433,0.7476920729380936,0.5340657663844013,-1.0833905546654705
1688152502935425,0.7782101167315432,0.41199359121083035,-1.0833905546654705
1688152502951418,0.7171740291447577,0.38147554741738077,-1.0833905546654705
1688152502967410,0.7171740291447577,0.5035477225909517,-1.052872510872021
1688152502983402,0.8087281605248791,0.4730296787976158,-1.1139085984588064
1688152502999394,0.8087281605248791,0.41199359121083035,-1.052872510872021
1688152503015386,0.7476920729380936,0.3509575036240449,-1.022354467078685
1688152503031378,0.7782101167315432,0.44251163500416624,-1.022354467078685
1688152503047371,0.7782101167315432,0.5645838101777372,-1.052872510872021
1688152503063363,0.7476920729380936,0.41199359121083035,-1.0833905546654705
1688152503079355,0.7476920729380936,0.3509575036240449,-1.0833905546654705
1688152503095347,0.7782101167315432,0.41199359121083035,-1.052872510872021
1688152503111339,0.7476920729380936,0.5645838101777372,-1.052872510872021
1688152503127331,0.7171740291447577,0.41199359121083035,-1.052872510872021
1688152503143324,0.7171740291447577,0.3509575036240449,-1.052872510872021
1688152503159316,0.6866559853513081,0.4730296787976158,-1.052872510872021
1688152503175308,0.8087281605248791,0.5645838101777372,-1.0833905546654705
1688152503191300,0.8087281605248791,0.41199359121083035,-1.0833905546654705
1688152503207292,0.7476920729380936,0.3204394598305953,-1.052872510872021
1688152503223284,0.7782101167315432,0.41199359121083035,-1.022354467078685
1688152503238983,0.7782101167315432,0.44251163500416624,-1.022354467078685
1688152503254974,0.6866559853513081,0.4730296787976158,-1.022354467078685
1688152503270964,0.7782101167315432,0.3204394598305953,-1.052872510872021
1688152503286955,0.8087281605248791,0.4730296787976158,-1.0833905546654705
1688152503302946,0.7782101167315432,0.4730296787976158,-1.022354467078685
1688152503318936,0.7171740291447577,0.38147554741738077,-1.0833905546654705
1688152503334927,0.7782101167315432,0.3509575036240449,-1.0833905546654705
1688152503350918,0.8087281605248791,0.38147554741738077,-1.052872510872021
1688152503366909,0.8392462043183286,0.5340657663844013,-1.052872510872021
1688152503382899,0.7171740291447577,0.41199359121083035,-1.052872510872021
1688152503398890,0.7782101167315432,0.38147554741738077,-1.0833905546654705
1688152503414881,0.7782101167315432,0.38147554741738077,-1.052872510872021
1688152503430872,0.8087281605248791,0.4730296787976158,-1.022354467078685
1688152503446862,0.7782101167315432,0.41199359121083035,-1.052872510872021
1688152503462853,0.7171740291447577,0.3204394598305953,-1.0833905546654705
1688152503478844,0.7476920729380936,0.44251163500416624,-1.022354467078685
1688152503494835,0.7782101167315432,0.5340657663844013,-1.022354467078685
1688152503510825,0.7782101167315432,0.4730296787976158,-1.052872510872021
1688152503526816,0.7476920729380936,0.3509575036240449,-1.052872510872021
1688152503542807,0.7476920729380936,0.38147554741738077,-1.022354467078685
1688152503558532,0.7476920729380936,0.5035477225909517,-1.022354467078685
1688152503574522,0.7782101167315432,0.44251163500416624,-1.052872510872021
1688152503590512,0.7476920729380936,0.3509575036240449,-1.022354467078685
1688152503606502,0.7782101167315432,0.38147554741738077,-0.9918364232852355
1688152503622491,0.8392462043183286,0.5645838101777372,-1.052872510872021
1688152503638481,0.7476920729380936,0.5035477225909517,-1.0833905546654705
1688152503654471,0.7782101167315432,0.41199359121083035,-1.0833905546654705
1688152503670461,0.7782101167315432,0.4730296787976158,-0.9918364232852355
1688152503686451,0.7476920729380936,0.4730296787976158,-0.9613183794918996
1688152503702440,0.8087281605248791,0.44251163500416624,-1.022354467078685
1688152503718430,0.7171740291447577,0.3509575036240449,-1.0833905546654705
1688152503734420,0.8087281605248791,0.44251163500416624,-1.052872510872021
1688152503750410,0.8087281605248791,0.5340657663844013,-1.052872510872021
1688152503766399,0.7782101167315432,0.5035477225909517,-1.052872510872021
1688152503782389,0.7782101167315432,0.38147554741738077,-1.0833905546654705
1688152503798379,0.7782101167315432,0.41199359121083035,-1.1139085984588064
1688152503814369,0.7782101167315432,0.4730296787976158,-1.052872510872021
1688152503830359,0.7476920729380936,0.4730296787976158,-1.0833905546654705
1688152503846348,0.7171740291447577,0.38147554741738077,-1.1139085984588064
1688152503862338,0.7782101167315432,0.3509575036240449,-1.0833905546654705
1688152503878082,0.7782101167315432,0.4730296787976158,-1.052872510872021
1688152503894071,0.7782101167315432,0.44251163500416624,-1.022354467078685
1688152503910060,0.7476920729380936,0.38147554741738077,-1.022354467078685
1688152503926048,0.7782101167315432,0.44251163500416624,-1.022354467078685
1688152503942037,0.8087281605248791,0.5035477225909517,-1.022354467078685
1688152503958026,0.8087281605248791,0.4730296787976158,-1.052872510872021
1688152503974015,0.7171740291447577,0.38147554741738077,-1.052872510872021
1688152503990004,0.7476920729380936,0.38147554741738077,-0.9918364232852355
1688152504005993,0.7782101167315432,0.5340657663844013,-1.052872510872021
1688152504021981,0.7782101167315432,0.4730296787976158,-1.1139085984588064
1688152504037970,0.7171740291447577,0.41199359121083035,-1.1139085984588064
1688152504053959,0.6866559853513081,0.4730296787976158,-1.1139085984588064
1688152504069948,0.7782101167315432,0.5951018539711868,-1.1139085984588064
1688152504085937,0.7782101167315432,0.5035477225909517,-1.052872510872021
1688152504101925,0.7171740291447577,0.3204394598305953,-1.052872510872021
1688152504117914,0.7171740291447577,0.3509575036240449,-1.022354467078685
1688152504133903,0.7782101167315432,0.4730296787976158,-1.022354467078685
1688152504149892,0.7171740291447577,0.5035477225909517,-1.052872510872021
1688152504165881,0.6866559853513081,0.3509575036240449,-1.0833905546654705
1688152504181870,0.7171740291447577,0.41199359121083035,-1.022354467078685
1688152504197601,0.8087281605248791,0.4730296787976158,-1.0833905546654705
1688152504213589,0.7476920729380936,0.4730296787976158,-1.1139085984588064
1688152504229577,0.7476920729380936,0.3509575036240449,-1.1139085984588064
1688152504245565,0.8087281605248791,0.38147554741738077,-1.0833905546654705
1688152504261552,0.8087281605248791,0.4730296787976158,-1.022354467078685
1688152504277540,0.8087281605248791,0.5035477225909517,-1.052872510872021
1688152504293528,0.7476920729380936,0.38147554741738077,-1.0833905546654705
1688152504309516,0.7476920729380936,0.3509575036240449,-1.022354467078685
1688152504325504,0.7476920729380936,0.5340657663844013,-0.9918364232852355
1688152504341492,0.7476920729380936,0.5340657663844013,-0.9918364232852355
1688152504357480,0.7476920729380936,0.41199359121083035,-1.052872510872021
1688152504373468,0.7782101167315432,0.3509575036240449,-1.052872510872021
1688152504389455,0.8087281605248791,0.4730296787976158,-0.9918364232852355
1688152504405443,0.7476920729380936,0.41199359121083035,-1.052872510872021
1688152504421431,0.7476920729380936,0.41199359121083035,-1.1139085984588064
1688152504437419,0.8087281605248791,0.38147554741738077,-1.0833905546654705
1688152504453407,0.7782101167315432,0.5035477225909517,-0.9613183794918996
1688152504469395,0.8087281605248791,0.5340657663844013,-0.9918364232852355
1688152504485383,0.7171740291447577,0.3204394598305953,-1.022354467078685
1688152504501371,0.6866559853513081,0.38147554741738077,-1.052872510872021
1688152504517151,0.7782101167315432,0.4730296787976158,-1.022354467078685
1688152504533137,0.8087281605248791,0.5035477225909517,-1.052872510872021
1688152504549124,0.8392462043183286,0.41199359121083035,-1.052872510872021
1688152504565111,0.7782101167315432,0.3204394598305953,-1.052872510872021
1688152504581098,0.7171740291447577,0.44251163500416624,-1.022354467078685
1688152504597085,0.7782101167315432,0.5340657663844013,-1.022354467078685
1688152504613072,0.7476920729380936,0.41199359121083035,-1.052872510872021
1688152504629059,0.7782101167315432,0.3204394598305953,-1.022354467078685
1688152504645046,0.8087281605248791,0.4730296787976158,-1.052872510872021
1688152504661033,0.8392462043183286,0.5035477225909517,-1.0833905546654705
1688152504677020,0.7782101167315432,0.44251163500416624,-1.052872510872021
1688152504693007,0.7782101167315432,0.2899214160372594,-1.022354467078685
1688152504708994,0.7782101167315432,0.38147554741738077,-1.0833905546654705
1688152504724980,0.8087281605248791,0.5035477225909517,-1.1139085984588064
1688152504740967,0.7476920729380936,0.41199359121083035,-1.0833905546654705
1688152504756954,0.6866559853513081,0.38147554741738077,-1.0833905546654705
1688152504772941,0.7171740291447577,0.44251163500416624,-1.052872510872021
1688152504788928,0.7476920729380936,0.5645838101777372,-1.0833905546654705
1688152504804915,0.6866559853513081,0.44251163500416624,-1.052872510872021
1688152504820902,0.7171740291447577,0.44251163500416624,-0.9918364232852355
1688152504836670,0.7782101167315432,0.4730296787976158,-1.052872510872021
1688152504852656,0.8392462043183286,0.4730296787976158,-1.052872510872021
1688152504868641,0.7782101167315432,0.38147554741738077,-1.0833905546654705
1688152504884627,0.7476920729380936,0.3509575036240449,-1.1139085984588064
1688152504900613,0.7171740291447577,0.44251163500416624,-1.0833905546654705
1688152504916599,0.7476920729380936,0.5340657663844013,-1.052872510872021
1688152504932585,0.7171740291447577,0.5035477225909517,-1.0833905546654705
1688152504948571,0.7476920729380936,0.38147554741738077,-1.022354467078685
1688152504964557,0.7476920729380936,0.44251163500416624,-1.022354467078685
1688152504980543,0.7782101167315432,0.5340657663844013,-1.022354467078685
1688152504996529,0.7171740291447577,0.41199359121083035,-1.022354467078685
1688152505012515,0.7171740291447577,0.3204394598305953,-1.022354467078685
1688152505028501,0.7782101167315432,0.44251163500416624,-1.052872510872021
1688152505044487,0.7476920729380936,0.5340657663844013,-1.022354467078685
1688152505060473,0.7476920729380936,0.4730296787976158,-1.0833905546654705
1688152505076459,0.7171740291447577,0.38147554741738077,-1.0833905546654705
1688152505092445,0.7476920729380936,0.44251163500416624,-1.052872510872021
1688152505108431,0.7476920729380936,0.5035477225909517,-1.052872510872021
1688152505124417,0.8087281605248791,0.41199359121083035,-1.1139085984588064
1688152505140403,0.7782101167315432,0.3509575036240449,-1.1139085984588064
1688152505156219,0.8392462043183286,0.44251163500416624,-1.022354467078685
1688152505172205,0.8087281605248791,0.5645838101777372,-1.022354467078685
1688152505188190,0.7782101167315432,0.44251163500416624,-1.0833905546654705
1688152505204176,0.7476920729380936,0.3509575036240449,-1.052872510872021
1688152505220161,0.7476920729380936,0.4730296787976158,-1.022354467078685
1688152505236147,0.7782101167315432,0.5340657663844013,-1.022354467078685
1688152505252132,0.7476920729380936,0.41199359121083035,-1.022354467078685
1688152505268118,0.7782101167315432,0.3509575036240449,-1.052872510872021
1688152505284103,0.8087281605248791,0.44251163500416624,-1.0833905546654705
1688152505300089,0.7782101167315432,0.4730296787976158,-1.052872510872021
1688152505316074,0.7782101167315432,0.4730296787976158,-1.052872510872021
1688152505332059,0.7476920729380936,0.3509575036240449,-1.022354467078685
1688152505348045,0.6866559853513081,0.44251163500416624,-1.022354467078685
1688152505364030,0.8087281605248791,0.4730296787976158,-1.022354467078685
1688152505380016,0.7782101167315432,0.38147554741738077,-1.0833905546654705
1688152505396001,0.8087281605248791,0.2899214160372594,-1.0833905546654705
1688152505411987,0.7782101167315432,0.3509575036240449,-1.0833905546654705
1688152505427972,0.7782101167315432,0.5340657663844013,-1.022354467078685
1688152505443958,0.8087281605248791,0.38147554741738077,-1.022354467078685
1688152505459943,0.7782101167315432,0.38147554741738077,-1.052872510872021
1688152505475708,0.6866559853513081,0.38147554741738077,-1.0833905546654705
1688152505491692,0.8392462043183286,0.5951018539711868,-1.052872510872021
1688152505507677,0.7782101167315432,0.5035477225909517,-1.052872510872021
1688152505523661,0.7171740291447577,0.3509575036240449,-1.052872510872021
1688152505539646,0.7476920729380936,0.3204394598305953,-1.022354467078685
1688152505555630,0.7476920729380936,0.44251163500416624,-1.052872510872021
1688152505571615,0.7782101167315432,0.4730296787976158,-1.052872510872021
1688152505587599,0.7171740291447577,0.3204394598305953,-1.022354467078685
1688152505603584,0.7782101167315432,0.41199359121083035,-1.052872510872021
1688152505619568,0.8087281605248791,0.4730296787976158,-0.9918364232852355
1688152505635553,0.8392462043183286,0.5035477225909517,-0.9918364232852355
1688152505651538,0.8087281605248791,0.3509575036240449,-1.052872510872021
1688152505667522,0.7782101167315432,0.44251163500416624,-1.022354467078685
1688152505683507,0.8087281605248791,0.5035477225909517,-1.0833905546654705
1688152505699491,0.8087281605248791,0.41199359121083035,-1.052872510872021
1688152505715476,0.7476920729380936,0.38147554741738077,-1.022354467078685
1688152505731460,0.7476920729380936,0.3509575036240449,-1.022354467078685
1688152505747445,0.7171740291447577,0.5340657663844013,-1.052872510872021
1688152505763429,0.7476920729380936,0.4730296787976158,-1.022354467078685
1688152505779414,0.6866559853513081,0.38147554741738077,-1.1139085984588064
1688152505795257,0.7476920729380936,0.3509575036240449,-1.0833905546654705
1688152505811241,0.7782101167315432,0.41199359121083035,-1.0833905546654705
1688152505827225,0.7476920729380936,0.5340657663844013,-1.0833905546654705
1688152505843209,0.7171740291447577,0.38147554741738077,-1.0833905546654705
1688152505859193,0.6866559853513081,0.41199359121083035,-1.052872510872021
1688152505875177,0.7782101167315432,0.4730296787976158,-1.022354467078685
1688152505891162,0.7782101167315432,0.5035477225909517,-1.022354467078685
1688152505907146,0.7476920729380936,0.38147554741738077,-1.022354467078685
1688152505923130,0.6866559853513081,0.3509575036240449,-1.052872510872021
1688152505939114,0.7171740291447577,0.5340657663844013,-1.052872510872021
1688152505955098,0.8087281605248791,0.5035477225909517,-1.1139085984588064
1688152505971082,0.7171740291447577,0.3204394598305953,-1.0833905546654705
1688152505987066,0.7782101167315432,0.3204394598305953,-1.052872510872021
1688152506003050,0.7476920729380936,0.44251163500416624,-1.022354467078685
1688152506019034,0.7782101167315432,0.5035477225909517,-1.052872510872021
1688152506035018,0.7476920729380936,0.38147554741738077,-1.0833905546654705
1688152506051002,0.8087281605248791,0.3509575036240449,-1.1139085984588064
1688152506066986,0.8087281605248791,0.5035477225909517,-1.0833905546654705
1688152506082970,0.8087281605248791,0.5035477225909517,-1.052872510872021
1688152506098954,0.7476920729380936,0.38147554741738077,-1.052872510872021
1688152506114776,0.7476920729380936,0.2899214160372594,-1.022354467078685
1688152506130759,0.7171740291447577,0.44251163500416624,-0.9918364232852355
1688152506146742,0.7782101167315432,0.5340657663844013,-0.9918364232852355
1688152506162726,0.7476920729380936,0.41199359121083035,-1.022354467078685
1688152506178709,0.7171740291447577,0.3204394598305953,-1.052872510872021
1688152506194692,0.7476920729380936,0.4730296787976158,-1.052872510872021
1688152506210675,0.7476920729380936,0.5340657663844013,-1.052872510872021
1688152506226658,0.7782101167315432,0.44251163500416624,-1.052872510872021
1688152506242641,0.7171740291447577,0.38147554741738077,-1.052872510872021
1688152506258624,0.7782101167315432,0.5035477225909517,-1.1139085984588064
1688152506274607,0.7476920729380936,0.4730296787976158,-1.0833905546654705
1688152506290590,0.7782101167315432,0.3509575036240449,-1.0833905546654705
1688152506306573,0.7782101167315432,0.38147554741738077,-1.0833905546654705
1688152506322557,0.7782101167315432,0.5035477225909517,-1.022354467078685
1688152506338540,0.7476920729380936,0.5645838101777372,-1.052872510872021
1688152506354523,0.8087281605248791,0.4730296787976158,-1.022354467078685
1688152506370506,0.8087281605248791,0.2594033722438098,-1.052872510872021
1688152506386489,0.7782101167315432,0.44251163500416624,-1.052872510872021
1688152506402472,0.7782101167315432,0.44251163500416624,-1.052872510872021
1688152506418455,0.7476920729380936,0.4730296787976158,-1.052872510872021
1688152506434326,0.7476920729380936,0.3509575036240449,-1.022354467078685
1688152506450308,0.7782101167315432,0.41199359121083035,-1.022354467078685
1688152506466291,0.8087281605248791,0.5035477225909517,-1.0833905546654705
1688152506482274,0.7782101167315432,0.4730296787976158,-1.052872510872021
1688152506498256,0.6866559853513081,0.3204394598305953,-1.052872510872021
1688152506514239,0.7171740291447577,0.4730296787976158,-1.0833905546654705
1688152506530222,0.7171740291447577,0.5340657663844013,-1.052872510872021
1688152506546204,0.7476920729380936,0.4730296787976158,-1.0833905546654705
1688152506562187,0.7476920729380936,0.3509575036240449,-1.052872510872021
1688152506578169,0.7782101167315432,0.38147554741738077,-0.9613183794918996
1688152506594152,0.8087281605248791,0.6256198977645226,-1.0833905546654705
1688152506610135,0.8087281605248791,0.2594033722438098,-1.1139085984588064
1688152506626117,0.7782101167315432,0.38147554741738077,-1.052872510872021
1688152506642100,0.7171740291447577,0.41199359121083035,-1.0833905546654705
1688152506658083,0.7171740291447577,0.5951018539711868,-1.022354467078685
1688152506674065,0.8087281605248791,0.38147554741738077,-1.052872510872021
1688152506690048,0.7171740291447577,0.3204394598305953,-1.0833905546654705
1688152506706030,0.7476920729380936,0.3509575036240449,-1.0833905546654705
1688152506722013,0.7782101167315432,0.4730296787976158,-1.022354467078685
1688152506737996,0.7476920729380936,0.5951018539711868,-1.022354467078685
1688152506753845,0.7476920729380936,0.3204394598305953,-1.022354467078685
1688152506769827,0.7782101167315432,0.44251163500416624,-1.0833905546654705
1688152506785809,0.8087281605248791,0.44251163500416624,-1.0833905546654705
1688152506801791,0.8087281605248791,0.44251163500416624,-1.0833905546654705
1688152506817773,0.7171740291447577,0.3204394598305953,-1.0833905546654705
1688152506833756,0.7171740291447577,0.41199359121083035,-1.1139085984588064
1688152506849738,0.8087281605248791,0.38147554741738077,-1.022354467078685
1688152506865720,0.7782101167315432,0.44251163500416624,-1.022354467078685
1688152506881702,0.7476920729380936,0.44251163500416624,-1.0833905546654705
1688152506897684,0.7476920729380936,0.41199359121083035,-1.052872510872021
1688152506913666,0.7782101167315432,0.5035477225909517,-1.022354467078685
1688152506929649,0.7782101167315432,0.41199359121083035,-1.0833905546654705
1688152506945631,0.7476920729380936,0.38147554741738077,-1.052872510872021
1688152506961613,0.7476920729380936,0.44251163500416624,-1.022354467078685
1688152506977595,0.8087281605248791,0.44251163500416624,-0.9918364232852355
1688152506993577,0.8087281605248791,0.41199359121083035,-1.052872510872021
1688152507009559,0.7782101167315432,0.3204394598305953,-1.0833905546654705
1688152507025541,0.8392462043183286,0.3204394598305953,-1.052872510872021
1688152507041524,0.7476920729380936,0.5645838101777372,-1.022354467078685
1688152507057506,0.7476920729380936,0.44251163500416624,-1.022354467078685
1688152507073364,0.7476920729380936,0.41199359121083035,-1.052872510872021
1688152507089346,0.8087281605248791,0.44251163500416624,-1.052872510872021
1688152507105327,0.8392462043183286,0.4730296787976158,-0.9918364232852355
1688152507121309,0.7782101167315432,0.41199359121083035,-1.0833905546654705
1688152507137291,0.7476920729380936,0.3204394598305953,-1.022354467078685
1688152507153272,0.8087281605248791,0.3204394598305953,-1.022354467078685
1688152507169254,0.8087281605248791,0.4730296787976158,-1.022354467078685
1688152507185236,0.8087281605248791,0.4730296787976158,-1.022354467078685
1688152507201217,0.7171740291447577,0.2899214160372594,-1.052872510872021
1688152507217199,0.8087281605248791,0.41199359121083035,-1.0833905546654705
1688152507233181,0.8697642481116645,0.5645838101777372,-1.052872510872021
1688152507249162,0.8087281605248791,0.4730296787976158,-1.0833905546654705
1688152507265144,0.7476920729380936,0.38147554741738077,-1.1139085984588064
1688152507281126,0.7476920729380936,0.3509575036240449,-1.022354467078685
1688152507297107,0.7171740291447577,0.5951018539711868,-1.052872510872021
1688152507313089,0.7782101167315432,0.5035477225909517,-1.144426642252256
1688152507329071,0.7476920729380936,0.3204394598305953,-1.0833905546654705
1688152507345052,0.7171740291447577,0.38147554741738077,-1.052872510872021
1688152507361034,0.8087281605248791,0.5340657663844013,-1.0833905546654705
1688152507377016,0.7782101167315432,0.38147554741738077,-1.0833905546654705
1688152507392883,0.7782101167315432,0.3204394598305953,-1.0833905546654705
1688152507408864,0.7782101167315432,0.3509575036240449,-1.052872510872021
1688152507424845,0.7476920729380936,0.4730296787976158,-1.022354467078685
1688152507440827,0.7782101167315432,0.5035477225909517,-1.022354467078685
1688152507456808,0.7782101167315432,0.38147554741738077,-0.9918364232852355
1688152507472789,0.6866559853513081,0.38147554741738077,-1.0833905546654705
1688152507488770,0.7782101167315432,0.4730296787976158,-1.022354467078685
1688152507504751,0.8087281605248791,0.5340657663844013,-1.052872510872021
1688152507520733,0.7476920729380936,0.3509575036240449,-1.0833905546654705
1688152507536714,0.7476920729380936,0.3204394598305953,-1.022354467078685
1688152507552695,0.7782101167315432,0.5035477225909517,-1.022354467078685
1688152507568676,0.7782101167315432,0.5340657663844013,-1.0833905546654705
1688152507584657,0.6866559853513081,0.44251163500416624,-1.022354467078685
1688152507600638,0.7476920729380936,0.3509575036240449,-1.052872510872021
1688152507616620,0.8392462043183286,0.5340657663844013,-1.052872510872021
1688152507632601,0.7476920729380936,0.4730296787976158,-1.1139085984588064
1688152507648582,0.6866559853513081,0.38147554741738077,-1.052872510872021
1688152507664563,0.7171740291447577,0.3509575036240449,-1.052872510872021
1688152507680544,0.7782101167315432,0.5035477225909517,-1.052872510872021
1688152507696526,0.8392462043183286,0.5035477225909517,-1.052872510872021
1688152507712432,0.7476920729380936,0.3204394598305953,-1.052872510872021
1688152507728413,0.7171740291447577,0.3204394598305953,-1.052872510872021
1688152507744394,0.8087281605248791,0.44251163500416624,-1.052872510872021
1688152507760375,0.8392462043183286,0.5035477225909517,-1.022354467078685
1688152507776355,0.8087281605248791,0.3509575036240449,-1.022354467078685
1688152507792336,0.7476920729380936,0.3204394598305953,-1.052872510872021
1688152507808317,0.7782101167315432,0.4730296787976158,-1.052872510872021
1688152507824298,0.8392462043183286,0.5035477225909517,-1.052872510872021
1688152507840278,0.7782101167315432,0.3509575036240449,-1.0833905546654705
1688152507856259,0.7782101167315432,0.38147554741738077,-1.052872510872021
1688152507872240,0.7782101167315432,0.5340657663844013,-1.052872510872021
1688152507888220,0.8087281605248791,0.5035477225909517,-1.022354467078685
1688152507904201,0.8087281605248791,0.38147554741738077,-1.022354467078685
1688152507920182,0.6866559853513081,0.3204394598305953,-1.1139085984588064
1688152507936163,0.8392462043183286,0.5035477225909517,-1.144426642252256
1688152507952143,0.8392462043183286,0.4730296787976158,-1.0833905546654705
1688152507968124,0.8087281605248791,0.41199359121083035,-1.0833905546654705
1688152507984105,0.7476920729380936,0.3204394598305953,-1.052872510872021
1688152508000085,0.7476920729380936,0.41199359121083035,-1.052872510872021
1688152508016066,0.7476920729380936,0.5035477225909517,-1.052872510872021
1688152508031952,0.7476920729380936,0.3509575036240449,-1.0833905546654705
1688152508047932,0.7171740291447577,0.3204394598305953,-1.052872510872021
1688152508063913,0.7782101167315432,0.41199359121083035,-1.052872510872021
1688152508079894,0.8087281605248791,0.4730296787976158,-1.022354467078685
1688152508095874,0.8087281605248791,0.3509575036240449,-1.022354467078685
1688152508111855,0.7476920729380936,0.3204394598305953,-1.052872510872021
1688152508127836,0.7782101167315432,0.44251163500416624,-1.022354467078685
1688152508143817,0.7782101167315432,0.5035477225909517,-1.0833905546654705
1688152508159797,0.7476920729380936,0.44251163500416624,-1.0833905546654705
1688152508175778,0.8087281605248791,0.3509575036240449,-1.052872510872021
1688152508191759,0.7782101167315432,0.41199359121083035,-1.052872510872021
1688152508207739,0.8087281605248791,0.4730296787976158,-0.9918364232852355
1688152508223720,0.7782101167315432,0.4730296787976158,-1.052872510872021
1688152508239701,0.7476920729380936,0.3509575036240449,-1.022354467078685
1688152508255682,0.8087281605248791,0.41199359121083035,-1.022354467078685
1688152508271662,0.7476920729380936,0.5645838101777372,-1.022354467078685
1688152508287643,0.7476920729380936,0.41199359121083035,-1.052872510872021
1688152508303624,0.7476920729380936,0.3509575036240449,-1.022354467078685
1688152508319604,0.7476920729380936,0.38147554741738077,-1.052872510872021
1688152508335585,0.7782101167315432,0.5951018539711868,-1.1139085984588064
1688152508351471,0.8087281605248791,0.44251163500416624,-1.052872510872021
1688152508367451,0.7476920729380936,0.2899214160372594,-1.052872510872021
1688152508383431,0.7171740291447577,0.3509575036240449,-1.0833905546654705
1688152508399411,0.8087281605248791,0.5035477225909517,-1.022354467078685
1688152508415392,0.8087281605248791,0.4730296787976158,-1.1139085984588064
1688152508431372,0.7476920729380936,0.38147554741738077,-1.052872510872021
1688152508447352,0.7476920729380936,0.44251163500416624,-1.052872510872021
1688152508463332,0.7782101167315432,0.5035477225909517,-1.0833905546654705
1688152508479313,0.6866559853513081,0.41199359121083035,-1.052872510872021
1688152508495293,0.6866559853513081,0.3204394598305953,-1.022354467078685
1688152508511273,0.7171740291447577,0.41199359121083035,-1.1139085984588064
1688152508527253,0.7782101167315432,0.5035477225909517,-1.0833905546654705
1688152508543233,0.7476920729380936,0.41199359121083035,-1.0833905546654705
1688152508559214,0.6866559853513081,0.41199359121083035,-1.022354467078685
1688152508575194,0.7476920729380936,0.44251163500416624,-1.022354467078685
1688152508591174,0.8087281605248791,0.5035477225909517,-1.052872510872021
1688152508607154,0.8087281605248791,0.44251163500416624,-1.0833905546654705
1688152508623135,0.7171740291447577,0.3204394598305953,-1.0833905546654705
1688152508639115,0.7171740291447577,0.44251163500416624,-1.052872510872021
1688152508655095,0.7476920729380936,0.5035477225909517,-1.052872510872021
1688152508670990,0.7782101167315432,0.44251163500416624,-1.052872510872021
1688152508686969,0.7171740291447577,0.3204394598305953,-1.022354467078685
1688152508702949,0.7171740291447577,0.44251163500416624,-1.0833905546654705
1688152508718929,0.8392462043183286,0.5035477225909517,-1.022354467078685
1688152508734909,0.8087281605248791,0.44251163500416624,-1.022354467078685
1688152508750888,0.7476920729380936,0.3509575036240449,-1.052872510872021
1688152508766868,0.7782101167315432,0.44251163500416624,-1.022354467078685
1688152508782848,0.7782101167315432,0.5340657663844013,-1.0833905546654705
1688152508798828,0.7782101167315432,0.38147554741738077,-1.0833905546654705
1688152508814808,0.7171740291447577,0.44251163500416624,-1.052872510872021
1688152508830787,0.7476920729380936,0.19836728465702436,-0.9613183794918996
1688152508846767,0.7782101167315432,0.6866559853513081,-1.052872510872021
1688152508862747,0.7476920729380936,0.3509575036240449,-1.1139085984588064
1688152508878727,0.6866559853513081,0.3509575036240449,-1.0833905546654705
1688152508894706,0.7171740291447577,0.44251163500416624,-1.0833905546654705
1688152508910686,0.7782101167315432,0.3509575036240449,-1.052872510872021
1688152508926666,0.8087281605248791,0.5340657663844013,-1.022354467078685
1688152508942646,0.7171740291447577,0.1373311970702389,-0.9918364232852355
1688152508958625,0.7476920729380936,0.5645838101777372,-1.022354467078685
1688152508974605,0.8087281605248791,0.38147554741738077,-1.052872510872021
1688152508990539,0.8087281605248791,0.4730296787976158,-1.022354467078685
1688152509006519,0.7782101167315432,0.2899214160372594,-1.052872510872021
1688152509022499,0.7171740291447577,0.38147554741738077,-1.022354467078685
1688152509038478,0.7782101167315432,0.5340657663844013,-1.052872510872021
1688152509054458,0.7476920729380936,0.4730296787976158,-1.0833905546654705
1688152509070438,0.6866559853513081,0.5035477225909517,-1.0833905546654705
1688152509086418,0.7171740291447577,0.2594033722438098,-1.022354467078685
1688152509102398,0.7476920729380936,0.6256198977645226,-1.022354467078685
1688152509118377,0.8087281605248791,0.41199359121083035,-1.022354467078685
1688152509134357,0.6866559853513081,0.44251163500416624,-1.052872510872021
1688152509150337,0.7476920729380936,0.3509575036240449,-1.052872510872021
1688152509166317,0.8087281605248791,0.4730296787976158,-1.022354467078685
1688152509182296,0.7782101167315432,0.44251163500416624,-1.052872510872021
1688152509198276,0.7476920729380936,0.3204394598305953,-1.0833905546654705
1688152509214256,0.7476920729380936,0.4730296787976158,-1.0833905546654705
1688152509230236,0.7171740291447577,0.4730296787976158,-1.0833905546654705
1688152509246215,0.7782101167315432,0.5645838101777372,-1.0833905546654705
1688152509262195,0.7476920729380936,0.2594033722438098,-1.0833905546654705
1688152509278175,0.7476920729380936,0.44251163500416624,-1.022354467078685
1688152509294155,0.7782101167315432,0.4730296787976158,-0.9613183794918996
1688152509310058,0.7782101167315432,0.4730296787976158,-1.022354467078685
1688152509326038,0.6561379415579722,0.38147554741738077,-1.0833905546654705
1688152509342017,0.7171740291447577,0.3509575036240449,-1.0833905546654705
1688152509357996,0.7782101167315432,0.5035477225909517,-1.0833905546654705
1688152509373975,0.8697642481116645,0.44251163500416624,-1.0833905546654705
1688152509389955,0.7476920729380936,0.4730296787976158,-1.0833905546654705
1688152509405934,0.7171740291447577,0.3509575036240449,-1.052872510872021
1688152509421913,0.7782101167315432,0.4730296787976158,-1.0833905546654705
1688152509437893,0.7782101167315432,0.5340657663844013,-1.0833905546654705
1688152509453872,0.8087281605248791,0.44251163500416624,-1.0833905546654705
1688152509469851,0.7782101167315432,0.3509575036240449,-1.0833905546654705
1688152509485830,0.8087281605248791,0.38147554741738077,-1.022354467078685
1688152509501810,0.7782101167315432,0.5035477225909517,-1.022354467078685
1688152509517789,0.7171740291447577,0.41199359121083035,-1.052872510872021
1688152509533768,0.7171740291447577,0.3509575036240449,-1.0833905546654705
1688152509549748,0.7476920729380936,0.44251163500416624,-1.052872510872021
1688152509565727,0.8087281605248791,0.5340657663844013,-1.052872510872021
1688152509581706,0.7782101167315432,0.38147554741738077,-1.052872510872021
1688152509597685,0.7476920729380936,0.3509575036240449,-1.052872510872021
1688152509613665,0.7171740291447577,0.4730296787976158,-1.052872510872021
1688152509629547,0.7476920729380936,0.5645838101777372,-1.052872510872021
1688152509645526,0.7782101167315432,0.4730296787976158,-1.0833905546654705
1688152509661504,0.7782101167315432,0.38147554741738077,-1.022354467078685
1688152509677483,0.7476920729380936,0.4730296787976158,-1.052872510872021
1688152509693462,0.7476920729380936,0.44251163500416624,-1.022354467078685
1688152509709441,0.7171740291447577,0.3509575036240449,-1.052872510872021
1688152509725420,0.7476920729380936,0.3509575036240449,-1.0833905546654705
1688152509741398,0.8087281605248791,0.44251163500416624,-1.0833905546654705
1688152509757377,0.7782101167315432,0.4730296787976158,-1.0833905546654705
1688152509773356,0.7782101167315432,0.3509575036240449,-1.0833905546654705
1688152509789335,0.8087281605248791,0.3204394598305953,-1.0833905546654705
1688152509805314,0.8392462043183286,0.44251163500416624,-1.0833905546654705
1688152509821293,0.8392462043183286,0.5035477225909517,-1.022354467078685
1688152509837271,0.7476920729380936,0.38147554741738077,-1.022354467078685
1688152509853250,0.7476920729380936,0.38147554741738077,-1.0833905546654705
1688152509869229,0.7476920729380936,0.4730296787976158,-1.0833905546654705
1688152509885208,0.7476920729380936,0.4730296787976158,-1.052872510872021
1688152509901187,0.7171740291447577,0.38147554741738077,-1.022354467078685
1688152509917165,0.7476920729380936,0.3509575036240449,-1.052872510872021
1688152509933144,0.8087281605248791,0.41199359121083035,-1.052872510872021
1688152509949066,0.8087281605248791,0.5340657663844013,-1.052872510872021
1688152509965045,0.8392462043183286,0.44251163500416624,-0.9918364232852355
1688152509981023,0.7782101167315432,0.3204394598305953,-1.1139085984588064
1688152509997002,0.8392462043183286,0.5035477225909517,-1.052872510872021
1688152510012981,0.8697642481116645,0.4730296787976158,-0.9918364232852355
1688152510028960,0.7782101167315432,0.41199359121083035,-1.0833905546654705
1688152510044939,0.7476920729380936,0.41199359121083035,-1.022354467078685
1688152510060917,0.7476920729380936,0.4730296787976158,-1.0833905546654705
1688152510076896,0.8087281605248791,0.5035477225909517,-1.052872510872021
1688152510092875,0.7476920729380936,0.41199359121083035,-1.022354467078685
1688152510108854,0.6866559853513081,0.3509575036240449,-1.022354467078685
1688152510124833,0.7171740291447577,0.44251163500416624,-1.052872510872021
1688152510140812,0.7782101167315432,0.4730296787976158,-1.052872510872021
1688152510156790,0.7782101167315432,0.4730296787976158,-1.0833905546654705
1688152510172769,0.7782101167315432,0.3204394598305953,-1.1139085984588064
1688152510188748,0.7782101167315432,0.4730296787976158,-1.022354467078685
1688152510204727,0.8392462043183286,0.5035477225909517,-1.052872510872021
1688152510220706,0.8087281605248791,0.41199359121083035,-1.022354467078685
1688152510236684,0.7476920729380936,0.3204394598305953,-1.052872510872021
1688152510252663,0.7476920729380936,0.3509575036240449,-1.022354467078685
1688152510268585,0.7782101167315432,0.4730296787976158,-1.052872510872021
1688152510284563,0.7476920729380936,0.5035477225909517,-1.052872510872021
1688152510300542,0.7171740291447577,0.41199359121083035,-1.052872510872021
1688152510316520,0.7476920729380936,0.44251163500416624,-1.052872510872021
1688152510332498,0.7171740291447577,0.44251163500416624,-1.022354467078685
1688152510348477,0.8087281605248791,0.44251163500416624,-1.052872510872021
1688152510364455,0.7476920729380936,0.3204394598305953,-1.0833905546654705
1688152510380433,0.8087281605248791,0.38147554741738077,-1.022354467078685
1688152510396412,0.7782101167315432,0.5340657663844013,-1.022354467078685
1688152510412390,0.7476920729380936,0.4730296787976158,-1.0833905546654705
1688152510428368,0.7171740291447577,0.3509575036240449,-1.144426642252256
1688152510444347,0.7782101167315432,0.3509575036240449,-1.0833905546654705
1688152510460325,0.7782101167315432,0.5340657663844013,-1.052872510872021
1688152510476303,0.7171740291447577,0.4730296787976158,-1.052872510872021
1688152510492282,0.7476920729380936,0.3509575036240449,-1.022354467078685
1688152510508260,0.7782101167315432,0.3204394598305953,-1.022354467078685
1688152510524238,0.8087281605248791,0.4730296787976158,-0.9918364232852355
1688152510540217,0.7476920729380936,0.4730296787976158,-1.0833905546654705
1688152510556195,0.7171740291447577,0.41199359121083035,-1.0833905546654705
1688152510572173,0.7476920729380936,0.38147554741738077,-1.052872510872021
1688152510588104,0.8087281605248791,0.38147554741738077,-0.9918364232852355
1688152510604082,0.7476920729380936,0.4730296787976158,-1.052872510872021
1688152510620061,0.7782101167315432,0.38147554741738077,-1.1139085984588064
1688152510636039,0.7171740291447577,0.3509575036240449,-1.0833905546654705
1688152510652017,0.8087281605248791,0.4730296787976158,-1.052872510872021
1688152510667996,0.7476920729380936,0.5035477225909517,-0.9918364232852355
1688152510683974,0.7171740291447577,0.38147554741738077,-1.022354467078685
1688152510699952,0.7782101167315432,0.2899214160372594,-1.022354467078685
1688152510715931,0.7782101167315432,0.4730296787976158,-1.052872510872021
1688152510731909,0.7782101167315432,0.5340657663844013,-1.0833905546654705
1688152510747887,0.7476920729380936,0.41199359121083035,-1.0833905546654705
1688152510763866,0.7782101167315432,0.38147554741738077,-1.052872510872021
1688152510779844,0.8087281605248791,0.44251163500416624,-1.0833905546654705
1688152510795822,0.8392462043183286,0.5035477225909517,-1.052872510872021
1688152510811801,0.7171740291447577,0.2899214160372594,-1.022354467078685
1688152510827779,0.7171740291447577,0.3204394598305953,-1.1139085984588064
1688152510843757,0.7171740291447577,0.5035477225909517,-1.1139085984588064
1688152510859736,0.7171740291447577,0.44251163500416624,-1.052872510872021
1688152510875714,0.6866559853513081,0.41199359121083035,-1.052872510872021
1688152510891692,0.7476920729380936,0.38147554741738077,-1.022354467078685
1688152510907653,0.8392462043183286,0.5035477225909517,-1.022354467078685
1688152510923632,0.7476920729380936,0.4730296787976158,-1.022354467078685
1688152510939610,0.6866559853513081,0.3204394598305953,-1.052872510872021
1688152510955588,0.7476920729380936,0.3204394598305953,-1.0833905546654705
1688152510971567,0.7171740291447577,0.4730296787976158,-0.9918364232852355
1688152510987545,0.6866559853513081,0.5340657663844013,-1.022354467078685
1688152511003523,0.7476920729380936,0.3204394598305953,-1.052872510872021
1688152511019502,0.7782101167315432,0.3204394598305953,-1.052872510872021
1688152511035480,0.7782101167315432,0.44251163500416624,-1.022354467078685
1688152511051458,0.8087281605248791,0.4730296787976158,-1.022354467078685
1688152511067437,0.7782101167315432,0.38147554741738077,-1.022354467078685
1688152511083415,0.7782101167315432,0.38147554741738077,-1.022354467078685
1688152511099393,0.7476920729380936,0.41199359121083035,-1.052872510872021
1688152511115372,0.7782101167315432,0.4730296787976158,-1.1139085984588064
1688152511131350,0.7476920729380936,0.38147554741738077,-1.1139085984588064
1688152511147328,0.6866559853513081,0.44251163500416624,-1.0833905546654705
1688152511163307,0.7782101167315432,0.5035477225909517,-1.0833905546654705
1688152511179285,0.7782101167315432,0.5645838101777372,-1.0833905546654705
1688152511195263,0.8087281605248791,0.41199359121083035,-1.0833905546654705
1688152511211242,0.8087281605248791,0.38147554741738077,-1.052872510872021
1688152511227172,0.8392462043183286,0.41199359121083035,-1.052872510872021
1688152511243150,0.8392462043183286,0.5035477225909517,-1.052872510872021
1688152511259128,0.7171740291447577,0.38147554741738077,-1.052872510872021
1688152511275106,0.7476920729380936,0.3509575036240449,-1.0833905546654705
1688152511291084,0.8087281605248791,0.5035477225909517,-1.0833905546654705
1688152511307062,0.7476920729380936,0.5035477225909517,-1.052872510872021
1688152511323040,0.7782101167315432,0.38147554741738077,-1.0833905546654705
1688152511339017,0.7782101167315432,0.44251163500416624,-1.0833905546654705
1688152511354995,0.8392462043183286,0.5035477225909517,-1.022354467078685
1688152511370973,0.8087281605248791,0.5340657663844013,-0.9918364232852355
1688152511386951,0.7782101167315432,0.41199359121083035,-1.052872510872021
1688152511402929,0.7476920729380936,0.41199359121083035,-1.052872510872021
1688152511418907,0.8087281605248791,0.4730296787976158,-1.052872510872021
1688152511434885,0.8087281605248791,0.5340657663844013,-1.0833905546654705
1688152511450863,0.7171740291447577,0.38147554741738077,-1.052872510872021
1688152511466840,0.6866559853513081,0.3509575036240449,-1.0833905546654705
1688152511482818,0.8087281605248791,0.41199359121083035,-1.0833905546654705
1688152511498796,0.7782101167315432,0.5035477225909517,-1.0833905546654705
1688152511514774,0.8087281605248791,0.38147554741738077,-1.0833905546654705
1688152511530752,0.7476920729380936,0.38147554741738077,-1.0833905546654705
1688152511546692,0.7782101167315432,0.41199359121083035,-1.022354467078685
1688152511562669,0.7782101167315432,0.5645838101777372,-1.0833905546654705
1688152511578647,0.7782101167315432,0.3204394598305953,-1.1139085984588064
1688152511594625,0.7171740291447577,0.41199359121083035,-1.052872510872021
1688152511610603,0.7476920729380936,0.4730296787976158,-1.022354467078685
1688152511626581,0.8087281605248791,0.5645838101777372,-1.022354467078685
1688152511642559,0.7782101167315432,0.3509575036240449,-1.022354467078685
1688152511658537,0.7171740291447577,0.3204394598305953,-1.052872510872021
1688152511674514,0.7171740291447577,0.44251163500416624,-1.052872510872021
1688152511690492,0.7476920729380936,0.5035477225909517,-1.052872510872021
1688152511706470,0.7782101167315432,0.38147554741738077,-1.052872510872021
1688152511722448,0.6866559853513081,0.2899214160372594,-1.052872510872021
1688152511738426,0.7476920729380936,0.44251163500416624,-1.052872510872021
1688152511754404,0.7782101167315432,0.5645838101777372,-1.052872510872021
1688152511770382,0.7476920729380936,0.44251163500416624,-1.022354467078685
1688152511786359,0.6561379415579722,0.3509575036240449,-1.052872510872021
1688152511802337,0.7782101167315432,0.44251163500416624,-1.022354467078685
1688152511818315,0.8087281605248791,0.5035477225909517,-1.022354467078685
1688152511834293,0.7476920729380936,0.44251163500416624,-1.022354467078685
1688152511850271,0.7171740291447577,0.41199359121083035,-1.052872510872021
1688152511866211,0.8087281605248791,0.38147554741738077,-1.052872510872021
1688152511882188,0.7782101167315432,0.5035477225909517,-1.052872510872021
1688152511898166,0.7476920729380936,0.44251163500416624,-1.1139085984588064
1688152511914144,0.7476920729380936,0.38147554741738077,-1.0833905546654705
1688152511930122,0.8392462043183286,0.41199359121083035,-1.1139085984588064
1688152511946100,0.8087281605248791,0.5340657663844013,-1.052872510872021
1688152511962078,0.7782101167315432,0.44251163500416624,-1.052872510872021
1688152511978056,0.6866559853513081,0.2594033722438098,-1.0833905546654705
1688152511994033,0.7171740291447577,0.38147554741738077,-1.022354467078685
1688152512010011,0.7476920729380936,0.44251163500416624,-1.0833905546654705
1688152512025989,0.7782101167315432,0.5340657663844013,-1.1139085984588064
1688152512041967,0.7782101167315432,0.38147554741738077,-1.0833905546654705
1688152512057945,0.7171740291447577,0.4730296787976158,-1.0833905546654705
1688152512073923,0.8087281605248791,0.5340657663844013,-1.022354467078685
1688152512089901,0.7782101167315432,0.44251163500416624,-1.0833905546654705
1688152512105878,0.7476920729380936,0.3204394598305953,-1.0833905546654705
1688152512121856,0.7782101167315432,0.38147554741738077,-1.052872510872021
1688152512137834,0.8392462043183286,0.5645838101777372,-1.022354467078685
1688152512153812,0.8087281605248791,0.44251163500416624,-1.052872510872021
1688152512169790,0.8087281605248791,0.41199359121083035,-1.052872510872021
1688152512185730,0.7476920729380936,0.3509575036240449,-1.022354467078685
1688152512201707,0.7782101167315432,0.44251163500416624,-1.052872510872021
1688152512217684,0.8697642481116645,0.4730296787976158,-1.022354467078685
1688152512233662,0.7782101167315432,0.3509575036240449,-1.022354467078685
1688152512249639,0.7476920729380936,0.3509575036240449,-0.9918364232852355
1688152512265617,0.8087281605248791,0.44251163500416624,-1.022354467078685
1688152512281594,0.8087281605248791,0.5340657663844013,-1.144426642252256
1688152512297571,0.8087281605248791,0.3509575036240449,-1.0833905546654705
1688152512313549,0.7782101167315432,0.4730296787976158,-1.052872510872021
1688152512329526,0.7782101167315432,0.5035477225909517,-1.0833905546654705
1688152512345503,0.8087281605248791,0.5035477225909517,-1.022354467078685
1688152512361481,0.8087281605248791,0.2594033722438098,-1.1139085984588064
1688152512377458,0.7476920729380936,0.2899214160372594,-1.052872510872021
1688152512393436,0.7782101167315432,0.4730296787976158,-1.052872510872021
1688152512409413,0.7476920729380936,0.5035477225909517,-1.022354467078685
1688152512425390,0.7782101167315432,0.3204394598305953,-1.0833905546654705
1688152512441368,0.7782101167315432,0.3204394598305953,-1.052872510872021
1688152512457345,0.7782101167315432,0.5035477225909517,-1.022354467078685
1688152512473322,0.7782101167315432,0.5035477225909517,-0.9918364232852355
1688152512489300,0.7782101167315432,0.3509575036240449,-1.052872510872021
1688152512505249,0.7476920729380936,0.38147554741738077,-1.052872510872021
1688152512521226,0.7782101167315432,0.5035477225909517,-1.052872510872021
1688152512537203,0.8087281605248791,0.5645838101777372,-1.052872510872021
1688152512553181,0.7171740291447577,0.3509575036240449,-1.0833905546654705
1688152512569158,0.7171740291447577,0.3204394598305953,-1.0833905546654705
1688152512585136,0.7171740291447577,0.4730296787976158,-1.052872510872021
1688152512601113,0.7782101167315432,0.4730296787976158,-1.052872510872021
1688152512617090,0.7171740291447577,0.38147554741738077,-1.1139085984588064
1688152512633068,0.7476920729380936,0.22888532845047393,-1.052872510872021
1688152512649045,0.7782101167315432,0.5340657663844013,-1.0833905546654705
1688152512665022,0.8087281605248791,0.5340657663844013,-1.1139085984588064
1688152512681000,0.7782101167315432,0.38147554741738077,-1.144426642252256
1688152512696977,0.7476920729380936,0.3204394598305953,-1.0833905546654705
1688152512712955,0.8087281605248791,0.4730296787976158,-1.0833905546654705
1688152512728932,0.8087281605248791,0.5645838101777372,-0.9918364232852355
1688152512744909,0.7782101167315432,0.38147554741738077,-1.052872510872021
1688152512760887,0.7171740291447577,0.2899214160372594,-1.052872510872021
1688152512776864,0.7171740291447577,0.38147554741738077,-1.052872510872021
1688152512792842,0.8087281605248791,0.5340657663844013,-1.0833905546654705
1688152512808819,0.7782101167315432,0.3509575036240449,-1.0833905546654705
1688152512824768,0.7171740291447577,0.41199359121083035,-1.052872510872021
1688152512840745,0.7782101167315432,0.44251163500416624,-1.0833905546654705
1688152512856722,0.7782101167315432,0.44251163500416624,-1.0833905546654705
1688152512872700,0.8087281605248791,0.38147554741738077,-1.052872510872021
1688152512888677,0.7782101167315432,0.2594033722438098,-1.052872510872021
1688152512904655,0.7476920729380936,0.44251163500416624,-1.052872510872021
1688152512920632,0.7782101167315432,0.44251163500416624,-1.022354467078685
1688152512936609,0.7476920729380936,0.38147554741738077,-1.0833905546654705
1688152512952587,0.7171740291447577,0.3204394598305953,-1.144426642252256
1688152512968564,0.7171740291447577,0.38147554741738077,-1.0833905546654705
1688152512984542,0.7476920729380936,0.5340657663844013,-1.052872510872021
1688152513000519,0.7171740291447577,0.41199359121083035,-1.022354467078685
1688152513016496,0.8087281605248791,0.41199359121083035,-1.022354467078685
1688152513032474,0.7782101167315432,0.44251163500416624,-1.022354467078685
1688152513048451,0.7782101167315432,0.5645838101777372,-1.052872510872021
1688152513064428,0.8087281605248791,0.4730296787976158,-1.022354467078685
1688152513080406,0.7476920729380936,0.41199359121083035,-1.052872510872021
1688152513096383,0.7782101167315432,0.41199359121083035,-1.0833905546654705
1688152513112361,0.7782101167315432,0.4730296787976158,-1.052872510872021
1688152513128338,0.7782101167315432,0.3204394598305953,-1.022354467078685
1688152513144287,0.7782101167315432,0.3204394598305953,-1.022354467078685
1688152513160264,0.8087281605248791,0.44251163500416624,-1.022354467078685
1688152513176241,0.7171740291447577,0.44251163500416624,-1.0833905546654705
1688152513192219,0.8087281605248791,0.5035477225909517,-1.052872510872021
1688152513208196,0.8392462043183286,0.2899214160372594,-1.022354467078685
1688152513224174,0.7782101167315432,0.44251163500416624,-1.052872510872021
1688152513240151,0.7476920729380936,0.4730296787976158,-1.052872510872021
1688152513256128,0.7171740291447577,0.41199359121083035,-1.052872510872021
1688152513272106,0.7171740291447577,0.3204394598305953,-0.9918364232852355
1688152513288083,0.8087281605248791,0.41199359121083035,-1.052872510872021
1688152513304061,0.7782101167315432,0.5645838101777372,-1.052872510872021
1688152513320038,0.7476920729380936,0.38147554741738077,-1.052872510872021
1688152513336015,0.7171740291447577,0.3509575036240449,-1.052872510872021
1688152513351993,0.7171740291447577,0.44251163500416624,-1.022354467078685
1688152513367970,0.7476920729380936,0.5035477225909517,-0.9918364232852355
1688152513383947,0.7782101167315432,0.44251163500416624,-1.052872510872021
1688152513399925,0.6866559853513081,0.3509575036240449,-1.0833905546654705
1688152513415902,0.6866559853513081,0.44251163500416624,-1.052872510872021
1688152513431880,0.7782101167315432,0.5035477225909517,-1.052872510872021
1688152513447857,0.8392462043183286,0.44251163500416624,-1.0833905546654705
1688152513463775,0.7171740291447577,0.3509575036240449,-1.052872510872021
1688152513479752,0.7782101167315432,0.38147554741738077,-1.052872510872021
1688152513495729,0.7782101167315432,0.4730296787976158,-1.052872510872021
1688152513511706,0.7171740291447577,0.41199359121083035,-1.022354467078685
1688152513527683,0.7171740291447577,0.3204394598305953,-1.0833905546654705
1688152513543660,0.7171740291447577,0.3204394598305953,-1.022354467078685
1688152513559637,0.8087281605248791,0.5645838101777372,-1.0833905546654705
1688152513575614,0.8087281605248791,0.41199359121083035,-1.052872510872021
1688152513591591,0.7476920729380936,0.3204394598305953,-1.0833905546654705
1688152513607567,0.7476920729380936,0.38147554741738077,-0.9918364232852355
1688152513623544,0.8392462043183286,0.4730296787976158,-1.052872510872021
1688152513639521,0.7476920729380936,0.44251163500416624,-1.052872510872021
1688152513655498,0.7782101167315432,0.3204394598305953,-0.9918364232852355
1688152513671475,0.6866559853513081,0.41199359121083035,-1.022354467078685
1688152513687452,0.7782101167315432,0.5645838101777372,-1.052872510872021
1688152513703429,0.7476920729380936,0.44251163500416624,-1.022354467078685
1688152513719406,0.7782101167315432,0.3204394598305953,-1.0833905546654705
1688152513735383,0.7476920729380936,0.3509575036240449,-1.052872510872021
1688152513751360,0.8392462043183286,0.5035477225909517,-1.052872510872021
1688152513767336,0.8392462043183286,0.44251163500416624,-1.052872510872021
1688152513783294,0.6866559853513081,0.3204394598305953,-1.052872510872021
1688152513799271,0.7476920729380936,0.4730296787976158,-1.052872510872021
1688152513815248,0.7782101167315432,0.5340657663844013,-1.0833905546654705
1688152513831225,0.8392462043183286,0.4730296787976158,-1.052872510872021
1688152513847202,0.7476920729380936,0.3204394598305953,-1.022354467078685
1688152513863179,0.7782101167315432,0.38147554741738077,-1.022354467078685
1688152513879156,0.7782101167315432,0.44251163500416624,-1.052872510872021
1688152513895133,0.8087281605248791,0.44251163500416624,-1.052872510872021
1688152513911110,0.7171740291447577,0.2899214160372594,-1.052872510872021
1688152513927086,0.7476920729380936,0.3509575036240449,-1.022354467078685
1688152513943063,0.7782101167315432,0.5035477225909517,-1.022354467078685
1688152513959040,0.7476920729380936,0.4730296787976158,-0.9613183794918996
1688152513975017,0.7782101167315432,0.3509575036240449,-1.0833905546654705
1688152513990994,0.7782101167315432,0.3509575036240449,-1.052872510872021
1688152514006971,0.8087281605248791,0.4730296787976158,-0.9918364232852355
1688152514022948,0.8087281605248791,0.5645838101777372,-1.022354467078685
1688152514038925,0.7171740291447577,0.3509575036240449,-1.052872510872021
1688152514054902,0.7171740291447577,0.41199359121083035,-0.9918364232852355
1688152514070879,0.7171740291447577,0.4730296787976158,-0.9918364232852355
1688152514086856,0.8392462043183286,0.4730296787976158,-1.022354467078685
1688152514102783,0.7782101167315432,0.3204394598305953,-1.022354467078685
1688152514118760,0.7476920729380936,0.5645838101777372,-1.0833905546654705
1688152514134737,0.7782101167315432,0.2899214160372594,-1.0833905546654705
1688152514150714,0.7782101167315432,0.5951018539711868,-1.022354467078685
1688152514166690,0.7476920729380936,0.2594033722438098,-1.0833905546654705
1688152514182667,0.7476920729380936,0.4730296787976158,-1.052872510872021
1688152514198644,0.7782101167315432,0.38147554741738077,-1.052872510872021
1688152514214621,0.7782101167315432,0.5340657663844013,-1.052872510872021
1688152514230598,0.7782101167315432,0.41199359121083035,-1.052872510872021
1688152514246575,0.6866559853513081,0.2899214160372594,-1.052872510872021
1688152514262552,0.7476920729380936,0.5645838101777372,-1.022354467078685
1688152514278529,0.8392462043183286,0.41199359121083035,-1.052872510872021
1688152514294506,0.7476920729380936,0.44251163500416624,-1.0833905546654705
1688152514310483,0.7782101167315432,0.2899214160372594,-1.0833905546654705
1688152514326460,0.7476920729380936,0.5035477225909517,-1.022354467078685
1688152514342436,0.8392462043183286,0.4730296787976158,-1.022354467078685
1688152514358413,0.7171740291447577,0.3509575036240449,-1.052872510872021
1688152514374390,0.7171740291447577,0.38147554741738077,-1.052872510872021
1688152514390367,0.7476920729380936,0.4730296787976158,-1.0833905546654705
1688152514406344,0.7476920729380936,0.5340657663844013,-1.052872510872021
1688152514422332,0.7782101167315432,0.3509575036240449,-1.052872510872021
1688152514438309,0.7476920729380936,0.3509575036240449,-1.052872510872021
1688152514454286,0.7171740291447577,0.44251163500416624,-1.0833905546654705
1688152514470263,0.8697642481116645,0.5340657663844013,-1.0833905546654705
1688152514486240,0.7476920729380936,0.44251163500416624,-1.052872510872021
1688152514502217,0.7476920729380936,0.38147554741738077,-1.052872510872021
1688152514518194,0.7782101167315432,0.5035477225909517,-1.052872510872021
1688152514534171,0.8087281605248791,0.41199359121083035,-1.052872510872021
1688152514550148,0.7782101167315432,0.3204394598305953,-1.022354467078685
1688152514566125,0.7171740291447577,0.41199359121083035,-1.052872510872021
1688152514582101,0.7782101167315432,0.38147554741738077,-1.052872510872021
1688152514598078,0.8087281605248791,0.6256198977645226,-1.022354467078685
1688152514614055,0.8087281605248791,0.3204394598305953,-1.052872510872021
1688152514630032,0.7476920729380936,0.41199359121083035,-1.0833905546654705
1688152514646009,0.7782101167315432,0.3204394598305953,-1.0833905546654705
1688152514661986,0.7782101167315432,0.5951018539711868,-1.022354467078685
1688152514677963,0.7476920729380936,0.4730296787976158,-1.022354467078685
1688152514693940,0.6866559853513081,0.3204394598305953,-1.052872510872021
1688152514709917,0.7476920729380936,0.5645838101777372,-1.052872510872021
1688152514725894,0.8087281605248791,0.41199359121083035,-1.022354467078685
1688152514741851,0.7782101167315432,0.5035477225909517,-1.1139085984588064
1688152514757828,0.7782101167315432,0.22888532845047393,-1.0833905546654705
1688152514773804,0.8087281605248791,0.4730296787976158,-1.052872510872021
1688152514789781,0.8392462043183286,0.5951018539711868,-1.052872510872021
1688152514805757,0.7171740291447577,0.3509575036240449,-1.052872510872021
1688152514821734,0.6866559853513081,0.38147554741738077,-1.052872510872021
1688152514837710,0.7782101167315432,0.3509575036240449,-1.022354467078685
1688152514853686,0.8087281605248791,0.5951018539711868,-1.052872510872021
1688152514869663,0.7782101167315432,0.3509575036240449,-1.052872510872021
1688152514885639,0.7476920729380936,0.38147554741738077,-1.0833905546654705
1688152514901616,0.8087281605248791,0.41199359121083035,-0.9918364232852355
1688152514917592,0.8392462043183286,0.5035477225909517,-1.022354467078685
1688152514933569,0.7782101167315432,0.4730296787976158,-1.022354467078685
1688152514949545,0.7476920729380936,0.2594033722438098,-1.052872510872021
1688152514965521,0.8087281605248791,0.38147554741738077,-1.0833905546654705
1688152514981498,0.8087281605248791,0.41199359121083035,-1.052872510872021
1688152514997474,0.7782101167315432,0.4730296787976158,-1.052872510872021
1688152515013451,0.7782101167315432,0.3509575036240449,-1.0833905546654705
1688152515029427,0.8087281605248791,0.3204394598305953,-1.052872510872021
1688152515045404,0.7476920729380936,0.6256198977645226,-1.0833905546654705
1688152515061370,0.7476920729380936,0.38147554741738077,-1.022354467078685
1688152515077347,0.6866559853513081,0.4730296787976158,-1.052872510872021
1688152515093323,0.8392462043183286,0.38147554741738077,-1.052872510872021
1688152515109300,0.7476920729380936,0.5951018539711868,-0.9918364232852355
1688152515125276,0.8087281605248791,0.41199359121083035,-1.022354467078685
1688152515141253,0.7476920729380936,0.2899214160372594,-1.0833905546654705
1688152515157229,0.7476920729380936,0.3509575036240449,-1.0833905546654705
1688152515173205,0.7476920729380936,0.41199359121083035,-1.0833905546654705
1688152515189182,0.7782101167315432,0.4730296787976158,-1.0833905546654705
1688152515205158,0.7782101167315432,0.3204394598305953,-1.052872510872021
1688152515221135,0.8392462043183286,0.5035477225909517,-1.0833905546654705
1688152515237111,0.8392462043183286,0.4730296787976158,-1.052872510872021
1688152515253088,0.7782101167315432,0.5035477225909517,-1.0833905546654705
1688152515269064,0.7782101167315432,0.2899214160372594,-1.052872510872021
1688152515285040,0.7476920729380936,0.3509575036240449,-1.0833905546654705
1688152515301017,0.7782101167315432,0.5645838101777372,-1.0833905546654705
1688152515316993,0.8087281605248791,0.2899214160372594,-1.052872510872021
1688152515332970,0.6866559853513081,0.3509575036240449,-1.1139085984588064
1688152515348946,0.8087281605248791,0.3204394598305953,-1.052872510872021
1688152515364923,0.8087281605248791,0.5645838101777372,-1.052872510872021
1688152515380890,0.8392462043183286,0.5035477225909517,-1.052872510872021
1688152515396866,0.7171740291447577,0.3509575036240449,-1.022354467078685
1688152515412842,0.7782101167315432,0.4730296787976158,-1.052872510872021
1688152515428819,0.7476920729380936,0.44251163500416624,-1.0833905546654705
1688152515444795,0.7476920729380936,0.4730296787976158,-1.0833905546654705
1688152515460772,0.7171740291447577,0.2594033722438098,-1.0833905546654705
1688152515476748,0.7782101167315432,0.38147554741738077,-1.0833905546654705
1688152515492725,0.7782101167315432,0.4730296787976158,-1.052872510872021
1688152515508701,0.8087281605248791,0.44251163500416624,-1.0833905546654705
1688152515524677,0.7476920729380936,0.41199359121083035,-1.052872510872021
1688152515540654,0.7171740291447577,0.41199359121083035,-1.052872510872021
1688152515556630,0.7782101167315432,0.5035477225909517,-1.052872510872021
1688152515572607,0.8087281605248791,0.41199359121083035,-1.0833905546654705
1688152515588583,0.6866559853513081,0.3509575036240449,-1.052872510872021
1688152515604560,0.7476920729380936,0.3204394598305953,-1.022354467078685
1688152515620536,0.8087281605248791,0.5035477225909517,-1.052872510872021
1688152515636512,0.8392462043183286,0.44251163500416624,-1.052872510872021
1688152515652489,0.7782101167315432,0.41199359121083035,-1.022354467078685
1688152515668465,0.7782101167315432,0.3509575036240449,-1.0833905546654705
1688152515684442,0.7782101167315432,0.5645838101777372,-1.052872510872021
1688152515700409,0.8087281605248791,0.5035477225909517,-1.052872510872021
1688152515716385,0.7171740291447577,0.38147554741738077,-1.1139085984588064
1688152515732361,0.7782101167315432,0.3509575036240449,-1.0833905546654705
1688152515748338,0.7476920729380936,0.41199359121083035,-1.052872510872021
1688152515764314,0.8392462043183286,0.5035477225909517,-1.0833905546654705
1688152515780291,0.7476920729380936,0.38147554741738077,-1.0833905546654705
1688152515796267,0.7782101167315432,0.3204394598305953,-1.0833905546654705
1688152515812244,0.7782101167315432,0.4730296787976158,-1.022354467078685
1688152515828220,0.7782101167315432,0.5035477225909517,-1.052872510872021
1688152515844196,0.7476920729380936,0.41199359121083035,-1.1139085984588064
1688152515860173,0.7171740291447577,0.44251163500416624,-1.0833905546654705
1688152515876149,0.7782101167315432,0.5340657663844013,-1.022354467078685
1688152515892126,0.8087281605248791,0.44251163500416624,-1.052872510872021
1688152515908102,0.7476920729380936,0.4730296787976158,-1.052872510872021
1688152515924079,0.6866559853513081,0.3509575036240449,-1.052872510872021
1688152515940055,0.7782101167315432,0.44251163500416624,-1.022354467078685
1688152515956031,0.7782101167315432,0.5035477225909517,-1.022354467078685
1688152515972008,0.7782101167315432,0.38147554741738077,-1.022354467078685
1688152515987984,0.7476920729380936,0.38147554741738077,-1.022354467078685
1688152516003961,0.7782101167315432,0.5035477225909517,-0.9918364232852355
1688152516019928,0.7476920729380936,0.5645838101777372,-1.022354467078685
1688152516035904,0.7476920729380936,0.41199359121083035,-1.0833905546654705
1688152516051880,0.7171740291447577,0.3509575036240449,-1.0833905546654705
1688152516067857,0.7476920729380936,0.3509575036240449,-1.0833905546654705
1688152516083833,0.7782101167315432,0.4730296787976158,-1.022354467078685
1688152516099810,0.7782101167315432,0.38147554741738077,-1.022354467078685
1688152516115786,0.8087281605248791,0.3204394598305953,-1.022354467078685
1688152516131763,0.7782101167315432,0.5035477225909517,-1.052872510872021
1688152516147739,0.7782101167315432,0.4730296787976158,-1.022354467078685
1688152516163715,0.7782101167315432,0.38147554741738077,-1.022354467078685
1688152516179692,0.7171740291447577,0.3204394598305953,-1.052872510872021
1688152516195668,0.6866559853513081,0.5340657663844013,-1.052872510872021
1688152516211645,0.7476920729380936,0.5340657663844013,-1.052872510872021
1688152516227621,0.6866559853513081,0.3509575036240449,-1.0833905546654705
1688152516243598,0.7476920729380936,0.3204394598305953,-1.052872510872021
1688152516259574,0.7782101167315432,0.41199359121083035,-0.9918364232852355
1688152516275550,0.7476920729380936,0.5340657663844013,-0.9918364232852355
1688152516291527,0.7782101167315432,0.41199359121083035,-1.022354467078685
1688152516307503,0.6866559853513081,0.38147554741738077,-1.052872510872021
1688152516323480,0.7476920729380936,0.41199359121083035,-1.022354467078685
1688152516339447,0.7782101167315432,0.5340657663844013,-1.052872510872021
1688152516355423,0.7171740291447577,0.38147554741738077,-1.052872510872021
1688152516371400,0.7171740291447577,0.3509575036240449,-1.022354467078685
1688152516387376,0.7476920729380936,0.4730296787976158,-1.052872510872021
1688152516403352,0.8087281605248791,0.5340657663844013,-1.052872510872021
1688152516419329,0.7476920729380936,0.4730296787976158,-1.052872510872021
1688152516435305,0.7171740291447577,0.3509575036240449,-1.1139085984588064
1688152516451282,0.8392462043183286,0.5035477225909517,-1.052872510872021
1688152516467258,0.8392462043183286,0.4730296787976158,-1.052872510872021
1688152516483235,0.8087281605248791,0.41199359121083035,-1.052872510872021
1688152516499211,0.7782101167315432,0.2594033722438098,-1.052872510872021
1688152516515187,0.7782101167315432,0.41199359121083035,-0.9918364232852355
1688152516531164,0.8392462043183286,0.5035477225909517,-1.052872510872021
1688152516547140,0.7782101167315432,0.3204394598305953,-1.022354467078685
1688152516563117,0.7476920729380936,0.3204394598305953,-1.022354467078685
1688152516579093,0.7782101167315432,0.38147554741738077,-1.022354467078685
1688152516595070,0.8087281605248791,0.5645838101777372,-1.022354467078685
1688152516611046,0.7782101167315432,0.41199359121083035,-1.052872510872021
1688152516627022,0.7782101167315432,0.2899214160372594,-1.052872510872021
1688152516642999,0.7782101167315432,0.41199359121083035,-1.0833905546654705
1688152516658966,0.7782101167315432,0.5035477225909517,-1.052872510872021
1688152516674942,0.7782101167315432,0.4730296787976158,-1.0833905546654705
1688152516690919,0.6866559853513081,0.2899214160372594,-1.0833905546654705
1688152516706895,0.7476920729380936,0.44251163500416624,-1.022354467078685
1688152516722871,0.8087281605248791,0.4730296787976158,-0.9918364232852355
1688152516738848,0.8087281605248791,0.4730296787976158,-1.022354467078685
1688152516754824,0.7476920729380936,0.19836728465702436,-1.0833905546654705
1688152516770801,0.7171740291447577,0.38147554741738077,-1.052872510872021
1688152516786777,0.8697642481116645,0.5035477225909517,-0.9918364232852355
1688152516802754,0.8087281605248791,0.44251163500416624,-1.022354467078685
1688152516818730,0.7782101167315432,0.3204394598305953,-1.0833905546654705
1688152516834706,0.7476920729380936,0.3204394598305953,-1.052872510872021
1688152516850683,0.7782101167315432,0.5951018539711868,-1.052872510872021
1688152516866659,0.8087281605248791,0.4730296787976158,-1.052872510872021
1688152516882636,0.7476920729380936,0.41199359121083035,-1.1139085984588064
1688152516898612,0.7782101167315432,0.38147554741738077,-1.0833905546654705
1688152516914589,0.7476920729380936,0.5645838101777372,-1.0833905546654705
1688152516930565,0.7782101167315432,0.5035477225909517,-1.022354467078685
1688152516946541,0.6866559853513081,0.3204394598305953,-1.1139085984588064
1688152516962518,0.7476920729380936,0.41199359121083035,-1.052872510872021
1688152516978485,0.8392462043183286,0.4730296787976158,-1.052872510872021
1688152516994461,0.8087281605248791,0.4730296787976158,-1.052872510872021
1688152517010438,0.7476920729380936,0.3204394598305953,-1.1139085984588064
1688152517026414,0.7782101167315432,0.3509575036240449,-1.0833905546654705
1688152517042390,0.8087281605248791,0.6256198977645226,-1.052872510872021
1688152517058367,0.8392462043183286,0.5340657663844013,-1.0833905546654705
1688152517074343,0.6866559853513081,0.38147554741738077,-1.0833905546654705
1688152517090320,0.7171740291447577,0.3509575036240449,-1.0833905546654705
1688152517106296,0.8392462043183286,0.5340657663844013,-1.022354467078685
1688152517122273,0.8087281605248791,0.5035477225909517,-1.1139085984588064
1688152517138249,0.7782101167315432,0.3509575036240449,-1.052872510872021
1688152517154225,0.8087281605248791,0.3204394598305953,-1.022354467078685
1688152517170202,0.8392462043183286,0.41199359121083035,-1.022354467078685
1688152517186178,0.7782101167315432,0.5645838101777372,-1.052872510872021
1688152517202155,0.7171740291447577,0.2899214160372594,-1.052872510872021
1688152517218131,0.6866559853513081,0.3204394598305953,-1.052872510872021
1688152517234108,0.7782101167315432,0.4730296787976158,-1.052872510872021
1688152517250084,0.7782101167315432,0.44251163500416624,-1.0833905546654705
1688152517266060,0.7782101167315432,0.38147554741738077,-1.052872510872021
1688152517282037,0.6866559853513081,0.3204394598305953,-1.052872510872021
1688152517298004,0.7782101167315432,0.5951018539711868,-1.052872510872021
1688152517313980,0.8087281605248791,0.4730296787976158,-1.0833905546654705
1688152517329957,0.7476920729380936,0.41199359121083035,-1.1139085984588064
1688152517345933,0.7171740291447577,0.2594033722438098,-1.0833905546654705
1688152517361909,0.7782101167315432,0.5035477225909517,-1.052872510872021
1688152517377886,0.7476920729380936,0.5035477225909517,-1.052872510872021
1688152517393862,0.6866559853513081,0.41199359121083035,-1.022354467078685
1688152517409839,0.6866559853513081,0.3509575036240449,-1.022354467078685
1688152517425815,0.7476920729380936,0.38147554741738077,-1.022354467078685
1688152517441792,0.8087281605248791,0.5340657663844013,-1.052872510872021
1688152517457768,0.7476920729380936,0.38147554741738077,-1.052872510872021
1688152517473744,0.6561379415579722,0.3509575036240449,-1.052872510872021
1688152517489721,0.7476920729380936,0.44251163500416624,-1.022354467078685
1688152517505697,0.7782101167315432,0.5340657663844013,-1.022354467078685
1688152517521674,0.7782101167315432,0.4730296787976158,-1.052872510872021
1688152517537650,0.7476920729380936,0.38147554741738077,-1.052872510872021
1688152517553627,0.7782101167315432,0.5340657663844013,-1.022354467078685
1688152517569603,0.7782101167315432,0.4730296787976158,-1.052872510872021
1688152517585579,0.7476920729380936,0.38147554741738077,-1.052872510872021
1688152517601556,0.7782101167315432,0.3204394598305953,-1.0833905546654705
1688152517617523,0.7782101167315432,0.41199359121083035,-1.0833905546654705
1688152517633499,0.7782101167315432,0.5645838101777372,-1.0833905546654705
1688152517649476,0.7476920729380936,0.41199359121083035,-1.0833905546654705
1688152517665452,0.7171740291447577,0.41199359121083035,-1.052872510872021
1688152517681429,0.7782101167315432,0.4730296787976158,-1.0833905546654705
1688152517697405,0.7782101167315432,0.4730296787976158,-1.052872510872021
1688152517713381,0.7476920729380936,0.3509575036240449,-1.052872510872021
1688152517729358,0.6866559853513081,0.2594033722438098,-1.052872510872021
1688152517745334,0.7782101167315432,0.6256198977645226,-1.022354467078685
1688152517761311,0.8087281605248791,0.44251163500416624,-1.052872510872021
1688152517777287,0.7171740291447577,0.44251163500416624,-1.0833905546654705
1688152517793264,0.7171740291447577,0.41199359121083035,-1.052872510872021
1688152517809240,0.7476920729380936,0.4730296787976158,-1.052872510872021
1688152517825216,0.7782101167315432,0.4730296787976158,-0.9918364232852355
1688152517841193,0.6866559853513081,0.41199359121083035,-1.022354467078685
1688152517857169,0.7476920729380936,0.3509575036240449,-1.052872510872021
1688152517873146,0.7782101167315432,0.44251163500416624,-1.0833905546654705
1688152517889122,0.7782101167315432,0.5340657663844013,-1.052872510872021
1688152517905099,0.8087281605248791,0.3204394598305953,-1.052872510872021
1688152517921075,0.7171740291447577,0.44251163500416624,-1.0833905546654705
1688152517937042,0.7782101167315432,0.41199359121083035,-1.0833905546654705
1688152517953018,0.7782101167315432,0.5951018539711868,-1.0833905546654705
1688152517968995,0.7171740291447577,0.38147554741738077,-1.052872510872021
1688152517984971,0.7476920729380936,0.3204394598305953,-1.052872510872021
1688152518000948,0.8087281605248791,0.4730296787976158,-1.052872510872021
1688152518016924,0.8392462043183286,0.41199359121083035,-1.022354467078685
1688152518032900,0.7171740291447577,0.44251163500416624,-1.052872510872021
1688152518048877,0.7171740291447577,0.2899214160372594,-1.052872510872021
1688152518064853,0.7782101167315432,0.44251163500416624,-1.052872510872021
1688152518080830,0.8392462043183286,0.44251163500416624,-1.052872510872021
1688152518096806,0.7782101167315432,0.38147554741738077,-1.052872510872021
1688152518112783,0.6866559853513081,0.3204394598305953,-1.052872510872021
1688152518128759,0.7476920729380936,0.44251163500416624,-1.022354467078685
1688152518144735,0.8087281605248791,0.5340657663844013,-1.022354467078685
1688152518160712,0.7476920729380936,0.41199359121083035,-1.0833905546654705
1688152518176688,0.7476920729380936,0.2899214160372594,-1.052872510872021
1688152518192665,0.7782101167315432,0.38147554741738077,-1.022354467078685
1688152518208641,0.8087281605248791,0.5035477225909517,-1.022354467078685
1688152518224618,0.8087281605248791,0.44251163500416624,-1.052872510872021
1688152518240594,0.7782101167315432,0.2899214160372594,-1.0833905546654705
1688152518256561,0.8087281605248791,0.38147554741738077,-1.052872510872021
1688152518272537,0.7782101167315432,0.5035477225909517,-1.0833905546654705
1688152518288514,0.7171740291447577,0.4730296787976158,-1.0833905546654705
1688152518304490,0.6866559853513081,0.3509575036240449,-1.052872510872021
1688152518320467,0.7476920729380936,0.44251163500416624,-1.052872510872021
1688152518336443,0.8087281605248791,0.4730296787976158,-1.052872510872021
1688152518352419,0.7782101167315432,0.5035477225909517,-1.052872510872021
1688152518368396,0.8087281605248791,0.3204394598305953,-1.1139085984588064
1688152518384372,0.7782101167315432,0.5035477225909517,-1.1139085984588064
1688152518400349,0.8087281605248791,0.5035477225909517,-1.052872510872021
1688152518416325,0.7476920729380936,0.4730296787976158,-1.022354467078685
1688152518432302,0.7171740291447577,0.2594033722438098,-1.052872510872021
1688152518448278,0.6866559853513081,0.38147554741738077,-1.1139085984588064
1688152518464254,0.7782101167315432,0.5340657663844013,-1.052872510872021
1688152518480231,0.8087281605248791,0.44251163500416624,-1.022354467078685
1688152518496207,0.6561379415579722,0.41199359121083035,-1.022354467078685
1688152518512184,0.6866559853513081,0.3204394598305953,-1.022354467078685
1688152518528160,0.7476920729380936,0.5645838101777372,-1.022354467078685
1688152518544137,0.7782101167315432,0.5035477225909517,-1.052872510872021
1688152518560113,0.7171740291447577,0.44251163500416624,-1.052872510872021
1688152518576049,0.7476920729380936,0.44251163500416624,-1.052872510872021
1688152518592025,0.7782101167315432,0.5340657663844013,-1.0833905546654705
1688152518608001,0.7476920729380936,0.4730296787976158,-1.0833905546654705
1688152518623977,0.7476920729380936,0.3509575036240449,-1.022354467078685
1688152518639953,0.7782101167315432,0.3509575036240449,-1.052872510872021
1688152518655929,0.7782101167315432,0.44251163500416624,-1.022354467078685
1688152518671905,0.7782101167315432,0.44251163500416624,-1.022354467078685
1688152518687881,0.7476920729380936,0.2899214160372594,-1.052872510872021
1688152518703857,0.7171740291447577,0.41199359121083035,-1.1139085984588064
1688152518719833,0.7476920729380936,0.5035477225909517,-1.052872510872021
1688152518735809,0.7782101167315432,0.5340657663844013,-1.052872510872021
1688152518751785,0.7476920729380936,0.3204394598305953,-1.052872510872021
1688152518767761,0.7476920729380936,0.38147554741738077,-1.052872510872021
1688152518783737,0.8392462043183286,0.5340657663844013,-1.022354467078685
1688152518799713,0.7476920729380936,0.5035477225909517,-1.022354467078685
1688152518815689,0.7476920729380936,0.2899214160372594,-1.052872510872021
1688152518831665,0.6866559853513081,0.3509575036240449,-1.052872510872021
1688152518847641,0.7476920729380936,0.44251163500416624,-1.052872510872021
1688152518863617,0.8087281605248791,0.44251163500416624,-1.052872510872021
1688152518879593,0.7171740291447577,0.3204394598305953,-1.052872510872021
1688152518895568,0.7171740291447577,0.4730296787976158,-1.052872510872021
1688152518911544,0.7782101167315432,0.3509575036240449,-1.022354467078685
1688152518927520,0.6866559853513081,0.5645838101777372,-0.9613183794918996
1688152518943496,0.7171740291447577,0.2899214160372594,-1.022354467078685
1688152518959472,0.7171740291447577,0.4730296787976158,-1.052872510872021
1688152518975448,0.8697642481116645,0.44251163500416624,-1.022354467078685
1688152518991424,0.7782101167315432,0.5645838101777372,-1.0833905546654705
1688152519007400,0.7476920729380936,0.3509575036240449,-1.0833905546654705
1688152519023376,0.7782101167315432,0.38147554741738077,-1.052872510872021
1688152519039352,0.8392462043183286,0.5951018539711868,-1.052872510872021
1688152519055328,0.8392462043183286,0.44251163500416624,-1.052872510872021
1688152519071304,0.7476920729380936,0.44251163500416624,-1.0833905546654705
1688152519087280,0.8392462043183286,0.22888532845047393,-1.0833905546654705
1688152519103256,0.7782101167315432,0.5340657663844013,-1.022354467078685
1688152519119232,0.8392462043183286,0.5340657663844013,-1.052872510872021
1688152519135208,0.7171740291447577,0.44251163500416624,-1.1139085984588064
1688152519151184,0.7171740291447577,0.41199359121083035,-1.022354467078685
1688152519167160,0.7476920729380936,0.41199359121083035,-1.022354467078685
1688152519183136,0.8087281605248791,0.4730296787976158,-1.022354467078685
1688152519199112,0.8087281605248791,0.3509575036240449,-1.022354467078685
1688152519215088,0.6866559853513081,0.41199359121083035,-1.052872510872021
1688152519231063,0.7782101167315432,0.4730296787976158,-1.022354467078685
1688152519247039,0.7476920729380936,0.5035477225909517,-1.052872510872021
1688152519263015,0.7476920729380936,0.41199359121083035,-1.052872510872021
1688152519278991,0.6866559853513081,0.3509575036240449,-1.052872510872021
1688152519294967,0.7476920729380936,0.4730296787976158,-1.022354467078685
1688152519310943,0.7476920729380936,0.5951018539711868,-1.052872510872021
1688152519326919,0.7171740291447577,0.41199359121083035,-1.022354467078685
1688152519342895,0.7171740291447577,0.3509575036240449,-1.052872510872021
1688152519358871,0.7171740291447577,0.4730296787976158,-1.022354467078685
1688152519374847,0.7476920729380936,0.5340657663844013,-1.052872510872021
1688152519390823,0.6866559853513081,0.44251163500416624,-1.0833905546654705
1688152519406799,0.7171740291447577,0.38147554741738077,-1.0833905546654705
1688152519422775,0.7782101167315432,0.44251163500416624,-1.052872510872021
1688152519438751,0.8087281605248791,0.4730296787976158,-1.022354467078685
1688152519454727,0.6866559853513081,0.4730296787976158,-1.052872510872021
1688152519470703,0.7171740291447577,0.3509575036240449,-1.022354467078685
1688152519486679,0.8087281605248791,0.41199359121083035,-1.022354467078685
1688152519502655,0.7782101167315432,0.5035477225909517,-1.052872510872021
1688152519518631,0.7782101167315432,0.2899214160372594,-1.052872510872021
1688152519534607,0.7171740291447577,0.3204394598305953,-1.052872510872021
1688152519550583,0.8087281605248791,0.44251163500416624,-1.052872510872021
1688152519566558,0.7782101167315432,0.5340657663844013,-1.0833905546654705
1688152519582534,0.8087281605248791,0.44251163500416624,-1.0833905546654705
1688152519598510,0.7782101167315432,0.38147554741738077,-1.144426642252256
1688152519614486,0.7782101167315432,0.38147554741738077,-1.1139085984588064
1688152519630462,0.8087281605248791,0.5340657663844013,-1.0833905546654705
1688152519646438,0.7171740291447577,0.4730296787976158,-1.1139085984588064
1688152519662414,0.7171740291447577,0.3204394598305953,-1.052872510872021
1688152519678390,0.7171740291447577,0.44251163500416624,-1.022354467078685
1688152519694366,0.8087281605248791,0.4730296787976158,-1.0833905546654705
1688152519710342,0.7782101167315432,0.5035477225909517,-1.052872510872021
1688152519726318,0.7476920729380936,0.3509575036240449,-0.9918364232852355
1688152519742294,0.7782101167315432,0.4730296787976158,-1.022354467078685
1688152519758270,0.7782101167315432,0.44251163500416624,-1.0833905546654705
1688152519774246,0.7476920729380936,0.41199359121083035,-1.0833905546654705
1688152519790222,0.6866559853513081,0.3204394598305953,-1.1139085984588064
1688152519806198,0.7476920729380936,0.5035477225909517,-1.0833905546654705
1688152519822174,0.7476920729380936,0.5035477225909517,-1.052872510872021
1688152519838150,0.8087281605248791,0.3509575036240449,-0.9918364232852355
1688152519854126,0.7476920729380936,0.2899214160372594,-1.0833905546654705
1688152519870102,0.8087281605248791,0.38147554741738077,-1.0833905546654705
1688152519886078,0.7782101167315432,0.5340657663844013,-1.022354467078685
1688152519902053,0.7171740291447577,0.4730296787976158,-1.022354467078685
1688152519918029,0.7171740291447577,0.38147554741738077,-1.0833905546654705
1688152519934005,0.7782101167315432,0.38147554741738077,-1.052872510872021
1688152519949981,0.8392462043183286,0.5340657663844013,-1.0833905546654705
1688152519965957,0.7782101167315432,0.41199359121083035,-1.052872510872021
1688152519981933,0.7476920729380936,0.38147554741738077,-1.052872510872021
1688152519997909,0.7782101167315432,0.44251163500416624,-1.0833905546654705
1688152520013885,0.8392462043183286,0.5035477225909517,-1.0833905546654705
1688152520029861,0.7782101167315432,0.41199359121083035,-1.052872510872021
1688152520045837,0.6866559853513081,0.38147554741738077,-1.0833905546654705
1688152520061813,0.8392462043183286,0.41199359121083035,-1.1139085984588064
1688152520077789,0.8392462043183286,0.4730296787976158,-1.0833905546654705
1688152520093765,0.8087281605248791,0.5035477225909517,-1.0833905546654705
1688152520109741,0.7782101167315432,0.2899214160372594,-1.0833905546654705
1688152520125717,0.7476920729380936,0.44251163500416624,-1.052872510872021
1688152520141693,0.8087281605248791,0.5035477225909517,-1.022354467078685
1688152520157669,0.7782101167315432,0.5645838101777372,-1.0833905546654705
1688152520173645,0.7476920729380936,0.3509575036240449,-1.052872510872021
1688152520189621,0.7171740291447577,0.38147554741738077,-1.052872510872021
1688152520205597,0.7476920729380936,0.5645838101777372,-1.022354467078685
1688152520221573,0.7782101167315432,0.41199359121083035,-1.052872510872021
1688152520237548,0.6866559853513081,0.44251163500416624,-1.0833905546654705
1688152520253524,0.7476920729380936,0.3204394598305953,-1.052872510872021
1688152520269500,0.8087281605248791,0.5951018539711868,-1.052872510872021
1688152520285476,0.8087281605248791,0.44251163500416624,-1.052872510872021
1688152520301452,0.7782101167315432,0.41199359121083035,-1.0833905546654705
1688152520317428,0.8087281605248791,0.38147554741738077,-1.052872510872021
1688152520333404,0.8087281605248791,0.5340657663844013,-1.022354467078685
1688152520349380,0.7782101167315432,0.5035477225909517,-1.0833905546654705
1688152520365356,0.7476920729380936,0.41199359121083035,-1.1139085984588064
1688152520381332,0.7171740291447577,0.44251163500416624,-1.0833905546654705
1688152520397308,0.7782101167315432,0.44251163500416624,-0.9918364232852355
1688152520413284,0.7782101167315432,0.4730296787976158,-1.022354467078685
1688152520429260,0.7782101167315432,0.2899214160372594,-1.052872510872021
1688152520445236,0.7782101167315432,0.38147554741738077,-1.052872510872021
1688152520461212,0.8087281605248791,0.5035477225909517,-1.052872510872021
1688152520477188,0.7782101167315432,0.5645838101777372,-1.022354467078685
1688152520493164,0.7782101167315432,0.41199359121083035,-1.022354467078685
1688152520509140,0.7171740291447577,0.3204394598305953,-1.022354467078685
1688152520525116,0.7782101167315432,0.4730296787976158,-1.022354467078685
1688152520541092,0.8392462043183286,0.44251163500416624,-1.022354467078685
1688152520557067,0.8087281605248791,0.44251163500416624,-1.052872510872021
1688152520573043,0.7171740291447577,0.3204394598305953,-1.0833905546654705
1688152520589019,0.7782101167315432,0.5035477225909517,-1.052872510872021
1688152520604995,0.8087281605248791,0.41199359121083035,-1.022354467078685
1688152520620971,0.7476920729380936,0.4730296787976158,-1.052872510872021
1688152520636947,0.7476920729380936,0.3509575036240449,-1.052872510872021
1688152520652923,0.7476920729380936,0.41199359121083035,-1.052872510872021
1688152520668899,0.7782101167315432,0.5645838101777372,-1.1139085984588064
1688152520684875,0.7476920729380936,0.3509575036240449,-1.052872510872021
1688152520700851,0.7171740291447577,0.44251163500416624,-1.1139085984588064
1688152520716827,0.7782101167315432,0.41199359121083035,-1.052872510872021
1688152520732803,0.8087281605248791,0.4730296787976158,-1.052872510872021
1688152520748779,0.7782101167315432,0.3204394598305953,-1.022354467078685
1688152520764755,0.6866559853513081,0.3509575036240449,-1.052872510872021
1688152520780731,0.7476920729380936,0.4730296787976158,-1.0833905546654705
1688152520796707,0.8697642481116645,0.5340657663844013,-1.052872510872021
1688152520812683,0.7782101167315432,0.41199359121083035,-1.052872510872021
1688152520828659,0.7476920729380936,0.3509575036240449,-1.0833905546654705
1688152520844635,0.8087281605248791,0.5340657663844013,-1.052872510872021
1688152520860611,0.8392462043183286,0.5645838101777372,-1.022354467078685
1688152520876587,0.7476920729380936,0.41199359121083035,-1.052872510872021
1688152520892562,0.7476920729380936,0.44251163500416624,-1.052872510872021
1688152520908538,0.7782101167315432,0.44251163500416624,-1.052872510872021
1688152520924514,0.8392462043183286,0.5645838101777372,-1.0833905546654705
1688152520940490,0.7782101167315432,0.4730296787976158,-1.0833905546654705
1688152520956466,0.6866559853513081,0.3204394598305953,-1.0833905546654705
1688152520972442,0.7476920729380936,0.41199359121083035,-1.022354467078685
1688152520988418,0.7782101167315432,0.5035477225909517,-1.052872510872021
1688152521004394,0.7171740291447577,0.4730296787976158,-1.022354467078685
1688152521020370,0.7171740291447577,0.3204394598305953,-1.052872510872021
1688152521036346,0.7782101167315432,0.44251163500416624,-1.022354467078685
1688152521052322,0.8392462043183286,0.4730296787976158,-1.022354467078685
1688152521068298,0.7782101167315432,0.4730296787976158,-1.052872510872021
1688152521084274,0.7476920729380936,0.38147554741738077,-1.052872510872021
1688152521100250,0.7476920729380936,0.4730296787976158,-1.0833905546654705
1688152521116226,0.8697642481116645,0.5035477225909517,-1.0833905546654705
1688152521132171,0.8087281605248791,0.38147554741738077,-1.0833905546654705
1688152521148147,0.7782101167315432,0.38147554741738077,-1.052872510872021
1688152521164123,0.7782101167315432,0.44251163500416624,-1.052872510872021
1688152521180099,0.8392462043183286,0.5645838101777372,-1.022354467078685
1688152521196075,0.7782101167315432,0.3509575036240449,-0.9918364232852355
1688152521212051,0.7476920729380936,0.2899214160372594,-1.0833905546654705
1688152521228027,0.7782101167315432,0.3509575036240449,-1.052872510872021
1688152521244003,0.8087281605248791,0.5340657663844013,-1.0833905546654705
1688152521259979,0.7476920729380936,0.41199359121083035,-1.052872510872021
1688152521275955,0.7782101167315432,0.19836728465702436,-1.052872510872021
1688152521291931,0.8392462043183286,0.41199359121083035,-1.022354467078685
1688152521307907,0.8392462043183286,0.5035477225909517,-1.052872510872021
1688152521323883,0.7171740291447577,0.4730296787976158,-1.052872510872021
1688152521339859,0.6866559853513081,0.41199359121083035,-1.052872510872021
1688152521355835,0.7782101167315432,0.44251163500416624,-0.9918364232852355
1688152521371811,0.8087281605248791,0.5645838101777372,-1.052872510872021
1688152521387786,0.7782101167315432,0.44251163500416624,-1.052872510872021
1688152521403762,0.7476920729380936,0.3204394598305953,-1.0833905546654705
1688152521419738,0.7782101167315432,0.38147554741738077,-1.144426642252256
1688152521435714,0.7476920729380936,0.5035477225909517,-1.0833905546654705
1688152521451690,0.7782101167315432,0.44251163500416624,-1.022354467078685
1688152521467666,0.7782101167315432,0.3204394598305953,-1.052872510872021
1688152521483642,0.7782101167315432,0.38147554741738077,-1.052872510872021
1688152521499618,0.7476920729380936,0.4730296787976158,-1.022354467078685
1688152521515594,0.7476920729380936,0.41199359121083035,-1.022354467078685
1688152521531570,0.7171740291447577,0.3509575036240449,-1.0833905546654705
1688152521547546,0.7476920729380936,0.38147554741738077,-1.0833905546654705
1688152521563522,0.8392462043183286,0.5340657663844013,-1.052872510872021
1688152521579498,0.7782101167315432,0.44251163500416624,-1.052872510872021
1688152521595474,0.7476920729380936,0.38147554741738077,-1.0833905546654705
1688152521611450,0.6256198977645226,0.4730296787976158,-1.1139085984588064
1688152521627426,0.7476920729380936,0.41199359121083035,-1.052872510872021
1688152521643402,0.7476920729380936,0.5340657663844013,-1.052872510872021
1688152521659378,0.6866559853513081,0.3204394598305953,-1.052872510872021
1688152521675354,0.8087281605248791,0.3204394598305953,-1.052872510872021
1688152521691330,0.7476920729380936,0.5340657663844013,-1.0833905546654705
1688152521707306,0.7782101167315432,0.5035477225909517,-0.9918364232852355
1688152521723281,0.7171740291447577,0.3509575036240449,-1.052872510872021
1688152521739257,0.7782101167315432,0.3204394598305953,-1.0833905546654705
1688152521755233,0.7782101167315432,0.41199359121083035,-1.022354467078685
1688152521771209,0.8697642481116645,0.2899214160372594,-1.022354467078685
1688152521787185,0.6561379415579722,0.5340657663844013,-1.0833905546654705
1688152521803161,0.8392462043183286,0.38147554741738077,-1.052872510872021
1688152521819137,0.8392462043183286,0.4730296787976158,-1.052872510872021
1688152521835113,0.7782101167315432,0.38147554741738077,-1.022354467078685
1688152521851089,0.6561379415579722,0.3204394598305953,-1.052872510872021
1688152521867065,0.8087281605248791,0.41199359121083035,-1.0833905546654705
1688152521883041,0.8392462043183286,0.5340657663844013,-1.022354467078685
1688152521899017,0.7476920729380936,0.5340657663844013,-1.022354467078685
1688152521914993,0.7782101167315432,0.16784924086368846,-1.052872510872021
1688152521930969,0.7476920729380936,0.44251163500416624,-1.052872510872021
1688152521946945,0.7782101167315432,0.5645838101777372,-1.022354467078685
1688152521962921,0.045777065690117524,-8.590829327840083,15.487907225146841
1688152521978897,1.266498817425827,-8.957045853360796,44.69367513542397
1688152521994873,4.715037766079149,5.050736247806526,55.008773937590604
1688152522010849,4.989700160219741,7.339589532310924,50.98039215686276
1688152522026825,4.409857328145222,4.013122758831173,37.49141680018329
1688152522042801,3.768978408484031,-1.7547875181201107,42.22171358815899
1688152522058776,2.761882963302014,3.6163881895170107,53.788052185854895
1688152522074752,0.5951018539711868,-2.2430762188143945,48.11169604028396
1688152522090728,0.9002822919051141,-1.6327153429465397,60.01373311970701
1688152522106704,6.2714579995422355,7.125963225757232,89.52468146791784
1688152522122680,6.637674525062948,7.949950408178779,116.19745174334321
1688152522138656,3.585870145723675,-5.600061036087595,123.06401159685674
1688152522154632,1.7853055619134466,16.891737239642907,-16.525520714122308
1688152522170608,-4.440375371938671,5.661097123674381,-113.20668345159083
1688152522186584,-0.3509575036240449,-1.7242694743266611,-84.97749294270238
1688152522202560,-2.9144731822690346,-13.3211261158159,-123.39971007858401
1688152522218536,-5.2338445105668825,-10.543984130617218,-165.36202029449908
1688152522234512,-5.569542992294146,-10.177767605096506,-197.95529106584263
1688152522250488,-7.1869993133440175,4.898146028839506,-236.4690623331045
1688152522266464,-5.53902494850081,-3.372243839169869,-259.8764019226368
1688152522282440,-5.416952773327239,-2.3651483939879654,-240.4058899824522
1688152522298416,-5.325398641947004,-1.5716792553597543,-183.76440070191506
1688152522314392,-3.3112077515830833,15.121690699626129,-149.27901121538116
1688152522330368,-4.928664072632955,-0.6561379415579722,-135.36278324559396
1688152522346344,-3.768978408484031,-1.6937514305333252,-128.74036774242768
1688152522362320,-1.2970168612191628,2.97550926985582,-125.29182879377436
1688152522378296,-2.8229190508887996,-8.468757152666512,-119.92065308613724
1688152522394271,-2.5787747005416577,-9.170672159914488,-108.2627603570611
1688152522410247,-4.806591897459384,-3.9826047150377235,-78.50766765850312
1688152522426223,1.2359807736323773,12.191958495460426,-42.74052033264661
1688152522442199,3.555352101930225,16.830701152056122,1.7242694743266611
1688152522458175,0.5645838101777372,-10.08621347371627,6.1493858243686645
1688152522474151,0.5340657663844013,5.53902494850081,4.470893415732007
1688152522490127,-0.106813153276903,-2.182040131227609,4.715037766079149
1688152522506103,9.56740672922865,27.786678873884057,3.5248340581368893
1688152522522079,-2.7924010070954637,-25.497825589379772,2.7924010070954637
1688152522538055,3.8300144960708167,65.01869230182342,0.5340657663844013
1688152522554031,-4.745555809872599,-67.18547341115436,-8.62134737163342
1688152522570007,0.5035477225909517,13.3211261158159,-6.576638437476163
1688152522585983,0.5340657663844013,11.612115663385907,-3.3112077515830833
1688152522601959,-0.6561379415579722,-11.33745326924543,-0.7476920729380936
1688152522617935,0.045777065690117524,-8.77393759060044,-1.022354467078685
1688152522633911,0.9002822919051141,-0.045777065690117524,-1.022354467078685
1688152522649887,0.8087281605248791,2.2430762188143945,-1.022354467078685
1688152522665863,0.8087281605248791,0.7782101167315432,-1.022354467078685
1688152522681839,0.8392462043183286,0.19836728465702436,-1.0833905546654705
1688152522697815,0.8392462043183286,0.41199359121083035,-1.0833905546654705
1688152522713791,0.8697642481116645,0.3509575036240449,-1.0833905546654705
1688152522729736,0.7782101167315432,0.6256198977645226,-1.0833905546654705
1688152522745712,0.8392462043183286,0.3509575036240449,-1.022354467078685
1688152522761688,0.8392462043183286,0.3204394598305953,-1.0833905546654705
1688152522777664,0.8087281605248791,0.4730296787976158,-1.0833905546654705
1688152522793640,0.7782101167315432,0.5645838101777372,-1.052872510872021
1688152522809616,0.7782101167315432,0.38147554741738077,-1.022354467078685
1688152522825592,0.8087281605248791,0.2899214160372594,-1.052872510872021
1688152522841568,0.7782101167315432,0.44251163500416624,-0.9918364232852355
1688152522857544,0.7476920729380936,0.5035477225909517,-1.052872510872021
1688152522873520,0.6256198977645226,-1.6632333867398756,-1.846341649500232
1688152522889495,0.3509575036240449,-5.53902494850081,-16.708628976882665
1688152522905471,-1.5106431677729688,1.144426642252256,-38.5900663767452
1688152522921447,0.7171740291447577,-1.1749446860455919,-38.86472877088579
1688152522937423,-0.4730296787976158,-3.4943160143434397,-37.52193484397651
1688152522953399,1.1749446860455919,1.937895780880467,-48.96620126649884
1688152522969375,1.3275349050126124,14.602883955138395,-57.45021744106202
1688152522985351,-0.9613183794918996,4.898146028839506,-49.82070649271384
1688152523001327,-0.19836728465702436,-3.219653620202962,-25.558861676966558
1688152523017303,0.6561379415579722,0.22888532845047393,-5.53902494850081
1688152523033279,-0.2594033722438098,-8.89600976577401,0.5035477225909517
1688152523049255,0.2594033722438098,-15.091172655832679,5.874723430228073
1688152523065231,1.846341649500232,-2.853437094682249,4.715037766079149
1688152523081207,2.0294499122605885,5.661097123674381,32.42542153047998
1688152523097183,2.212558175020945,22.201876859693243,61.75326161593034
1688152523113159,3.219653620202962,9.628442816815436,60.53253986419463
1688152523129135,1.8768596932936816,6.332494087129021,37.247272449836146
1688152523145111,1.6021972991530902,0.015259021896667946,13.778896772716848
1688152523161087,0.9002822919051141,-3.0365453574426056,1.2970168612191628
1688152523177063,0.8087281605248791,0.22888532845047393,-0.7171740291447577
1688152523193039,0.2594033722438098,-4.074158846417959,-1.1749446860455919
1688152523209015,0.16784924086368846,-5.477988860914024,-1.2359807736323773
1688152523224990,0.6866559853513081,-3.8605325398641526,-6.332494087129021
1688152523240966,-1.9989318684672526,-10.299839780270077,-27.328908216983336
1688152523256942,0.19836728465702436,2.212558175020945,-29.343099107347257
1688152523272918,-2.0294499122605885,-1.6632333867398756,-39.658197909514
1688152523288894,-1.846341649500232,-0.5951018539711868,-48.35584039063099
1688152523304870,0.9002822919051141,0.19836728465702436,-48.020141908903724
1688152523320846,1.1749446860455919,0.106813153276903,-39.353017471580074
1688152523336822,1.1139085984588064,-0.9613183794918996,-22.232394903486693
1688152523352798,0.7171740291447577,0.015259021896667946,-4.776073853665935
1688152523368774,0.7782101167315432,0.7782101167315432,-1.5411612115663047
1688152523384750,0.7476920729380936,0.22888532845047393,-1.1139085984588064
1688152523400726,0.8087281605248791,0.4730296787976158,-0.9918364232852355
1688152523416702,0.7782101167315432,0.38147554741738077,-0.9918364232852355
1688152523432678,0.3204394598305953,-1.5106431677729688,-0.9613183794918996
1688152523448654,0.5951018539711868,-3.006027313649156,-1.1749446860455919
1688152523464630,0.8087281605248791,-0.7476920729380936,-1.1139085984588064
1688152523480606,0.9613183794918996,1.266498817425827,-1.0833905546654705
1688152523496582,-3.9520866712443876,1.937895780880467,-2.731364919508678
1688152523512558,-4.074158846417959,-2.883955138475585,-1.5716792553597543
1688152523528534,-0.19836728465702436,-6.607156481269499,3.4332799267566543
1688152523544510,4.3183031967651,5.1117723353933116,13.504234378576257
1688152523560485,6.72922865644307,5.996795605401644,9.262226291294724
1688152523576461,1.3580529488059483,0.6256198977645226,0.6256198977645226
1688152523592437,1.2359807736323773,0.5951018539711868,-0.7782101167315432
1688152523608413,0.9918364232852355,0.7171740291447577,-1.022354467078685
1688152523624389,0.8392462043183286,0.5645838101777372,-1.052872510872021
1688152523640365,0.8392462043183286,0.4730296787976158,-1.022354467078685
1688152523656341,0.7782101167315432,0.38147554741738077,-1.052872510872021
1688152523672317,0.7476920729380936,0.38147554741738077,-1.0833905546654705
1688152523688293,0.7782101167315432,0.5035477225909517,-1.0833905546654705
1688152523704269,0.8392462043183286,0.41199359121083035,-1.052872510872021
1688152523720245,0.8087281605248791,0.44251163500416624,-1.052872510872021
1688152523736221,0.7782101167315432,0.3509575036240449,-1.052872510872021
1688152523752197,0.8392462043183286,0.44251163500416624,-1.0833905546654705
1688152523768173,0.7476920729380936,0.44251163500416624,-1.1139085984588064
1688152523784149,0.7476920729380936,0.38147554741738077,-1.0833905546654705
1688152523800125,0.7171740291447577,0.38147554741738077,-1.1139085984588064
1688152523816101,0.7782101167315432,0.4730296787976158,-1.1139085984588064
1688152523832077,0.8697642481116645,0.41199359121083035,-1.0833905546654705
1688152523848053,0.8087281605248791,0.3509575036240449,-1.052872510872021
1688152523864029,0.8087281605248791,0.44251163500416624,-1.052872510872021
1688152523880005,0.7782101167315432,0.5340657663844013,-1.0833905546654705
1688152523895980,0.7782101167315432,0.4730296787976158,-1.0833905546654705
1688152523911956,0.6866559853513081,0.41199359121083035,-1.052872510872021
1688152523927932,0.7476920729380936,0.38147554741738077,-1.052872510872021
1688152523943908,0.7782101167315432,0.44251163500416624,-1.0833905546654705
1688152523959884,0.7782101167315432,0.5035477225909517,-1.022354467078685
1688152523975860,0.8087281605248791,0.38147554741738077,-1.052872510872021
1688152523991836,0.8392462043183286,0.3509575036240449,-1.052872510872021
1688152524007812,0.8087281605248791,0.4730296787976158,-1.052872510872021
1688152524023788,0.8392462043183286,0.4730296787976158,-1.052872510872021
1688152524039764,0.7782101167315432,0.4730296787976158,-1.022354467078685
1688152524055740,0.8087281605248791,0.41199359121083035,-1.052872510872021
1688152524071716,0.8392462043183286,0.44251163500416624,-1.0833905546654705
1688152524087692,0.8087281605248791,0.44251163500416624,-1.0833905546654705
1688152524103668,0.7476920729380936,0.44251163500416624,-1.022354467078685
1688152524119644,0.7782101167315432,0.38147554741738077,-1.052872510872021
1688152524135620,0.8087281605248791,0.41199359121083035,-1.022354467078685
1688152524151596,0.8087281605248791,0.44251163500416624,-1.0833905546654705
1688152524167572,0.8392462043183286,0.44251163500416624,-1.1139085984588064
1688152524183548,0.8392462043183286,0.41199359121083035,-1.0833905546654705
1688152524199524,0.8087281605248791,0.41199359121083035,-1.052872510872021
1688152524215500,0.8392462043183286,0.41199359121083035,-1.022354467078685
1688152524231475,0.8392462043183286,0.38147554741738077,-1.0833905546654705
1688152524247451,1.3275349050126124,-5.53902494850081,10.574502174410554
1688152524263427,-0.9002822919051141,-6.332494087129021,-7.125963225757232
1688152524279403,1.5716792553597543,2.182040131227609,-51.56023498893728
1688152524295379,-2.090485999847374,-22.934309910734783,-22.079804684519786
1688152524311355,-0.3509575036240449,91.63042648966189,-30.77744716563666
1688152524327331,0.9613183794918996,25.436789501792873,-5.874723430228073
1688152524343307,0.41199359121083035,-15.732051575494097,-6.759746700236519
1688152524359283,-2.883955138475585,-23.23949034866871,-12.771801327534831
1688152524375259,2.761882963302014,13.473716334782921,-22.507057297627284
1688152524391235,-0.41199359121083035,14.114595254444112,-13.809414816510184
1688152524407211,-1.1139085984588064,-24.490730144197755,-28.763256275272738
1688152524423187,-2.1210040436408235,-20.859082932784077,-37.308308537422704
1688152524439163,2.5177386129548722,-1.5106431677729688,-36.45380331120771
1688152524455139,0.5340657663844013,12.00885023270007,-32.24231326771951
1688152524471115,0.2899214160372594,21.103227283131105,-58.97611963073166
1688152524487091,-2.8229190508887996,-6.088349736781879,-50.73624780651562
1688152524503067,-0.6256198977645226,0.93080033569845,-6.698710612649734
1688152524519043,1.0833905546654705,-0.2594033722438098,23.117418173495025
1688152524535019,1.9989318684672526,3.9520866712443876,67.4296177615015
1688152524550994,0.8087281605248791,-1.3580529488059483,70.75608453498126
1688152524566970,1.6632333867398756,-26.99320973525596,-9.597924773021987
1688152524582946,4.86762798504617,-25.68093385214013,-75.24223697261004
1688152524598922,5.813687342641288,-17.95986877241171,-70.38986800946054
1688152524614898,3.1586175326161765,-16.76966506446945,-37.033646143282226
1688152524630874,4.776073853665935,-10.391393911650198,-20.340276188296343
1688152524646850,7.675288014038301,-8.987563897154132,-22.69016556038764
1688152524662826,5.081254291599862,-13.35164415960935,-21.31685358968491
1688152524678802,8.255130846112706,-6.332494087129021,-2.853437094682249
1688152524694778,4.348821240558436,-7.858396276798658,17.410543984130527
1688152524710754,-0.6866559853513081,-11.032272831311502,36.88105592431543
1688152524726730,0.1373311970702389,1.9073777370870175,68.31464103150984
1688152524742706,-0.41199359121083035,-5.844205386434737,66.84977492942699
1688152524758682,21.622034027618724,-14.511329823758274,42.74052033264684
1688152524774658,75.21171892881671,-45.395590142671836,50.43106736858181
1688152524790634,149.55367360952164,-48.691538872358365,35.843442435339966
1688152524806610,80.09460593575955,44.20538643472969,-58.915083543144874
1688152524822586,-111.31456473640048,134.4777599755855,-93.64461738002592
1688152524838562,-205.73739223315795,30.289158464942375,-93.9803158617533
1688152524854538,-32.27283131151296,-17.013809414816592,-93.27840085450521
1688152524870514,-4.348821240558436,27.084763866635967,-87.54100862134737
1688152524886489,-2.97550926985582,3.8605325398641526,-80.33875028610669
1688152524902465,-3.5248340581368893,-8.682383459220205,-73.13649195086589
1688152524918441,1.6937514305333252,3.6163881895170107,-63.88952468146795
1688152524934417,0.3509575036240449,-0.015259021896667946,-54.91721980621048
1688152524950393,0.8392462043183286,0.07629510948345342,-43.106736858167324
1688152524966369,-0.045777065690117524,-2.9144731822690346,-29.495689326314164
1688152524982345,0.5035477225909517,1.2359807736323773,-14.66392004272518
1688152524998321,0.8392462043183286,-0.07629510948345342,-3.8605325398641526
1688152525014297,0.8087281605248791,0.4730296787976158,-1.4496070801861833
1688152525030273,0.7782101167315432,0.41199359121083035,-1.0833905546654705
1688152525046249,0.7476920729380936,0.5035477225909517,-1.022354467078685
1688152525062225,0.8087281605248791,0.5645838101777372,-1.022354467078685
1688152525078201,0.7171740291447577,0.4730296787976158,-1.052872510872021
1688152525094177,0.7782101167315432,0.4730296787976158,-0.9918364232852355
1688152525110153,0.8087281605248791,0.44251163500416624,-0.9918364232852355
1688152525126129,0.8087281605248791,0.4730296787976158,-1.052872510872021
1688152525142105,0.7476920729380936,0.44251163500416624,-1.052872510872021
1688152525158081,0.7782101167315432,0.4730296787976158,-1.052872510872021
1688152525174057,0.8392462043183286,0.4730296787976158,-1.052872510872021
1688152525190033,0.8392462043183286,0.5035477225909517,-1.022354467078685
1688152525206009,0.7782101167315432,0.44251163500416624,-1.052872510872021
1688152525221984,0.7782101167315432,0.4730296787976158,-1.052872510872021
1688152525237960,0.8087281605248791,0.5035477225909517,-0.9918364232852355
1688152525253936,0.7476920729380936,0.44251163500416624,-1.0833905546654705
1688152525269912,0.7476920729380936,0.44251163500416624,-1.1139085984588064
1688152525285888,0.8087281605248791,0.44251163500416624,-1.052872510872021
1688152525301864,0.8087281605248791,0.5340657663844013,-1.052872510872021
1688152525317840,0.8392462043183286,0.38147554741738077,-1.0833905546654705
1688152525333816,0.7476920729380936,0.38147554741738077,-1.052872510872021
1688152525349792,0.7476920729380936,0.3509575036240449,-1.0833905546654705
1688152525365768,0.7782101167315432,0.44251163500416624,-1.0833905546654705
1688152525381744,0.7476920729380936,0.5340657663844013,-1.052872510872021
1688152525397720,0.7476920729380936,0.41199359121083035,-1.022354467078685
1688152525413696,0.7476920729380936,0.41199359121083035,-1.0833905546654705
1688152525429672,0.7782101167315432,0.4730296787976158,-1.052872510872021
1688152525445648,0.7782101167315432,0.4730296787976158,-1.0833905546654705
1688152525461624,0.8392462043183286,0.41199359121083035,-1.022354467078685
1688152525477600,0.8392462043183286,0.41199359121083035,-1.052872510872021
1688152525493576,0.8392462043183286,0.4730296787976158,-1.0833905546654705
1688152525509552,0.8392462043183286,0.41199359121083035,-1.052872510872021
1688152525525528,0.8087281605248791,0.38147554741738077,-1.022354467078685
1688152525541504,0.7782101167315432,0.3509575036240449,-1.052872510872021
1688152525557479,0.8087281605248791,0.41199359121083035,-1.052872510872021
1688152525573455,0.7782101167315432,0.41199359121083035,-0.9918364232852355
1688152525589431,0.8087281605248791,0.41199359121083035,-1.0833905546654705
1688152525605407,0.7782101167315432,0.41199359121083035,-1.0833905546654705
1688152525621383,0.7782101167315432,0.44251163500416624,-1.0833905546654705
1688152525637359,0.8392462043183286,0.4730296787976158,-1.0833905546654705
1688152525653335,0.8087281605248791,0.41199359121083035,-1.052872510872021
1688152525669311,0.7782101167315432,0.44251163500416624,-1.052872510872021
1688152525685287,0.7782101167315432,0.5035477225909517,-1.022354467078685
1688152525701263,0.8392462043183286,0.5035477225909517,-1.052872510872021
1688152525717239,0.8087281605248791,0.44251163500416624,-1.052872510872021
1688152525733215,0.7782101167315432,0.41199359121083035,-1.052872510872021
1688152525749191,0.8087281605248791,0.44251163500416624,-1.022354467078685
1688152525765167,0.8087281605248791,0.44251163500416624,-1.022354467078685
1688152525781143,0.8087281605248791,0.38147554741738077,-1.022354467078685
1688152525797119,0.7782101167315432,0.38147554741738077,-1.052872510872021
1688152525813095,0.8392462043183286,0.38147554741738077,-1.052872510872021
1688152525829071,0.8087281605248791,0.3509575036240449,-1.0833905546654705
1688152525845047,0.8697642481116645,0.3204394598305953,-1.0833905546654705
1688152525861023,0.8392462043183286,0.3509575036240449,-1.052872510872021
1688152525876999,0.8087281605248791,0.3204394598305953,-1.022354467078685
1688152525892974,0.8392462043183286,0.44251163500416624,-1.022354467078685
1688152525908950,0.8697642481116645,0.41199359121083035,-1.1139085984588064
1688152525924926,0.8697642481116645,0.3509575036240449,-1.052872510872021
1688152525940902,0.8697642481116645,0.38147554741738077,-1.052872510872021
1688152525956878,0.7476920729380936,0.2899214160372594,-1.022354467078685
1688152525972854,0.9002822919051141,0.3509575036240449,-1.022354467078685
1688152525988830,0.93080033569845,0.5035477225909517,-1.052872510872021
1688152526004806,0.8087281605248791,0.5340657663844013,-1.022354467078685
1688152526020782,0.7476920729380936,0.41199359121083035,-1.022354467078685
1688152526036758,0.7171740291447577,0.3204394598305953,-1.022354467078685
1688152526052734,0.7171740291447577,0.41199359121083035,-0.9918364232852355
1688152526068710,0.7782101167315432,0.4730296787976158,-1.052872510872021
1688152526084686,0.7476920729380936,0.5035477225909517,-1.1139085984588064
1688152526100662,0.6866559853513081,0.4730296787976158,-1.052872510872021
1688152526116638,0.6561379415579722,0.38147554741738077,-0.9918364232852355
1688152526132614,0.7476920729380936,0.4730296787976158,-1.022354467078685
1688152526148590,0.7171740291447577,0.44251163500416624,-1.0833905546654705
1688152526164566,0.6561379415579722,0.5035477225909517,-1.0833905546654705
1688152526180542,0.6256198977645226,0.44251163500416624,-0.9918364232852355
1688152526196518,0.6561379415579722,0.5035477225909517,-0.9918364232852355
1688152526212494,0.6561379415579722,0.5035477225909517,-0.9918364232852355
1688152526228469,0.7171740291447577,0.5035477225909517,-0.9918364232852355
1688152526244415,0.7476920729380936,0.44251163500416624,-1.1139085984588064
1688152526260391,0.7171740291447577,0.4730296787976158,-1.052872510872021
1688152526276367,0.7476920729380936,0.44251163500416624,-1.022354467078685
1688152526292343,0.7171740291447577,0.38147554741738077,-1.1139085984588064
1688152526308319,0.8697642481116645,0.38147554741738077,-1.1139085984588064
1688152526324295,0.8087281605248791,0.4730296787976158,-1.052872510872021
1688152526340271,0.8087281605248791,0.44251163500416624,-1.052872510872021
1688152526356247,0.7171740291447577,0.3204394598305953,-1.0833905546654705
1688152526372223,0.7171740291447577,0.41199359121083035,-0.9918364232852355
1688152526388198,0.7782101167315432,0.44251163500416624,-1.052872510872021
1688152526404174,0.7782101167315432,0.41199359121083035,-1.022354467078685
1688152526420150,0.8087281605248791,0.41199359121083035,-1.052872510872021
1688152526436126,0.7476920729380936,0.41199359121083035,-1.0833905546654705
1688152526452102,0.7476920729380936,0.44251163500416624,-1.052872510872021
1688152526468078,0.8087281605248791,0.4730296787976158,-1.1139085984588064
1688152526484054,0.8087281605248791,0.41199359121083035,-1.0833905546654705
1688152526500030,0.7782101167315432,0.38147554741738077,-1.052872510872021
1688152526516006,0.7476920729380936,0.38147554741738077,-1.0833905546654705
1688152526531982,0.8087281605248791,0.41199359121083035,-1.022354467078685
1688152526547958,0.7782101167315432,0.44251163500416624,-1.022354467078685
1688152526563934,0.7171740291447577,0.41199359121083035,-1.052872510872021
1688152526579910,0.6866559853513081,0.41199359121083035,-0.9918364232852355
1688152526595886,0.6866559853513081,0.44251163500416624,-0.9918364232852355
1688152526611862,0.7476920729380936,0.44251163500416624,-1.022354467078685
1688152526627838,0.7476920729380936,0.41199359121083035,-1.052872510872021
1688152526643814,0.8087281605248791,0.41199359121083035,-1.0833905546654705
1688152526659790,0.7782101167315432,0.4730296787976158,-0.9918364232852355
1688152526675766,0.7782101167315432,0.4730296787976158,-0.9918364232852355
1688152526691742,0.8087281605248791,0.3509575036240449,-1.022354467078685
1688152526707718,0.8087281605248791,0.41199359121083035,-1.1139085984588064
1688152526723693,0.8087281605248791,0.5035477225909517,-1.0833905546654705
1688152526739669,0.7782101167315432,0.41199359121083035,-1.022354467078685
1688152526755645,0.8087281605248791,0.38147554741738077,-1.022354467078685
1688152526771621,0.8087281605248791,0.44251163500416624,-1.022354467078685
1688152526787597,0.8087281605248791,0.4730296787976158,-1.022354467078685
1688152526803573,0.7782101167315432,0.41199359121083035,-1.022354467078685
1688152526819549,0.8087281605248791,0.3509575036240449,-1.052872510872021
1688152526835525,0.7782101167315432,0.41199359121083035,-1.052872510872021
1688152526851501,0.8087281605248791,0.4730296787976158,-0.9918364232852355
1688152526867477,0.7782101167315432,0.44251163500416624,-1.022354467078685
1688152526883453,0.7476920729380936,0.3509575036240449,-1.0833905546654705
1688152526899429,0.7171740291447577,0.38147554741738077,-1.0833905546654705
1688152526915405,0.7476920729380936,0.4730296787976158,-1.022354467078685
1688152526931381,0.7782101167315432,0.44251163500416624,-1.052872510872021
1688152526947357,0.7782101167315432,0.41199359121083035,-1.0833905546654705
1688152526963333,0.7476920729380936,0.41199359121083035,-1.0833905546654705
1688152526979309,0.8087281605248791,0.41199359121083035,-0.9918364232852355
1688152526995285,0.7476920729380936,0.4730296787976158,-0.9918364232852355
1688152527011261,0.7782101167315432,0.44251163500416624,-1.052872510872021
1688152527027237,0.7782101167315432,0.41199359121083035,-1.052872510872021
1688152527043213,0.7476920729380936,0.4730296787976158,-1.052872510872021
1688152527059188,0.8087281605248791,0.4730296787976158,-1.0833905546654705
1688152527075164,0.7782101167315432,0.41199359121083035,-1.022354467078685
1688152527091140,0.8087281605248791,0.41199359121083035,-0.9918364232852355
1688152527107116,0.8087281605248791,0.41199359121083035,-1.052872510872021
1688152527123092,0.8087281605248791,0.41199359121083035,-1.022354467078685
1688152527139068,0.7782101167315432,0.3509575036240449,-1.052872510872021
1688152527155044,0.7476920729380936,0.38147554741738077,-1.052872510872021
1688152527171020,0.7782101167315432,0.44251163500416624,-1.052872510872021
1688152527186996,0.7782101167315432,0.4730296787976158,-1.022354467078685
1688152527202942,0.7476920729380936,0.38147554741738077,-1.022354467078685
1688152527218917,0.8087281605248791,0.41199359121083035,-1.022354467078685
1688152527234893,0.8392462043183286,0.41199359121083035,-0.9918364232852355
1688152527250869,0.8697642481116645,0.41199359121083035,-1.052872510872021
