Timestamp (microseconds),Accel X (g),Accel Y (g),Accel Z (g)
1684782929508178,0.021911955443655984,-1.1186083772030213,0.07074082551308436
1684782929524173,0.033875028610665936,-1.1032272831311514,0.13617151140611927
1684782929540168,0.011535820553902454,-1.0989547570000764,0.06732280460822437
1684782929556163,0.019348439765010994,-1.0839398794537272,0.001037613488975353
1684782929572158,0.012756542305638163,-1.074296177615015,-0.05914396887159512
1684782929588153,0.0022583352407110624,-1.0514686808575568,-0.09796292057679112
1684782929604148,0.0037232013427939137,-1.0375524528877698,-0.14789044022278164
1684782929620144,-0.0021362630655374915,-1.0109407186999313,-0.18841840238040763
1684782929636139,-0.00982681010147246,-0.9827420462348364,-0.14874494544899663
1684782929652134,-0.007507438773174613,-0.9790798809796293,-0.08441290913252475
1684782929668129,-0.016540779736018862,-0.9573510337987337,-0.11395437552452892
1684782929684124,-0.01361104753185316,-0.9624780651560236,-0.18255893797207579
1684782929700119,0.00579842832074462,-0.9988555733577478,-0.22565041580834677
1684782929716114,0.005676356145571049,-0.9910429541466392,-0.22040131227588322
1684782929732109,0.02532997634851597,-1.0102082856488899,-0.1881742580300605
1684782929748104,-0.010193026626993174,-0.9853055619134814,-0.12140077821011674
1684782929764099,-0.04046692607003877,-0.9551537346456094,-0.07782101167315192
1684782929780094,-0.04962233920805659,-0.9461203936827651,-0.07220569161516766
1684782929796089,-0.054627298390172996,-0.9538109407187001,-0.06732280460822482
1684782929812084,-0.0838025482566569,-0.9533226520180058,-0.05499351491569371
1684782929828064,-0.13397421225299455,-0.9296406500343326,0.005310139620050336
1684782929844059,-0.12860303654535743,-0.9353780422674904,0.08001831082627575
1684782929860054,-0.10870527199206537,-0.97602807660029,0.13995574883649997
1684782929876049,-0.11248950942244607,-1.0071564812695506,0.12237735561150487
1684782929892044,-0.10370031280994896,-1.0165560387579156,0.08722056916151644
1684782929908039,-0.12298771648737317,-1.0032501716639963,0.023743038071259548
1684782929924034,-0.11017013809414822,-1.0197299153124284,-0.0800183108262762
1684782929940029,-0.11956969558251318,-1.0120393682764934,-0.0724498359655148
1684782929956024,-0.10003814755474183,-1.0137483787289234,-0.04107728694590662
1684782929972019,-0.0800183108262762,-1.0257114518959334,0.0023804074158846333
1684782929988014,-0.07806515602349906,-1.0454871442740519,0.02008087281605242
1684782930004009,-0.08026245517662334,-1.0653849088273444,0.05609216449225585
1684782930020004,-0.018371862363622427,-1.1243457694361791,0.05535973144121442
1684782930035999,-0.04132143129625376,-1.0882124055848021,0.025574120698863112
1684782930051994,-0.10467689021133753,-1.0063019760433356,0.07806515602349862
1684782930067989,-0.08746471351186402,-1.023514152742809,0.02667277027542525
1684782930083984,-0.07928587777523477,-1.0271763179980162,-0.04644846265354374
1684782930099979,-0.048157473105973736,-1.0996871900511178,-0.10455481803616395
1684782930115974,-0.07843137254901977,-1.1427786678873884,0.01226825360494388
1684782930131969,-0.013244831006332447,-1.1961242084382393,0.07110704203860507
1684782930147949,-0.03338673990997165,-1.1245899137865263,0.021179522392614558
1684782930163944,-0.029480430304417382,-1.035477225909819,-0.06768902113374553
1684782930179939,-0.058289463645380124,-0.9682154573891815,-0.11041428244449536
1684782930195934,-0.009460593575951748,-1.0084992751964599,-0.059876401922636546
1684782930211929,0.013244831006332447,-0.9870145723659114,0.02801556420233453
1684782930227924,0.019104295414663852,-1.0515907530327304,0.00982681010147246
1684782930243919,0.04888990615701516,-1.1178759441519799,0.09515526054779855
1684782930259914,0.007751583123521755,-1.010452429999237,0.06695658808270366
1684782930275909,0.008972304875257464,-0.9846952010376135,0.03265430685893023
1684782930291904,0.010070954451819603,-0.9761501487754636,0.06036469062333083
1684782930307899,-0.009460593575951748,-0.8733653772793164,-0.01898222323949028
1684782930323894,-0.001159685664148924,-0.8676279850461586,-0.011902037079423167
1684782930339889,0.027649347676813818,-0.9270771343556876,-0.016784924086366004
1684782930355884,0.03460746166170736,-0.9772487983520257,0.008850232700083893
1684782930371879,0.004455634393835339,-0.9474631876096744,-0.04596017395284946
1684782930387874,0.02252231631952384,-0.9704127565423057,-0.0707408255130848
1684782930403869,0.009948882276646032,-0.9719996948195622,-0.08514534218356618
1684782930419864,-0.013977264057373873,-0.8805676356145571,0.05120927748531301
1684782930435859,0.0109254596780346,-0.8660410467689021,0.011779964904249596
1684782930451854,-0.011169604028381741,-0.8716563668268864,0.01373311970702673
1684782930467529,0.039002059967955915,-0.9547875181200887,0.0806286717021436
1684782930483523,0.06182955672541368,-0.9846952010376135,0.021179522392614558
1684782930499516,0.08258182650492074,-1.0182650492103456,-0.08270389868009476
1684782930515510,0.09771877622644354,-1.0336461432822155,-0.1077286945906768
1684782930531503,0.10479896238651065,-1.038651102464332,-0.17389181353475225
1684782930547497,0.1117570763714042,-1.082841229877165,-0.2394445716029603
1684782930563490,0.12603952086671288,-1.06831464103151,-0.18194857709620793
1684782930579484,0.11895933470664488,-1.0082551308461127,-0.09771877622644398
1684782930595478,0.08868543526359929,-0.9715114061188679,-0.08819714656290545
1684782930611471,0.07550164034485363,-0.9656519417105365,-0.03399710078583951
1684782930627465,0.1041886015106428,-1.0020294499122606,0.008850232700083893
1684782930643458,0.0936903944457157,-1.021560997940032,-0.010070954451819603
1684782930659452,0.12237735561150487,-1.0304722667277026,-0.09954985885404755
1684782930675446,0.13141069657435,-0.9988555733577478,-0.10663004501411466
1684782930691439,0.12481879911497629,-0.9619897764553293,0.0061646448462653325
1684782930707433,0.13995574883649997,-0.9866483558403907,0.04901197833218873
1684782930723426,0.1461814297703521,-0.9931181811245899,0.04132143129625376
1684782930739420,0.1477683680476085,-0.9832303349355307,0.011657892729076025
1684782930755414,0.1809719996948198,-1.0299839780270084,-0.027649347676813818
1684782930771407,0.16473640039673487,-0.9867704280155642,0.02777141985198739
1684782930787078,0.2330968184939346,-1.175616083009079,-0.12274357213702602
1684782930803071,0.11212329289692491,-1.0620889600976575,-0.08184939345387976
1684782930819063,0.1599755855649656,-1.208697642481117,-0.4210879682612343
1684782930835055,0.09600976577401354,-0.8802014190890364,-0.27106126497291516
1684782930851047,0.1965972381170369,-0.9749294270237279,-0.14874494544899663
1684782930867039,0.21026932173647683,-1.0168001831082627,0.15692378118562633
1684782930883031,0.19293507286182976,-0.8388189517051958,0.42145418478675545
1684782930899024,0.10394445716029566,-0.7974364843213548,0.502388036926833
1684782930915016,0.08856336308842572,-0.7957274738689248,0.5742885481040663
1684782930931008,0.23150988021667818,-0.9245136186770426,0.3300221255817499
1684782930947000,0.2649576562142366,-0.890821698329137,0.31146715495536714
1684782930962992,0.31976806286716997,-0.8781261921110857,0.3406424048218506
1684782930978984,0.3457694361791406,-0.9406271457999544,0.37726405737392277
1684782930994977,0.3814145113298242,-1.0032501716639963,0.4299992370489054
1684782931010969,0.4392767223620968,-1.1040817883573664,0.40375371938658766
1684782931026961,0.4435492484931718,-1.1022507057297628,0.35602349889372054
1684782931042953,0.464545662623026,-1.0191195544365605,0.422430762188144
1684782931058945,0.4694285496299688,-0.9342793926909283,0.532539864194705
1684782931074937,0.5570763714045928,-0.9215838864728769,0.7912108033875027
1684782931090930,0.49835965514610514,-0.8476081483176929,0.7498283360036622
1684782931106659,0.5480430304417485,-0.8742198825055314,0.5186236362249179
1684782931122650,0.6233615625238418,-0.8753185320820935,0.39545281147478484
1684782931138641,0.6288548104066534,-0.8913099870298313,0.4599069199664303
1684782931154632,0.5696498054474706,-0.6937972075989931,0.5856412603952084
1684782931170623,0.4695506218051424,-0.5697718776226446,0.41217669947356406
1684782931186615,0.504097047379263,-0.6028534370946823,0.26434729533836876
1684782931202606,0.5353475242236971,-0.7560540169375143,0.23932249942778672
1684782931218597,0.53339436942092,-0.6526588845654993,0.35846494239719195
1684782931234588,0.4746776531624324,-0.510078583962768,0.4702830548561838
1684782931250579,0.4635690852216374,-0.4837109941252766,0.4657663843747617
1684782931266571,0.52484931715877,-0.6170138094148165,0.4888380254825666
1684782931282562,0.5640344853894863,-0.7088120851453423,0.4805371175707638
1684782931298553,0.5446250095368885,-0.7501945525291829,0.45709925993743816
1684782931314544,0.4700389105058367,-0.6613260090028228,0.421576256961929
1684782931330536,0.3330739299610892,-0.5014114595254444,0.3726253147173262
1684782931346527,0.28839551384756223,-0.46967269398031597,0.4406195162890061
1684782931362518,0.31146715495536714,-0.583321889066911,0.6181124589913782
1684782931378509,0.32574959945067494,-0.5294880598153657,0.7290760662241551
1684782931394500,0.31854734111543426,-0.40106813153276866,0.855420767528801
1684782931410492,0.3352712291142135,-0.34699015793087673,0.8155031662470433
1684782931426208,0.3729915312428469,-0.3002365148393986,0.7302967879758908
1684782931442198,0.4779736018921188,-0.4104676890211336,0.8666514076447696
1684782931458188,0.5842984664682991,-0.5289997711146714,0.9594262607766844
1684782931474177,0.6227512016479739,-0.7765621423666742,0.75385671778439
1684782931490167,0.6244602121004039,-0.4531929503318839,0.5740444037537191
1684782931506157,0.4984817273212787,-0.20001525902189687,0.5853971160448612
1684782931522147,0.40131227588311624,-0.18573281452658863,0.7793698023956663
1684782931538137,0.36444647898069693,-0.16131837949187444,0.7875486381322956
1684782931554126,0.5199664301518272,-0.15460440985732804,0.936476691844053
1684782931570116,0.6510719462882433,-0.20502021820401328,0.7157701991302359
1684782931586106,0.4048523689631498,0.3192797741664757,1.2577706569008926
1684782931602096,0.696971084153506,0.5128862439917601,1.6702525368123906
1684782931618085,0.7643549248493171,0.5148393987945372,1.0470740825513083
1684782931634075,0.7038071259632259,0.5834439612420841,1.0907759212634467
1684782931650065,0.5397421225299457,0.42987716487373184,0.832104982070649
1684782931666055,0.42767986572060757,0.20880445563439398,1.0717326619363696
1684782931682045,0.3537041275654227,0.1448386358434428,1.0872358281834131
1684782931698034,0.28668650339513224,0.05535973144121442,0.8368657969024182
1684782931714024,0.2855878538185701,0.12957961394674644,0.7813229571984435
1684782931730014,0.43622491798275753,0.29803921568627434,1.0056916151674677
1684782931745727,0.5106889448386358,0.31183337148088786,0.8484626535439075
1684782931761716,0.5578088044556342,0.2796063172350651,0.6970931563286795
1684782931777705,0.54193942168307,0.3020675974670022,0.8114747844663155
1684782931793694,0.49921416037232014,0.30255588616769646,0.8601815823605703
1684782931809682,0.47772945754177165,0.277653162432288,0.9066910811017017
1684782931825671,0.4690623331044481,0.30646219577325073,0.860547798886091
1684782931841660,0.510078583962768,0.2704509040970473,0.8228274967574576
1684782931857649,0.5835660334172577,0.18219272144655552,0.8632333867399096
1684782931873638,0.5276569771877622,0.26105134660868234,0.7221179522392616
1684782931889627,0.5571984435797663,0.23504997329671173,0.7049057755397881
1684782931905615,0.559273670557717,0.27533379110399014,0.8570077058060575
1684782931921604,0.5309529259174486,0.29034866865033937,0.9889677271686885
1684782931937593,0.5423056382085907,0.29962615396353076,0.9456321049820708
1684782931953582,0.591989013504234,0.21393148699168396,0.7927977416647591
1684782931969571,0.6317845426108191,0.15936522468909775,0.6896467536430917
1684782931985560,0.6601052872510875,0.07147325856412579,0.6237277790493625
1684782932001548,0.7146715495536737,0.058411535820553695,0.6928206301976045
1684782932017537,0.6994125276569774,0.07061875333791079,0.7145494773785002
1684782932033526,0.6620584420538647,0.14935530632486493,0.7471427481498436
1684782932049515,0.6341039139391169,0.16852063782711557,0.7571526665140764
1684782932065307,0.6529030289158468,0.15741206988632062,0.7481193255512322
1684782932081295,0.671335927367056,0.11834897383077703,0.7140611886778059
1684782932097283,0.679880979629206,0.1041886015106428,0.7401846341649501
1684782932113271,0.6769512474250403,0.10870527199206492,0.7799801632715342
1684782932129259,0.6518043793392847,0.13275349050125929,0.7769283588921949
1684782932145247,0.641184100099184,0.15045395590142707,0.778027008468757
1684782932161234,0.6398413061722747,0.15863279163805633,0.7714351110093842
1684782932177222,0.6304417486839098,0.16778820477607415,0.7714351110093842
1684782932193210,0.6282444495307855,0.17291523613336413,0.8336919203479054
1684782932209198,0.6239719233997096,0.166689555199512,0.8439459830624854
1684782932225186,0.6321507591363398,0.1591210803387506,0.8327153429465168
1684782932241174,0.6292210269321741,0.15594720378423776,0.8030518043793391
1684782932257162,0.6373998626688033,0.1377584496833757,0.7765621423666742
1684782932273150,0.6406958113984897,0.14178683146410354,0.7783932249942778
1684782932289137,0.6247043564507511,0.1604638742656599,0.7862058442053863
1684782932305125,0.6055390249485004,0.17535667963683554,0.8100099183642326
1684782932321113,0.6121309224078733,0.18133821622034052,0.8057373922331577
1684782932337101,0.6333714808880755,0.15802243076218847,0.7886472877088577
1684782932353089,0.6399633783474483,0.14703593499656709,0.7566643778133821
1684782932369077,0.6387426565957126,0.14251926451514496,0.7707026779583428
1684782932384857,0.6239719233997096,0.15973144121461846,0.8013427939269091
1684782932400844,0.6139620050354768,0.16449225604638773,0.8239261463340197
1684782932416832,0.6018768596932933,0.1734035248340584,0.8197756923781183
1684782932432819,0.6081025406271454,0.16852063782711557,0.789135576409552
1684782932448806,0.617624170290684,0.15936522468909775,0.7897459372854199
1684782932464794,0.6171358815899897,0.1604638742656599,0.7898680094605934
1684782932480781,0.6055390249485004,0.16192874036774274,0.8202639810788126
1684782932496769,0.5908903639276719,0.18329137102311766,0.8394293125810632
1684782932512756,0.5967498283360033,0.16607919432364415,0.828686961165789
1684782932528743,0.5965056839856562,0.16620126649881772,0.8173342488746469
1684782932544731,0.5879606317235062,0.17486839093614126,0.8421149004348818
1684782932560718,0.5788052185854884,0.18915083543144906,0.8518806744487675
1684782932576706,0.5845426108186462,0.1806057831692991,0.8306401159685661
1684782932592693,0.5927214465552755,0.16852063782711557,0.8148928053711755
1684782932608680,0.5961394674601355,0.1780422674906541,0.8323491264209961
1684782932624668,0.5819790951400012,0.17792019531548053,0.8466315709163039
1684782932640655,0.5698939497978177,0.17242694743266984,0.8404058899824518
1684782932656643,0.5913786526283662,0.17962920576791053,0.8280766002899211
1684782932672630,0.5888151369497212,0.18243686579690266,0.8153810940718698
1684782932688617,0.5915007248035398,0.17328145265888484,0.8174563210498205
1684782932704376,0.5956511787594412,0.16742198825055343,0.8035400930800334
1684782932720362,0.5947966735332262,0.15936522468909775,0.8111085679407948
1684782932736349,0.5844205386434727,0.1751125352864884,0.8351567864499883
1684782932752335,0.5833218890669105,0.17901884489204267,0.8284428168154419
1684782932768322,0.5943083848325319,0.16559090562294987,0.8017090104524298
1684782932784308,0.5895475700007626,0.1646143282215613,0.8069581139848934
1684782932800295,0.5833218890669105,0.18377965972381194,0.8325932707713433
1684782932816281,0.5853971160448612,0.17816433966582768,0.8229495689326312
1684782932832267,0.5838101777676048,0.1663233386739913,0.8139162279697869
1684782932848254,0.5788052185854884,0.1713282978561077,0.8449225604638739
1684782932864240,0.573800259403372,0.18866254673075478,0.8477302204928661
1684782932880227,0.5761196307316698,0.1780422674906541,0.8301518272678718
1684782932896213,0.5745326924544134,0.1747463187609677,0.824414435034714
1684782932912200,0.5730678263523306,0.18365758754863837,0.8317387655451283
1684782932928186,0.5768520637827113,0.18280308232242337,0.8300297550926983
1684782932944172,0.5731898985275041,0.17962920576791053,0.8281986724650947
1684782932960159,0.5696498054474706,0.1771877622644391,0.8356450751506825
1684782932976145,0.5675745784695199,0.1839017318989855,0.8585946440833139
1684782932992132,0.567818722819867,0.1835355153734648,0.8435797665369646
1684782933008118,0.569527733272297,0.1835355153734648,0.831250476844434
1684782933023925,0.5696498054474706,0.17730983443961268,0.8297856107423511
1684782933039911,0.5633020523384449,0.17914091706721624,0.8394293125810632
1684782933055896,0.5665980010681313,0.18365758754863837,0.8371099412527654
1684782933071882,0.5684290836957349,0.17901884489204267,0.8390630960555425
1684782933087867,0.5614709697108413,0.1809719996948198,0.8396734569314104
1684782933103853,0.5591515983825435,0.1864652475776305,0.8433356221866175
1684782933119838,0.5634241245136185,0.18426794842450622,0.8362554360265504
1684782933135824,0.5590295262073699,0.18585488670176264,0.8405279621576254
1684782933151809,0.5596398870832378,0.18109407186999338,0.8449225604638739
1684782933167795,0.5617151140611885,0.18109407186999338,0.8339360646982525
1684782933183780,0.17022964827954556,0.4090028229190512,0.865674830243381
1684782933199766,0.6070038910505833,0.09527733272297212,0.9239032578011752
1684782933215751,0.5775844968337527,0.15313954375524563,0.8550545510032803
1684782933231737,0.4599069199664303,0.15802243076218847,0.8159914549477376
1684782933247722,0.6118867780575261,0.14508278019378995,0.9368429083695737
1684782933263708,0.5608606088349735,0.17267109178301698,0.9823758297093157
1684782933279693,0.5224078736552986,0.18963912413214334,0.7932860303654534
1684782933295679,0.5426718547341114,0.1818265049210348,0.9143816281376367
1684782933311664,0.5562218661783778,0.13470664530403642,0.8570077058060575
1684782933327650,0.5581750209811549,0.1427634088654921,0.827832455939574
1684782933343444,0.564400701915007,0.13885709925993783,0.8283207446402683
1684782933359429,0.5542687113756006,0.14752422369726137,0.8515144579232468
1684782933375414,0.5475547417410542,0.14630350194552566,0.8551766231784539
1684782933391399,0.5532921339742121,0.14471656366826924,0.8559090562294953
1684782933407384,0.5518272678721292,0.1444724193179221,0.8587167162584874
1684782933423370,0.5486533913176164,0.14886701762417065,0.8484626535439075
1684782933439355,0.5551232166018156,0.15045395590142707,0.8510261692225525
1684782933455340,0.5573205157549399,0.14703593499656709,0.8438239108873118
1684782933471325,0.5509727626459142,0.15008773937590636,0.8523689631494618
1684782933487310,0.5493858243686578,0.14898908979934422,0.854566262302586
1684782933503295,0.5486533913176164,0.15179674982833635,0.8592050049591817
1684782933519280,0.5510948348210878,0.15082017242694779,0.8496833752956432
1684782933535265,0.5469443808651864,0.14935530632486493,0.8590829327840082
1684782933551250,0.5440146486610207,0.15094224460212136,0.8661631189440753
1684782933567235,0.5443808651865414,0.15423819333180777,0.8601815823605703
1684782933583220,0.5495078965438314,0.1553368429083699,0.857984283207446
1684782933599205,0.54706645304036,0.1511863889524685,0.8535896849011975
1684782933615190,0.5449912260624092,0.15216296635385707,0.8491950865949489
1684782933631175,0.5509727626459142,0.15228503852903064,0.8574959945067517
1684782933647160,0.5513389791714349,0.15692378118562633,0.8568856336308839
1684782933663025,0.5430380712596321,0.1520408941786835,0.8555428397039746
1684782933679009,0.5456015869382771,0.1494773785000385,0.8584725719081403
1684782933694993,0.5464560921644921,0.14581521324483138,0.8543221179522389
1684782933710977,0.5474326695658807,0.15985351338979203,0.8610360875867853
1684782933726961,0.54193942168307,0.15057602807660064,0.8531013962005032
1684782933742945,0.5424277103837642,0.14850080109864994,0.8594491493095289
1684782933758929,0.5448691538872357,0.15057602807660064,0.8615243762874796
1684782933774913,0.5484092469672692,0.1520408941786835,0.8540779736018917
1684782933790897,0.54706645304036,0.15008773937590636,0.8493171587701225
1684782933806881,0.5432822156099792,0.1423971923399714,0.8499275196459903
1684782933822865,0.5424277103837642,0.15606927595941134,0.8686045624475467
1684782933838849,0.54535744258793,0.14593728542000495,0.8531013962005032
1684782933854833,0.5429159990844585,0.15277332722972492,0.8603036545357439
1684782933870817,0.5390096894789043,0.1511863889524685,0.8693369954985881
1684782933886801,0.5398641947051193,0.15545891508354348,0.861402304112306
1684782933902785,0.5424277103837642,0.15167467765316278,0.8573739223315782
1684782933918769,0.5397421225299457,0.15106431677729493,0.8612802319371324
1684782933934754,0.5387655451285571,0.1544823376821549,0.851148241397726
1684782933950738,0.5387655451285571,0.1503318837262535,0.8621347371633474
1684782933966722,0.5416952773327228,0.15460440985732848,0.8676279850461581
1684782933982544,0.5377889677271686,0.15509269855802277,0.8657969024185546
1684782933998527,0.5360799572747386,0.15106431677729493,0.8635996032654303
1684782934014511,0.5386434729533836,0.14593728542000495,0.8566414892805367
1684782934030494,0.5403524834058135,0.15570305943389062,0.8667734798199431
1684782934046478,0.5371786068513007,0.15423819333180777,0.8550545510032803
1684782934062461,0.5366903181506064,0.14874494544899708,0.861402304112306
1684782934078445,0.5354695963988707,0.15069810025177421,0.8598153658350496
1684782934094429,0.5398641947051193,0.1491111619745178,0.8714122224765388
1684782934110412,0.5300984206912336,0.15472648203250206,0.860547798886091
1684782934126396,0.5349813076981764,0.14801251239795565,0.8670176241702903
1684782934142379,0.5232623788815136,0.15851071946288275,0.8589608606088346
1684782934158363,0.5369344625009536,0.14251926451514496,0.8688487067978938
1684782934174347,0.5264362554360265,0.1561913481345849,0.8633554589150831
1684782934190330,0.53168535896849,0.1477683680476085,0.8561532005798425
1684782934206314,0.5335164415960936,0.1456931410696578,0.8719005111772331
1684782934222297,0.5289997711146714,0.1482566567483028,0.8660410467689017
1684782934238281,0.5302204928664072,0.1528953994048985,0.8692149233234145
1684782934254264,0.5332722972457464,0.14044403753719426,0.8582284275577932
1684782934270248,0.5293659876401922,0.15362783245593992,0.8815442130159461
1684782934286232,0.5276569771877622,0.15191882200350992,0.8666514076447696
1684782934302063,0.5336385137712671,0.14349584191653353,0.8661631189440753
1684782934318046,0.5329060807202257,0.1465476462958728,0.864820325017166
1684782934334029,0.5314412146181429,0.14837872892347637,0.864820325017166
1684782934350012,0.5321736476691843,0.14312962539101282,0.8712901503013653
1684782934365995,0.5261921110856793,0.14813458457312922,0.8695811398489353
1684782934381978,0.53510337987335,0.14435034714274853,0.8589608606088346
1684782934397961,0.535957885099565,0.14496070801861638,0.8552986953536275
1684782934413944,0.5263141832608529,0.14935530632486493,0.8732433051041424
1684782934429927,0.5303425650415807,0.14715800717174066,0.8683604180971995
1684782934445911,0.5336385137712671,0.14117647058823568,0.869947356374456
1684782934461894,0.5285114824139772,0.14312962539101282,0.8670176241702903
1684782934477877,0.5266803997863736,0.14850080109864994,0.8781261921110861
1684782934493860,0.5324177920195314,0.14093232623788854,0.8692149233234145
1684782934509843,0.5286335545891507,0.1465476462958728,0.8672617685206374
1684782934525826,0.5268024719615472,0.1410543984130621,0.8697032120241088
1684782934541809,0.5307087815671014,0.14178683146410354,0.8668955519951167
1684782934557792,0.5315632867933164,0.1448386358434428,0.8644541084916453
1684782934573775,0.5281452658884564,0.14422827496757495,0.873365377279316
1684782934589758,0.5244831006332493,0.13702601663233427,0.8767833981841768
1684782934605742,0.5265583276112,0.14178683146410354,0.8739757381551838
1684782934621643,0.5272907606622415,0.1423971923399714,0.863965819790951
1684782934637625,0.5297322041657129,0.14496070801861638,0.8688487067978938
1684782934653608,0.5263141832608529,0.13995574883649997,0.8677500572213317
1684782934669591,0.5287556267643243,0.14227512016479782,0.8755626764324411
1684782934685573,0.5270466163118943,0.1406881818875414,0.874219882505531
1684782934701556,0.5255817502098115,0.14508278019378995,0.8695811398489353
1684782934717538,0.5279011215381093,0.13971160448615283,0.8681162737468524
1684782934733521,0.5258258945601586,0.14227512016479782,0.8758068207827883
1684782934749504,0.5275349050125886,0.1415426871137564,0.8677500572213317
1684782934765486,0.5238727397573815,0.13971160448615283,0.8727550164034481
1684782934781469,0.5269245441367207,0.13763637750820212,0.8792248416876483
1684782934797452,0.5187457084000915,0.1453269245441371,0.8745860990310517
1684782934813434,0.5241168841077286,0.14337376974135996,0.8814221408407725
1684782934829417,0.5185015640497443,0.1423971923399714,0.8715342946517124
1684782934845399,0.5232623788815136,0.13922331578545855,0.8731212329289688
1684782934861382,0.5221637293049515,0.1334859235523007,0.8660410467689017
1684782934877365,0.5217975127794308,0.14764629587243494,0.8667734798199431
1684782934893347,0.5250934615091172,0.13739223315785498,0.8703135728999767
1684782934909330,0.5227740901808193,0.14459449149309567,0.8711680781261917
1684782934925313,0.5233844510566872,0.1401998931868471,0.8748302433813988
1684782934941162,0.5236285954070343,0.1410543984130621,0.871656366826886
1684782934957144,0.5199664301518272,0.14605935759517852,0.8744640268558781
1684782934973126,0.5215533684290836,0.13971160448615283,0.8781261921110861
1684782934989108,0.5227740901808193,0.14166475928892996,0.8732433051041424
1684782935005090,0.5238727397573815,0.14178683146410354,0.8715342946517124
1684782935021072,0.52484931715877,0.14300755321583924,0.864820325017166
1684782935037055,0.5227740901808193,0.14349584191653353,0.8700694285496295
1684782935053037,0.5220416571297779,0.13800259403372284,0.8823987182421611
1684782935069019,0.5198443579766536,0.14435034714274853,0.8766613260090033
1684782935085001,0.5235065232318608,0.14459449149309567,0.874219882505531
1684782935100983,0.51972228580148,0.14288548104066567,0.8729991607537952
1684782935116965,0.5198443579766536,0.14081025406271497,0.8767833981841768
1684782935132948,0.5236285954070343,0.14312962539101282,0.8738536659800102
1684782935148930,0.523994811932555,0.13531700617990428,0.8662851911192488
1684782935164912,0.5178912031738765,0.14813458457312922,0.8788586251621275
1684782935180894,0.5238727397573815,0.14728007934691423,0.8650644693675131
1684782935196876,0.5254596780346379,0.14312962539101282,0.8684824902723731
1684782935212858,0.520576791027695,0.14593728542000495,0.8727550164034481
1684782935228840,0.5221637293049515,0.1448386358434428,0.8751964599069204
1684782935244823,0.5224078736552986,0.13922331578545855,0.8764171816586561
1684782935260711,0.5178912031738765,0.14496070801861638,0.8788586251621275
1684782935276693,0.5185015640497443,0.15130846112764207,0.8764171816586561
1684782935292675,0.5250934615091172,0.1394674601358057,0.8700694285496295
1684782935308656,0.5210650797283893,0.14715800717174066,0.8720225833524067
1684782935324638,0.5246051728084229,0.14422827496757495,0.8751964599069204
1684782935340620,0.5172808422980086,0.14166475928892996,0.8738536659800102
1684782935356601,0.520576791027695,0.14715800717174066,0.878736552986954
1684782935372583,0.5242389562829022,0.14959945067521208,0.8712901503013653
1684782935388565,0.52143129625391,0.14508278019378995,0.8798352025635161
1684782935404546,0.5181353475242236,0.14728007934691423,0.875318532082094
1684782935420528,0.5241168841077286,0.14081025406271497,0.8681162737468524
1684782935436510,0.5225299458304722,0.1432516975661864,0.8737315938048367
1684782935452491,0.5196002136263065,0.14630350194552566,0.8769054703593504
1684782935468473,0.5188677805752651,0.1427634088654921,0.8739757381551838
1684782935484455,0.5226520180056458,0.14349584191653353,0.8723887998779274
1684782935500436,0.5187457084000915,0.1401998931868471,0.8784924086366068
1684782935516418,0.520576791027695,0.1465476462958728,0.8822766460669875
1684782935532400,0.5171587701228351,0.14959945067521208,0.874219882505531
1684782935548381,0.523994811932555,0.14081025406271497,0.8740978103303574
1684782935564363,0.5177691309987029,0.1491111619745178,0.8745860990310517
1684782935580230,0.5155718318455786,0.1456931410696578,0.8793469138628218
1684782935596212,0.5193560692759593,0.14032196536202068,0.881300068665599
1684782935612193,0.5172808422980086,0.14642557412069923,0.8760509651331354
1684782935628174,0.5220416571297779,0.1436179140917071,0.8721446555275802
1684782935644155,0.5194781414511329,0.14227512016479782,0.8759288929579618
1684782935660136,0.5186236362249179,0.14203097581445068,0.8756847486076147
1684782935676118,0.5224078736552986,0.14386205844205424,0.876173037308309
1684782935692099,0.5209430075532158,0.14544899671931066,0.8736095216296631
1684782935708080,0.5175249866483558,0.1453269245441371,0.8764171816586561
1684782935724061,0.5200885023270008,0.14410620279240138,0.8749523155565724
1684782935740042,0.5215533684290836,0.1461814297703521,0.8698252841992824
1684782935756024,0.520576791027695,0.14337376974135996,0.8722667277027538
1684782935772005,0.5159380483710994,0.15008773937590636,0.8784924086366068
1684782935787986,0.5224078736552986,0.14288548104066567,0.8766613260090033
1684782935803967,0.5221637293049515,0.1465476462958728,0.8714122224765388
1684782935819948,0.5182574196993972,0.1477683680476085,0.8740978103303574
1684782935835929,0.52314030670634,0.14642557412069923,0.8706797894254974
1684782935851911,0.5194781414511329,0.14630350194552566,0.8710460059510181
1684782935867892,0.5188677805752651,0.14496070801861638,0.8722667277027538
1684782935883873,0.5194781414511329,0.14251926451514496,0.8737315938048367
1684782935899780,0.5164263370717936,0.14850080109864994,0.8803234912642104
1684782935915761,0.5202105745021743,0.1456931410696578,0.8745860990310517
1684782935931741,0.5206988632028686,0.14935530632486493,0.8697032120241088
1684782935947722,0.5192339971007858,0.14972152285038565,0.8738536659800102
1684782935963703,0.5213092240787365,0.14593728542000495,0.8786144808117804
1684782935979684,0.5187457084000915,0.14679179064621994,0.875318532082094
1684782935995664,0.5186236362249179,0.14581521324483138,0.8723887998779274
1684782936011645,0.5196002136263065,0.14923323414969136,0.875318532082094
1684782936027626,0.5230182345311665,0.15106431677729493,0.8834973678187232
1684782936043606,0.5215533684290836,0.1436179140917071,0.8633554589150831
1684782936059587,0.5180132753490501,0.14728007934691423,0.8776379034103918
1684782936075568,0.5216754406042572,0.14337376974135996,0.874219882505531
1684782936091549,0.520576791027695,0.14789044022278208,0.8734874494544895
1684782936107529,0.5198443579766536,0.1482566567483028,0.877027542534524
1684782936123510,0.5199664301518272,0.1461814297703521,0.8729991607537952
1684782936139491,0.5213092240787365,0.14386205844205424,0.8760509651331354
1684782936155471,0.5206988632028686,0.1494773785000385,0.873365377279316
1684782936171452,0.5224078736552986,0.14752422369726137,0.8723887998779274
1684782936187433,0.5174029144731822,0.15008773937590636,0.8767833981841768
1684782936203414,0.51972228580148,0.14227512016479782,0.877027542534524
1684782936219329,0.5178912031738765,0.14496070801861638,0.8789806973373011
1684782936235310,0.5211871519035629,0.14813458457312922,0.8714122224765388
1684782936251291,0.5196002136263065,0.1436179140917071,0.8728770885786217
1684782936267272,0.5180132753490501,0.1474021515220878,0.8758068207827883
1684782936283252,0.5193560692759593,0.14984359502555922,0.8745860990310517
1684782936299233,0.5217975127794308,0.14605935759517852,0.8726329442282745
1684782936315214,0.5189898527504386,0.14715800717174066,0.8684824902723731
1684782936331195,0.520576791027695,0.14630350194552566,0.8744640268558781
1684782936347175,0.5203326466773479,0.14593728542000495,0.8728770885786217
1684782936363156,0.5174029144731822,0.14691386282139351,0.8760509651331354
1684782936379137,0.5187457084000915,0.14679179064621994,0.8756847486076147
1684782936395117,0.5213092240787365,0.14728007934691423,0.8683604180971995
1684782936411098,0.5196002136263065,0.1465476462958728,0.8745860990310517
1684782936427079,0.5200885023270008,0.14728007934691423,0.8732433051041424
1684782936443060,0.5185015640497443,0.14557106889448423,0.8776379034103918
1684782936459040,0.5174029144731822,0.14508278019378995,0.8754406042572676
1684782936475021,0.5189898527504386,0.1436179140917071,0.876173037308309
1684782936491002,0.5183794918745708,0.14886701762417065,0.8728770885786217
1684782936506982,0.5188677805752651,0.14752422369726137,0.8736095216296631
1684782936522963,0.5186236362249179,0.14544899671931066,0.8754406042572676
1684782936538849,0.5175249866483558,0.14666971847104637,0.8750743877317468
1684782936554829,0.5215533684290836,0.14728007934691423,0.8754406042572676
1684782936570809,0.5189898527504386,0.14679179064621994,0.8717784390020595
1684782936586789,0.5191119249256122,0.14422827496757495,0.877882047760739
1684782936602769,0.5199664301518272,0.14728007934691423,0.8731212329289688
1684782936618750,0.5183794918745708,0.14544899671931066,0.8751964599069204
1684782936634730,0.5194781414511329,0.14593728542000495,0.8731212329289688
1684782936650710,0.5219195849546043,0.15143053330281564,0.879591058213169
1684782936666690,0.5200885023270008,0.14471656366826924,0.8743419546807045
1684782936682671,0.5183794918745708,0.14251926451514496,0.8819104295414668
1684782936698651,0.5154497596704051,0.14752422369726137,0.8781261921110861
1684782936714631,0.5202105745021743,0.14557106889448423,0.8705577172503238
1684782936730611,0.5203326466773479,0.1494773785000385,0.8734874494544895
1684782936746592,0.5200885023270008,0.14593728542000495,0.8723887998779274
1684782936762572,0.5194781414511329,0.14679179064621994,0.8739757381551838
1684782936778552,0.5185015640497443,0.14557106889448423,0.8765392538338297
1684782936794532,0.5189898527504386,0.1486228732738235,0.8782482642862597
1684782936810513,0.5208209353780422,0.14703593499656709,0.8715342946517124
1684782936826493,0.5200885023270008,0.14703593499656709,0.8727550164034481
1684782936842473,0.5180132753490501,0.14605935759517852,0.8762951094834825
1684782936858398,0.5185015640497443,0.1453269245441371,0.8794689860379954
1684782936874378,0.5187457084000915,0.14923323414969136,0.8766613260090033
1684782936890359,0.5194781414511329,0.14496070801861638,0.8729991607537952
1684782936906339,0.5171587701228351,0.14752422369726137,0.8764171816586561
1684782936922319,0.5200885023270008,0.14557106889448423,0.8738536659800102
1684782936938299,0.5185015640497443,0.14666971847104637,0.8711680781261917
1684782936954280,0.51972228580148,0.14593728542000495,0.8743419546807045
1684782936970260,0.520576791027695,0.1448386358434428,0.8723887998779274
1684782936986240,0.5186236362249179,0.14813458457312922,0.873365377279316
1684782937002220,0.5202105745021743,0.1439841306172278,0.873365377279316
1684782937018200,0.5170366979476615,0.14630350194552566,0.8767833981841768
1684782937034181,0.5187457084000915,0.14264133669031853,0.8782482642862597
1684782937050161,0.5193560692759593,0.14410620279240138,0.8756847486076147
1684782937066141,0.5185015640497443,0.14679179064621994,0.873365377279316
1684782937082121,0.5177691309987029,0.1486228732738235,0.877882047760739
1684782937098102,0.5193560692759593,0.14435034714274853,0.876173037308309
1684782937114082,0.5193560692759593,0.14679179064621994,0.8747081712062252
1684782937130062,0.5178912031738765,0.14666971847104637,0.8771496147096975
1684782937146042,0.5154497596704051,0.1465476462958728,0.8789806973373011
1684782937162023,0.5196002136263065,0.1415426871137564,0.875318532082094
1684782937177917,0.5181353475242236,0.14703593499656709,0.8747081712062252
1684782937193897,0.5149614709697108,0.1515526054779892,0.8782482642862597
1684782937209877,0.5178912031738765,0.14715800717174066,0.874219882505531
1684782937225856,0.5177691309987029,0.14410620279240138,0.8720225833524067
1684782937241836,0.5174029144731822,0.1474021515220878,0.8728770885786217
1684782937257816,0.5181353475242236,0.1448386358434428,0.8771496147096975
1684782937273796,0.5181353475242236,0.14593728542000495,0.8750743877317468
1684782937289775,0.5175249866483558,0.14496070801861638,0.8748302433813988
1684782937305755,0.5186236362249179,0.14386205844205424,0.8794689860379954
1684782937321735,0.5156939040207522,0.1477683680476085,0.8798352025635161
1684782937337715,0.5171587701228351,0.14837872892347637,0.8755626764324411
1684782937353695,0.5187457084000915,0.14691386282139351,0.8740978103303574
1684782937369674,0.5126420996414129,0.14630350194552566,0.8751964599069204
1684782937385654,0.5186236362249179,0.14496070801861638,0.8914320592050053
1684782937401634,0.5172808422980086,0.14691386282139351,0.8739757381551838
1684782937417614,0.5180132753490501,0.14508278019378995,0.8732433051041424
1684782937433593,0.5169146257724879,0.14764629587243494,0.8760509651331354
1684782937449573,0.520576791027695,0.14386205844205424,0.872510872053101
1684782937465553,0.5163042648966201,0.14801251239795565,0.874219882505531
1684782937481533,0.5177691309987029,0.14874494544899708,0.8744640268558781
1684782937497467,0.5206988632028686,0.14715800717174066,0.8706797894254974
1684782937513446,0.5161821927214465,0.14959945067521208,0.8788586251621275
1684782937529425,0.5160601205462729,0.14373998626688067,0.8776379034103918
1684782937545405,0.520576791027695,0.1432516975661864,0.8750743877317468
1684782937561384,0.5116655222400244,0.14728007934691423,0.8775158312352183
1684782937577363,0.5183794918745708,0.14874494544899708,0.8867933165484096
1684782937593342,0.5199664301518272,0.1456931410696578,0.8692149233234145
1684782937609322,0.5143511100938429,0.15301747158007206,0.8736095216296631
1684782937625301,0.520576791027695,0.14581521324483138,0.8723887998779274
1684782937641280,0.5176470588235293,0.15130846112764207,0.8898451209277489
1684782937657260,0.5200885023270008,0.14264133669031853,0.8737315938048367
1684782937673239,0.5171587701228351,0.1499656672007328,0.8734874494544895
1684782937689218,0.5182574196993972,0.14874494544899708,0.8727550164034481
1684782937705197,0.5193560692759593,0.1503318837262535,0.8756847486076147
1684782937721177,0.5175249866483558,0.1494773785000385,0.8784924086366068
1684782937737156,0.5155718318455786,0.1474021515220878,0.8769054703593504
1684782937753135,0.5191119249256122,0.1448386358434428,0.8750743877317468
1684782937769115,0.5193560692759593,0.14789044022278208,0.874219882505531
1684782937785094,0.5167925535973144,0.15350576028076635,0.8729991607537952
1684782937801073,0.5187457084000915,0.1453269245441371,0.8750743877317468
1684782937816986,0.5186236362249179,0.14642557412069923,0.874219882505531
1684782937832965,0.5187457084000915,0.14715800717174066,0.8720225833524067
1684782937848944,0.5169146257724879,0.14813458457312922,0.8773937590600447
1684782937864924,0.5176470588235293,0.14813458457312922,0.8734874494544895
1684782937880903,0.5191119249256122,0.1491111619745178,0.877027542534524
1684782937896882,0.5185015640497443,0.1494773785000385,0.8786144808117804
1684782937912861,0.51972228580148,0.14679179064621994,0.8743419546807045
1684782937928841,0.5164263370717936,0.14923323414969136,0.8743419546807045
1684782937944820,0.5175249866483558,0.14923323414969136,0.875318532082094
1684782937960799,0.5182574196993972,0.1482566567483028,0.875318532082094
1684782937976779,0.5174029144731822,0.14605935759517852,0.8737315938048367
1684782937992758,0.5183794918745708,0.14593728542000495,0.8712901503013653
1684782938008737,0.5172808422980086,0.14886701762417065,0.8756847486076147
1684782938024716,0.5183794918745708,0.14789044022278208,0.878736552986954
1684782938040696,0.5153276874952315,0.1491111619745178,0.8758068207827883
1684782938056675,0.5148393987945372,0.14764629587243494,0.8794689860379954
1684782938072654,0.5185015640497443,0.1474021515220878,0.8792248416876483
1684782938088634,0.5200885023270008,0.14789044022278208,0.8775158312352183
1684782938104613,0.5199664301518272,0.14886701762417065,0.8748302433813988
1684782938120592,0.5188677805752651,0.14728007934691423,0.8723887998779274
1684782938136505,0.5175249866483558,0.1486228732738235,0.8755626764324411
1684782938152484,0.5178912031738765,0.14752422369726137,0.8776379034103918
1684782938168462,0.5167925535973144,0.15228503852903064,0.8751964599069204
1684782938184441,0.5176470588235293,0.14520485236896352,0.8783703364614333
1684782938200420,0.5152056153200579,0.14837872892347637,0.878736552986954
1684782938216399,0.5180132753490501,0.14837872892347637,0.8827649347676818
1684782938232378,0.5167925535973144,0.15191882200350992,0.8745860990310517
1684782938248356,0.5198443579766536,0.1465476462958728,0.8740978103303574
1684782938264335,0.5170366979476615,0.14703593499656709,0.8755626764324411
1684782938280314,0.5170366979476615,0.14813458457312922,0.8799572747386897
1684782938296293,0.5161821927214465,0.14837872892347637,0.8786144808117804
1684782938312272,0.5141069657434958,0.14972152285038565,0.8764171816586561
1684782938328251,0.5171587701228351,0.14789044022278208,0.8760509651331354
1684782938344229,0.5163042648966201,0.14874494544899708,0.8773937590600447
1684782938360208,0.5177691309987029,0.1465476462958728,0.8764171816586561
1684782938376187,0.5144731822690165,0.15252918287937778,0.8767833981841768
1684782938392166,0.5159380483710994,0.14691386282139351,0.8800793469138632
1684782938408145,0.5152056153200579,0.1515526054779892,0.8773937590600447
1684782938424123,0.5160601205462729,0.1503318837262535,0.877027542534524
1684782938440102,0.5153276874952315,0.1541161211566342,0.8766613260090033
1684782938456054,0.5160601205462729,0.14789044022278208,0.8745860990310517
1684782938472033,0.5169146257724879,0.1503318837262535,0.8760509651331354
1684782938488012,0.5202105745021743,0.15143053330281564,0.8714122224765388
1684782938503991,0.5150835431448844,0.15216296635385707,0.8750743877317468
1684782938519970,0.5147173266193636,0.15167467765316278,0.8722667277027538
1684782938535948,0.5163042648966201,0.15216296635385707,0.8784924086366068
1684782938551927,0.5161821927214465,0.1511863889524685,0.8760509651331354
1684782938567906,0.5133745326924544,0.1541161211566342,0.8769054703593504
1684782938583885,0.5148393987945372,0.15191882200350992,0.8791027695124747
1684782938599864,0.5192339971007858,0.14837872892347637,0.8732433051041424
1684782938615842,0.5155718318455786,0.15387197680628706,0.8783703364614333
1684782938631821,0.5138628213931486,0.15277332722972492,0.8797131303883425
1684782938647800,0.5159380483710994,0.1491111619745178,0.8797131303883425
1684782938663779,0.5177691309987029,0.15106431677729493,0.875318532082094
1684782938679758,0.5161821927214465,0.15570305943389062,0.8755626764324411
1684782938695737,0.5164263370717936,0.15216296635385707,0.8786144808117804
1684782938711715,0.5138628213931486,0.15387197680628706,0.8705577172503238
1684782938727694,0.5160601205462729,0.15179674982833635,0.8771496147096975
1684782938743673,0.5127641718165865,0.15509269855802277,0.8777599755855654
1684782938759652,0.5193560692759593,0.15899900816357704,0.8793469138628218
1684782938775573,0.5203326466773479,0.1511863889524685,0.8653086137178603
1684782938791552,0.5183794918745708,0.15143053330281564,0.876173037308309
1684782938807531,0.5170366979476615,0.1520408941786835,0.8793469138628218
1684782938823510,0.5131303883421072,0.15252918287937778,0.8777599755855654
1684782938839489,0.5136186770428015,0.15106431677729493,0.874219882505531
1684782938855467,0.5154497596704051,0.15008773937590636,0.8784924086366068
1684782938871446,0.5163042648966201,0.1553368429083699,0.8715342946517124
1684782938887425,0.5141069657434958,0.15692378118562633,0.8808117799649047
1684782938903404,0.5145952544441901,0.15680170901045276,0.8751964599069204
1684782938919383,0.5143511100938429,0.14801251239795565,0.8822766460669875
1684782938935361,0.5116655222400244,0.15863279163805633,0.8797131303883425
1684782938951340,0.5185015640497443,0.1486228732738235,0.8747081712062252
1684782938967319,0.5161821927214465,0.1566796368352792,0.8712901503013653
1684782938983298,0.5175249866483558,0.1532616159304192,0.872510872053101
1684782938999277,0.5131303883421072,0.1587548638132299,0.8802014190890368
1684782939015256,0.5132524605172808,0.15313954375524563,0.8762951094834825
1684782939031234,0.5128862439917601,0.15765621423666776,0.8771496147096975
1684782939047213,0.5163042648966201,0.15509269855802277,0.8738536659800102
1684782939063192,0.5116655222400244,0.15985351338979203,0.8764171816586561
1684782939079171,0.5150835431448844,0.15631342030975848,0.8762951094834825
1684782939095123,0.5161821927214465,0.15252918287937778,0.8793469138628218
1684782939111101,0.5133745326924544,0.16156252384222203,0.8765392538338297
1684782939127080,0.5183794918745708,0.15521477073319634,0.8721446555275802
1684782939143058,0.5073929961089494,0.1587548638132299,0.8688487067978938
1684782939159036,0.5144731822690165,0.16009765774013918,0.8797131303883425
1684782939175015,0.5148393987945372,0.15655756466010562,0.8736095216296631
1684782939190993,0.5154497596704051,0.15802243076218847,0.8769054703593504
1684782939206971,0.509224078736553,0.16473640039673487,0.9016861219195853
1684782939222950,0.5121538109407187,0.16156252384222203,0.8677500572213317
1684782939238928,0.5158159761959258,0.16119630731670131,0.8803234912642104
1684782939254906,0.5141069657434958,0.16034180209048632,0.8755626764324411
1684782939270885,0.5105668726634622,0.15765621423666776,0.8744640268558781
1684782939286863,0.5141069657434958,0.15777828641184133,0.8738536659800102
1684782939302841,0.5145952544441901,0.16034180209048632,0.8769054703593504
1684782939318820,0.5149614709697108,0.15765621423666776,0.8750743877317468
1684782939334798,0.5123979552910658,0.15985351338979203,0.8777599755855654
1684782939350776,0.5095902952620737,0.16192874036774274,0.8789806973373011
1684782939366755,0.5147173266193636,0.15692378118562633,0.876173037308309
1684782939382733,0.5131303883421072,0.16278324559395774,0.8766613260090033
1684782939398711,0.5122758831158922,0.16729991607537986,0.8710460059510181
1684782939414642,0.5139848935683222,0.1604638742656599,0.8710460059510181
1684782939430620,0.5139848935683222,0.16070801861600703,0.8760509651331354
1684782939446599,0.5137407492179751,0.16058594644083346,0.878736552986954
1684782939462577,0.5112993057145037,0.16034180209048632,0.8755626764324411
1684782939478555,0.5123979552910658,0.1633936064698256,0.8759288929579618
1684782939494534,0.5154497596704051,0.1591210803387506,0.8723887998779274
1684782939510512,0.5115434500648508,0.1558251316090642,0.873365377279316
1684782939526490,0.509224078736553,0.167544060425727,0.8849622339208061
1684782939542469,0.5131303883421072,0.1629053177691313,0.8728770885786217
1684782939558447,0.5116655222400244,0.16009765774013918,0.8759288929579618
1684782939574425,0.5098344396124208,0.16217288471808988,0.8782482642862597
1684782939590404,0.5108110170138094,0.1620508125429163,0.8781261921110861
1684782939606382,0.5133745326924544,0.16351567864499916,0.8767833981841768
1684782939622360,0.5114213778896772,0.16388189517051988,0.8762951094834825
1684782939638339,0.5148393987945372,0.16070801861600703,0.8701915007248031
1684782939654317,0.5138628213931486,0.16302738994430488,0.8719005111772331
1684782939670295,0.5117875944151979,0.16498054474708201,0.8737315938048367
1684782939686274,0.5122758831158922,0.16131837949187489,0.8792248416876483
1684782939702252,0.5133745326924544,0.16107423514152774,0.8771496147096975
1684782939718230,0.5125200274662394,0.1625391012436106,0.877882047760739
1684782939734192,0.5093461509117265,0.1620508125429163,0.8740978103303574
1684782939750170,0.5104448004882887,0.16095216296635417,0.874219882505531
1684782939766148,0.5111772335393301,0.16278324559395774,0.8776379034103918
1684782939782127,0.5099565117875944,0.16302738994430488,0.8799572747386897
1684782939798105,0.5132524605172808,0.16034180209048632,0.8747081712062252
1684782939814083,0.5115434500648508,0.1616845960173956,0.8748302433813988
1684782939830062,0.5145952544441901,0.15936522468909775,0.8754406042572676
1684782939846040,0.5098344396124208,0.16705577172503272,0.8784924086366068
1684782939862018,0.5142290379186694,0.16131837949187489,0.8727550164034481
1684782939877997,0.5098344396124208,0.1625391012436106,0.8782482642862597
1684782939893975,0.5112993057145037,0.16314946211947845,0.880445563439384
1684782939909953,0.5103227283131151,0.16351567864499916,0.8782482642862597
1684782939925932,0.5102006561379415,0.16400396734569345,0.8749523155565724
1684782939941910,0.5106889448386358,0.16437018387121416,0.877027542534524
1684782939957888,0.5104448004882887,0.16351567864499916,0.8789806973373011
1684782939973867,0.5111772335393301,0.1604638742656599,0.8750743877317468
1684782939989845,0.5126420996414129,0.16278324559395774,0.8731212329289688
1684782940005823,0.5145952544441901,0.1604638742656599,0.8749523155565724
1684782940021802,0.5112993057145037,0.16278324559395774,0.8726329442282745
1684782940037780,0.5108110170138094,0.16412603952086702,0.8719005111772331
1684782940053741,0.5138628213931486,0.16266117341878417,0.8732433051041424
1684782940069719,0.5126420996414129,0.16131837949187489,0.8764171816586561
1684782940085698,0.5128862439917601,0.16314946211947845,0.8793469138628218
1684782940101676,0.5105668726634622,0.16485847257190844,0.8765392538338297
1684782940117654,0.5137407492179751,0.16156252384222203,0.8700694285496295
1684782940133633,0.5099565117875944,0.1642481116960406,0.8760509651331354
1684782940149611,0.5136186770428015,0.16388189517051988,0.8793469138628218
1684782940165589,0.5111772335393301,0.16314946211947845,0.8788586251621275
1684782940181568,0.5114213778896772,0.1575341420614942,0.8791027695124747
1684782940197546,0.5110551613641565,0.1629053177691313,0.877027542534524
1684782940213524,0.5123979552910658,0.16498054474708201,0.877027542534524
1684782940229503,0.5136186770428015,0.16180666819256917,0.876173037308309
1684782940245481,0.5131303883421072,0.15899900816357704,0.8736095216296631
1684782940261459,0.5111772335393301,0.1616845960173956,0.8780041199359125
1684782940277438,0.5132524605172808,0.15851071946288275,0.8760509651331354
1684782940293416,0.509224078736553,0.16595712214847058,0.8765392538338297
1684782940309394,0.5132524605172808,0.1604638742656599,0.8734874494544895
1684782940325373,0.5114213778896772,0.16192874036774274,0.8756847486076147
1684782940341351,0.5123979552910658,0.16241702906843702,0.8756847486076147
1684782940357329,0.5126420996414129,0.1620508125429163,0.8781261921110861
1684782940373260,0.5119096665903715,0.15973144121461846,0.8759288929579618
1684782940389238,0.5121538109407187,0.16144045166704846,0.8755626764324411
1684782940405216,0.5121538109407187,0.1625391012436106,0.8783703364614333
1684782940421194,0.5131303883421072,0.16070801861600703,0.8737315938048367
1684782940437172,0.5071488517586022,0.16400396734569345,0.882154573891814
1684782940453149,0.5161821927214465,0.16278324559395774,0.8771496147096975
1684782940469127,0.5121538109407187,0.16437018387121416,0.8749523155565724
1684782940485105,0.5112993057145037,0.16278324559395774,0.8825207904173347
1684782940501083,0.5095902952620737,0.16131837949187489,0.8755626764324411
1684782940517061,0.5132524605172808,0.1591210803387506,0.8762951094834825
1684782940533039,0.5143511100938429,0.15887693598840347,0.875318532082094
1684782940549017,0.5125200274662394,0.1625391012436106,0.8722667277027538
1684782940564994,0.5114213778896772,0.16363775082017273,0.872510872053101
1684782940580972,0.5123979552910658,0.1604638742656599,0.8710460059510181
1684782940596950,0.5126420996414129,0.1608300907911806,0.8760509651331354
1684782940612928,0.5122758831158922,0.1625391012436106,0.8755626764324411
1684782940628906,0.5122758831158922,0.15973144121461846,0.8760509651331354
1684782940644884,0.5106889448386358,0.16180666819256917,0.8769054703593504
1684782940660862,0.5136186770428015,0.15973144121461846,0.8765392538338297
1684782940676839,0.5150835431448844,0.16070801861600703,0.8775158312352183
1684782940692810,0.510933089188983,0.16144045166704846,0.8776379034103918
1684782940708788,0.5126420996414129,0.1596093690394449,0.8745860990310517
1684782940724765,0.5133745326924544,0.15985351338979203,0.8811779964904254
1684782940740743,0.5111772335393301,0.16180666819256917,0.8855725947966739
1684782940756721,0.5131303883421072,0.16107423514152774,0.8755626764324411
1684782940772699,0.5099565117875944,0.16510261692225559,0.8749523155565724
1684782940788677,0.5119096665903715,0.16388189517051988,0.8789806973373011
1684782940804655,0.5159380483710994,0.15594720378423776,0.8773937590600447
1684782940820633,0.5095902952620737,0.16131837949187489,0.8767833981841768
1684782940836610,0.5128862439917601,0.15777828641184133,0.873365377279316
1684782940852588,0.5177691309987029,0.1579003585870149,0.8738536659800102
1684782940868566,0.5111772335393301,0.16510261692225559,0.8814221408407725
1684782940884544,0.510078583962768,0.1654688334477763,0.8820325017166404
1684782940900522,0.5099565117875944,0.15338368810559277,0.866529335469596
1684782940916500,0.5141069657434958,0.15716792553597347,0.8756847486076147
1684782940932478,0.5095902952620737,0.14813458457312922,0.869947356374456
1684782940948455,0.5065384908827344,0.1642481116960406,0.8860608834973682
1684782940964433,0.5089799343862058,0.1625391012436106,0.8802014190890368
1684782940980411,0.5095902952620737,0.1620508125429163,0.8897230487525754
1684782940996389,0.504097047379263,0.16095216296635417,0.8915541313801789
1684782941012329,0.5071488517586022,0.14691386282139351,0.8885023270008396
1684782941028307,0.5098344396124208,0.12957961394674644,0.8744640268558781
1684782941044284,0.4246280613412683,0.2243076218814375,0.8629892423895624
1684782941060262,0.4879835202563516,0.21271076523994825,0.7995117112993055
1684782941076240,0.4888380254825666,0.19964904249637616,0.9000991836423289
1684782941092218,0.4749217975127795,0.18023956664377838,0.8791027695124747
1684782941108196,0.4918898298619059,0.1453269245441371,0.908888380254826
1684782941124174,0.499824521248188,0.12457465476462914,0.8726329442282745
1684782941140152,0.4694285496299688,0.18573281452658907,0.8839856565194175
1684782941156129,0.4523384451056689,0.20001525902189687,0.9430685893034259
1684782941172107,0.44489204242008107,0.2167391470206761,0.9273212787060352
1684782941188085,0.461127641718166,0.19671931029221046,0.8754406042572676
1684782941204063,0.4468451972228582,0.15594720378423776,0.9107194628824296
1684782941220041,0.4834668497749295,0.15594720378423776,0.8489509422446018
1684782941236019,0.4518501564049746,0.18536659800106836,0.9153582055390252
1684782941251997,0.4468451972228582,0.19623102159151617,0.9301289387350273
1684782941267974,0.44379339284351893,0.19684138246738403,0.9276874952315559
1684782941283952,0.45172808422980104,0.19855039291981402,0.9282978561074238
1684782941299930,0.4325627527275504,0.21600671396963467,0.9312275883115895
1684782941315908,0.4112001220721755,0.28619821469443796,0.857129777981231
1684782941331878,0.4700389105058367,0.2339513237201496,0.9265888456549938
1684782941347856,0.4732127870603495,0.17865262836652196,0.8800793469138632
1684782941363834,0.4740672922865645,0.18133821622034052,0.878736552986954
1684782941379812,0.4892042420080873,0.18170443274586123,0.8427252613107497
1684782941395790,0.4767528801403831,0.20733958953231113,0.9342793926909287
1684782941411768,0.4607614251926453,0.13592736705577213,0.907179369802396
1684782941427745,0.4414740215152211,0.2339513237201496,0.9286640726329445
1684782941443723,0.4569771877622646,0.25604638742656594,1.009597924773022
1684782941459701,0.492133974212253,0.22528419928282606,1.0023956664377813
1684782941475679,0.5570763714045928,0.20721751735713756,0.990554665445945
1684782941491657,0.5509727626459142,0.10528725108720494,0.8909437705043111
1684782941507635,0.6111543450064847,0.035217822537575216,0.679026474402991
1684782941523613,0.686717021438926,-0.046570534828717314,0.5862516212710762
1684782941539590,0.7311512932021058,-0.09857328145265898,0.5181353475242236
1684782941555568,0.6983138780804152,0.01898222323949028,0.6029755092698554
1684782941571546,0.6486305027847719,0.16607919432364415,0.7991454947737848
1684782941587524,0.53339436942092,0.21808194094758537,0.7041733424887466
1684782941603502,0.5834439612420841,0.12835889219501073,0.8078126192111084
1684782941619480,0.6320286869611662,0.07281605249103507,0.9781033035782407
1684782941635458,0.5990691996643012,0.14666971847104637,0.9090104524299996
1684782941651397,0.5974822613870447,0.1231097886625463,0.6621805142290382
1684782941667375,0.615060654612039,0.06756694895857152,0.7381094071869994
1684782941683353,0.5906462195773248,0.09259174486915356,0.9887235828183414
1684782941699331,0.5443808651865414,0.1386129549095907,0.8882581826504925
1684782941715309,0.53339436942092,0.23797970550087744,0.7658197909514
1684782941731287,0.539375906004425,0.23932249942778672,0.9187762264438852
1684782941747264,0.5642786297398334,0.14666971847104637,0.8706797894254974
1684782941763242,0.5777065690089263,0.1033340962844278,0.7932860303654534
1684782941779220,0.5690394445716027,0.11859311818112417,0.8603036545357439
1684782941795198,0.5653772793163956,0.15228503852903064,0.8643320363164717
1684782941811176,0.5508506904707406,0.1474021515220878,0.8865491721980625
1684782941827154,0.541084916456855,0.15924315251392418,0.8552986953536275
1684782941843132,0.5409628442816814,0.18133821622034052,0.8646982528419924
1684782941859110,0.5423056382085907,0.20209048599984758,0.8898451209277489
1684782941875087,0.5552452887769892,0.16107423514152774,0.8411383230334932
1684782941891065,0.5690394445716027,0.15936522468909775,0.8357671473258561
1684782941907043,0.574654764629587,0.1293354695963993,0.8399176012817575
1684782941923021,0.5701380941481649,0.12909132524605216,0.8245365072098876
1684782941938999,0.5545128557259478,0.14410620279240138,0.832104982070649
1684782941954977,0.5504844739452199,0.18512245365072122,0.8679942015716788
1684782941970916,0.5485313191424428,0.1818265049210348,0.8711680781261917
1684782941986894,0.5724574654764627,0.14679179064621994,0.8383306630045011
1684782942002871,0.6007782101167312,0.07879758907454004,0.7982909895475698
1684782942018849,0.5862516212710762,0.0919813839932857,0.8068360418097198
1684782942034826,0.5590295262073699,0.170107576104372,0.8640878919661246
1684782942050803,0.5653772793163956,0.16314946211947845,0.8710460059510181
1684782942066781,0.5808804455634391,0.10553139543755208,0.8247806515602347
1684782942082758,0.5790493629358355,0.1193255512321656,0.8223392080567633
1684782942098735,0.5736781872281984,0.15216296635385707,0.8594491493095289
1684782942114713,0.5692835889219499,0.14215304798962425,0.8451667048142211
1684782942130690,0.5724574654764627,0.12872510872053144,0.8217288471808954
1684782942146668,0.5781948577096205,0.1272602426184486,0.8350347142748147
1684782942162645,0.5713588158999006,0.14557106889448423,0.8438239108873118
1684782942178622,0.5711146715495534,0.15130846112764207,0.8421149004348818
1684782942194600,0.5862516212710762,0.12872510872053144,0.8344243533989468
1684782942210577,0.5805142290379184,0.13141069657435,0.8242923628595404
1684782942226554,0.5673304341191727,0.1448386358434428,0.8402838178072782
1684782942242532,0.572945754177157,0.12091248950942202,0.8294193942168304
1684782942258509,0.582345311665522,0.12298771648737272,0.8234378576333254
1684782942274487,0.5606164644846263,0.1738918135347527,0.867383840695811
1684782942290435,0.5530479896238649,0.17169451438162842,0.875318532082094
1684782942306413,0.5690394445716027,0.1406881818875414,0.8284428168154419
1684782942322390,0.5781948577096205,0.12603952086671288,0.8289311055161361
1684782942338368,0.5620813305867092,0.14605935759517852,0.8599374380102232
1684782942354345,0.560982681010147,0.16693369954985915,0.8356450751506825
1684782942370322,0.5753871976806284,0.13092240787365572,0.8311284046692604
1684782942386300,0.5764858472571905,0.12701609826810145,0.849439230945296
1684782942402277,0.5642786297398334,0.1558251316090642,0.8334477759975583
1684782942418254,0.5614709697108413,0.15460440985732848,0.8534676127260239
1684782942434232,0.5657434958419163,0.14386205844205424,0.862256809338521
1684782942450209,0.570382238498512,0.13788052185854927,0.8288090333409626
1684782942466187,0.567818722819867,0.14544899671931066,0.8632333867399096
1684782942482164,0.568673228046082,0.15558098725871705,0.850293736171511
1684782942498141,0.5748989089799341,0.13885709925993783,0.8103761348897534
1684782942514119,0.5733119707026777,0.12774853131914288,0.8191653315022505
1684782942530096,0.5651331349660484,0.15082017242694779,0.8543221179522389
1684782942546074,0.5633020523384449,0.1596093690394449,0.857984283207446
1684782942562051,0.5733119707026777,0.15338368810559277,0.8418707560845347
1684782942578028,0.563546196688792,0.13275349050125929,0.8560311284046689
1684782942594006,0.5624475471122299,0.15521477073319634,0.8262455176623176
1684782942609985,0.5718471046005948,0.13336385137712714,0.8468757152666511
1684782942625962,0.5742885481040663,0.14923323414969136,0.8487067978942546
1684782942641940,0.5634241245136185,0.14691386282139351,0.822705424582284
1684782942657917,0.5689173723964291,0.1432516975661864,0.8488288700694282
1684782942673895,0.5706263828488591,0.15106431677729493,0.8471198596169982
1684782942689872,0.560128175783932,0.15387197680628706,0.8415045395590139
1684782942705849,0.556710154879072,0.14764629587243494,0.852002746623941
1684782942721827,0.5546349279011213,0.16278324559395774,0.8616464484626531
1684782942737804,0.5598840314335849,0.1599755855649656,0.8446784161135268
1684782942753781,0.5560997940032042,0.13031204699778787,0.8379644464789804
1684782942769759,0.5844205386434727,0.1386129549095907,0.8561532005798425
1684782942785736,0.5521934843976499,0.1713282978561077,0.849439230945296
1684782942801714,0.5650110627908749,0.13116655222400286,0.8313725490196076
1684782942817691,0.5745326924544134,0.12909132524605216,0.832959487296864
1684782942833668,0.572945754177157,0.1499656672007328,0.8234378576333254
1684782942849646,0.5578088044556342,0.1511863889524685,0.8521248187991146
1684782942865623,0.5596398870832378,0.15350576028076635,0.8668955519951167
1684782942881600,0.5662317845426106,0.15191882200350992,0.840650034332799
1684782942897578,0.5585412375066756,0.14337376974135996,0.8340581368734261
1684782942913555,0.5586633096818492,0.1579003585870149,0.8587167162584874
1684782942929504,0.5676966506446934,0.14117647058823568,0.8507820248722053
1684782942945481,0.5613488975356677,0.14642557412069923,0.8378423743038068
1684782942961459,0.5579308766308078,0.16571297779812344,0.8607919432364382
1684782942977436,0.5619592584115356,0.15179674982833635,0.8488288700694282
1684782942993414,0.5634241245136185,0.13958953231097926,0.839795529106584
1684782943009391,0.5586633096818492,0.15631342030975848,0.8480964370183868
1684782943025368,0.5634241245136185,0.14422827496757495,0.8427252613107497
1684782943041346,0.5705043106736856,0.1491111619745178,0.8352788586251618
1684782943057323,0.5591515983825435,0.14056610971236783,0.8495613031204696
1684782943073300,0.5709925993743799,0.1520408941786835,0.8445563439383532
1684782943089278,0.5600061036087585,0.1461814297703521,0.8454108491645682
1684782943105255,0.5569542992294192,0.16021972991531275,0.8515144579232468
1684782943121233,0.5563439383535513,0.15631342030975848,0.8577401388570989
1684782943137210,0.5607385366597999,0.14349584191653353,0.8566414892805367
1684782943153187,0.5625696192874035,0.1486228732738235,0.8426031891355761
1684782943169165,0.5665980010681313,0.13531700617990428,0.8382085908293275
1684782943185142,0.5668421454184784,0.15716792553597347,0.8350347142748147
1684782943201120,0.5574425879301135,0.1625391012436106,0.8384527351796747
1684782943217097,0.5565880827038985,0.1596093690394449,0.8565194171053632
1684782943233074,0.5602502479591056,0.14129854276340925,0.8467536430914775
1684782943249054,0.5600061036087585,0.15252918287937778,0.8483405813687339
1684782943265031,0.5554894331273363,0.16522468909742916,0.8644541084916453
1684782943281008,0.5590295262073699,0.1579003585870149,0.8563973449301896
1684782943296986,0.5581750209811549,0.15863279163805633,0.8404058899824518
1684782943312963,0.5640344853894863,0.16021972991531275,0.8620126649881739
1684782943328940,0.5596398870832378,0.1532616159304192,0.8465094987411304
1684782943344918,0.5648889906157013,0.15716792553597347,0.835523002975509
1684782943360895,0.5586633096818492,0.17315938048371127,0.850293736171511
1684782943376873,0.5529259174486914,0.16656748302433844,0.8653086137178603
1684782943392850,0.5481651026169221,0.17914091706721624,0.8671396963454638
1684782943408827,0.5391317616540778,0.1482566567483028,0.8915541313801789
1684782943424805,0.5429159990844585,0.18707560845349835,0.9007095445181967
1684782943440782,0.5828336003662162,0.13373006790264785,0.8408941786831461
1684782943456760,0.5977264057373919,0.11786068513008274,0.8332036316472111
1684782943472737,0.5683070115205613,0.19452201113908618,0.8574959945067517
1684782943488714,0.563546196688792,0.21869230182345323,0.8858167391470211
1684782943504692,0.5824673838406955,0.204531929503319,0.8849622339208061
1684782943520669,0.5750209811551077,0.20025940337224402,0.866529335469596
1684782943536646,0.6448462653543912,0.034851606012054503,0.76069275959411
1684782943552624,0.6295872434576948,0.08050659952697004,0.7505607690547036
1684782943568573,0.6581521324483104,0.04132143129625376,0.7847409781033035
1684782943584550,0.6489967193102926,0.25299458304722666,0.8125734340428776
1684782943600527,0.6710917830167089,0.13922331578545855,0.8212405584802012
1684782943616505,0.6800030518043796,0.11346608682383419,0.8174563210498205
1684782943632482,0.6981918059052417,0.01483176928358887,0.6644998855573361
1684782943648460,0.7095445181963838,0.017029068436713146,0.6579079880979632
1684782943664437,0.7605706874189364,-0.017639429312581,0.6206759746700232
1684782943680414,0.7630121309224078,-0.017151140611886717,0.5748989089799341
1684782943696392,0.7620355535210193,-0.004821850919356052,0.6475318532082097
1684782943712369,0.7958495460440984,0.050476844434271584,0.6486305027847719
1684782943728346,0.7984130617227434,0.08368047608148288,0.6837872892347603
1684782943744324,0.8003662165255205,0.09527733272297212,0.6395971618219276
1684782943760301,0.7663080796520942,0.0986953536278321,0.6137178606851297
1684782943776279,0.8013427939269091,-0.03045700770580595,0.5456015869382771
1684782943792256,0.8432135500114439,0.036438544289310926,0.46051728084229815
1684782943808233,0.8285648889906154,0.08258182650492074,0.4108339055466548
1684782943824211,0.8419928282597082,0.08038452735179646,0.4612497138933396
1684782943840188,0.8874036774242775,0.11163500419623062,0.5810025177386127
1684782943856166,0.9102311741817353,0.17364766918440555,0.7415274280918593
1684782943872143,0.8932631418326089,0.1637598229953463,0.9092545967803467
1684782943888122,0.9159685664148931,-0.1969634546425576,0.8905775539787903
1684782943904100,0.8727550164034481,-0.42548256656748284,0.9197528038452738
1684782943920077,0.7759517814908063,-0.43915465018692323,1.1309376668955524
1684782943936054,0.8736095216296631,-0.7169909208819716,1.0375524528877698
1684782943952032,0.5122758831158922,-0.6610818646524756,0.9678492408636608
1684782943968009,0.4426947432669568,-0.7124742504005495,0.6955062180514231
1684782943983986,0.45343709468223103,-0.6214084077210651,0.9180437933928438
1684782943999964,0.39252307927061914,-0.49665064469367515,0.7049057755397881
1684782944015941,0.29303425650415793,-0.4728465705348288,0.5554894331273363
1684782944031919,0.1079728389410235,-0.4738231479362174,0.25433737697413594
1684782944047896,0.12127870603494273,-0.353459983215076,0.3179369802395664
1684782944063873,0.07147325856412579,-0.2783855954833294,0.44110780498970037
1684782944079851,0.02789349202716096,-0.2322423132677196,0.5112993057145037
1684782944095828,0.130556191348135,-0.387884336614023,0.5858854047455555
1684782944111806,0.24249637598229956,-0.557564660105287,0.4623483634699017
1684782944127783,0.36688792248416835,-0.6554665445944914,0.39423208972304913
1684782944143760,0.4070496681162741,-0.7492179751277943,0.4363469901579311
1684782944159738,0.4649118791485467,-0.7766842145418478,0.36823071641107763
1684782944175715,0.7201647974364844,-0.9406271457999544,0.48737315938048376
1684782944191692,0.9167009994659345,-0.9557640955214772,0.4578316929884796
1684782944207641,0.9533226520180058,-0.9978789959563592,0.5875944151979855
1684782944223619,0.8153810940718698,-0.9213397421225298,0.508369573510338
1684782944239596,0.5481651026169221,-0.9431906614785994,0.44916456855115605
1684782944255573,0.6272678721293969,-1.0874799725337607,0.76923781185626
1684782944271551,0.3745784695201033,-0.7647211413748378,0.8395513847562368
1684782944287528,0.2833905546654458,-0.9135271229114212,0.3247730220492864
1684782944303506,0.21576256961928753,-0.9541771572442208,0.15985351338979203
1684782944319483,0.18109407186999338,-0.9634546425574122,0.13714808880750784
1684782944335460,-0.06280613412680269,-0.7005111772335395,0.5099565117875944
1684782944351438,0.15362783245593992,-1.1770809491111618,1.143266956588083
1684782944367415,0.2840009155413137,-1.1339894712748912,1.0120393682764934
1684782944383392,0.25214007782101167,-1.0233920805676355,0.778027008468757
1684782944399370,0.09466697184710426,-1.0437781338216219,0.5169146257724879
1684782944415347,0.14386205844205424,-1.190264744029908,0.6902571145189595
1684782944431325,0.170107576104372,-1.336018921187152,0.7519035629816129
1684782944447302,0.16437018387121416,-1.248249027237354,0.9279316395819031
1684782944463279,0.16070801861600703,-1.1450980392156862,0.5821011673151748
1684782944479257,0.2503089951934081,-1.180987258716716,0.3750667582207985
1684782944495234,0.35638971541924125,-1.0478065156023497,0.6653543907835511
1684782944511211,0.43146410315098827,-1.0512245365072097,0.6309300373846041
1684782944527160,0.38873884184023844,-0.9362325474937054,0.5882047760738534
1684782944543137,0.29010452429999223,-0.7628900587472343,0.5314412146181429
1684782944559114,0.19562066071564832,-0.5095902952620737,0.6651102464332039
1684782944575091,0.21564049744411395,-0.4245059891660943,0.6066376745250626
1684782944591068,0.3132982375829707,-0.43646906233310423,0.41901274128328403
1684782944607045,0.34625772487983486,-0.39740596627756153,0.4229190508888383
1684782944623022,0.3300221255817499,-0.5630579079880982,0.051819638361180864
1684782944638999,0.3750667582207985,-0.7630121309224078,-0.16095216296635373
1684782944654976,0.39703974975204126,-0.7573968108644236,-0.08685435263599617
1684782944670952,0.4581979095140003,-0.7255359731441215,0.11261158159761919
1684782944686929,0.4110780498970019,-0.6102998397802701,0.15179674982833635
1684782944702906,0.49579613946746015,-0.6574196993972685,0.13934538796063212
1684782944718883,0.4545357442587932,-0.6339818417639429,-3.0518043793392735E-4
1684782944734860,0.5255817502098115,-0.7399404898146029,-0.024841687647821686
1684782944750837,0.6171358815899897,-0.9268329900053405,-0.23041123064011604
1684782944766814,0.6281223773556119,-1.0133821622034027,-0.306950484473945
1684782944782791,0.6060273136491947,-0.9866483558403907,-0.2953536278324558
1684782944798768,0.5310749980926222,-0.8349126420996416,-0.16339360646982515
1684782944814745,0.5728236820019834,-0.8361333638513773,0.057068741893644415
1684782944830721,0.4838330663004502,-0.6791485465781641,0.22919050888838033
1684782944846710,0.5528038452735178,-0.6382543678950179,0.2439612420843824
1684782944862687,0.6054169527733269,-0.6044403753719387,0.4544136720836196
1684782944878664,0.6607156481269554,-0.7749752040894178,0.20721751735713756
1684782944894641,0.6681620508125432,-0.9512474250400551,-0.16766613260090013
1684782944910617,0.5684290836957349,-1.0120393682764934,-0.3417410543984132
1684782944926594,0.5111772335393301,-1.0265659571221484,-0.33099870298313894
1684782944942571,0.4157167925535976,-0.9215838864728769,-0.06524757763027411
1684782944958548,0.5202105745021743,-0.8362554360265508,0.18573281452658907
1684782944974525,0.5662317845426106,-0.8013427939269091,0.37653162432288134
1684782944990502,0.5871061264972912,-0.7870603494316013,0.37018387121385476
1684782945006479,0.5510948348210878,-0.7836423285267413,0.26349279011215376
1684782945022456,0.46967269398031597,-0.7016098268101016,0.1637598229953463
1684782945038433,0.4707713435568781,-0.65131609063859,0.09039444571602928
1684782945054410,0.5038529030289158,-0.793408102540627,-0.0812390325780119
1684782945070387,0.5778286411840998,-0.8629892423895629,-0.10943770504310679
1684782945086363,0.6752422369726103,-0.9473411154345008,0.14923323414969136
1684782945102340,0.7058823529411766,-1.048294804303044,0.17669947356374482
1684782945118317,0.6331273365377283,-1.0528114747844661,0.04901197833218873
1684782945134294,0.5383993286030364,-1.0074006256198977,0.036194399938963784
1684782945150271,0.4263370717936983,-0.8383306630045015,0.2003814755474176
1684782945166229,0.43353933012893897,-0.7750972762645914,0.29510948348210864
1684782945182206,0.4783398184176395,-0.8833752956435492,0.2520180056458381
1684782945198183,0.49909208819714657,-0.8775158312352178,0.07232776379034078
1684782945214160,0.44879835202563534,-0.766674296177615,0.2700846875715266
1684782945230136,0.4108339055466548,-0.6779278248264284,0.4867627985046159
1684782945246113,0.44660105287251106,-0.7046616311894409,0.5127641718165865
1684782945262090,0.52826733806363,-0.879468986037995,0.4364690623331047
1684782945278067,0.5298542763408864,-0.9292744335088119,0.4644235904478524
1684782945294044,0.49542992294193944,-0.8677500572213321,0.3528496223392077
1684782945310021,0.4044861524376291,-0.8384527351796751,0.27655451285572585
1684782945325998,0.3778744182497906,-0.7971923399710077,0.2540932326237888
1684782945341975,0.4236514839398797,-0.8107423514152741,0.42609292744335114
1684782945357952,0.4774853131914245,-0.9052262149996184,0.497261005569543
1684782945373929,0.46051728084229815,-0.9599145494773786,0.22064545662623036
1684782945389906,0.44672312504768463,-0.9599145494773786,0.14874494544899708
1684782945405882,0.43573662928206325,-0.9055924315251391,0.34552529182879343
1684782945421859,0.40595101853971194,-0.8600595101853972,0.3659113450827798
1684782945437836,0.44879835202563534,-0.853833829251545,0.3609063859006634
1684782945453813,0.45343709468223103,-0.8761730373083085,0.3468680857557027
1684782945469790,0.46381322957198456,-0.8212405584802016,0.41596093690394476
1684782945485778,0.44293888761730393,-0.7954833295185777,0.40473029678797623
1684782945501755,0.4372014953841461,-0.7775387197680628,0.34882124055847985
1684782945517732,0.42731364919508685,-0.7696040283817807,0.3812924391546506
1684782945533709,0.42853437094682256,-0.7813229571984435,0.3468680857557027
1684782945549686,0.4461127641718168,-0.7870603494316013,0.30511940184634145
1684782945565663,0.4702830548561838,-0.8166018158236059,0.29718471046005934
1684782945581640,0.46478980697337313,-0.7635004196231021,0.2998702983138779
1684782945597617,0.5171587701228351,-0.8722667277027543,0.2545815213244831
1684782945613594,0.5303425650415807,-0.9879911497673,0.3125658045319293
1684782945629571,0.5053177691309987,-0.8303959716182194,0.32074464026855853
1684782945645547,0.5000686655985351,-0.8911879148546578,0.2592202639810788
1684782945661524,0.4841992828259709,-0.8841077286945906,0.19891660944533474
1684782945677501,0.4833447775997559,-0.8854505226214999,0.20257877470054186
1684782945693478,0.4664988174258031,-0.8701915007248036,0.2234531166552225
1684782945709455,0.46552224002441456,-0.8375982299534601,0.17828641184100125
1684782945725432,0.45807583733882673,-0.821118486305028,0.27985046158541227
1684782945741409,0.4506294346532389,-0.8050049591821162,0.29669642175936506
1684782945757386,0.5147173266193636,-0.8222171358815902,0.41303120469977905
1684782945773363,0.49201190203707945,-0.8096437018387119,0.4669871061264974
1684782945789340,0.4122987716487376,-0.8212405584802016,0.18280308232242337
1684782945805297,0.46466773479819956,-0.8349126420996416,0.1629053177691313
1684782945821274,0.47101548790722525,-0.8523689631494622,0.12384222171358772
1684782945837251,0.4901808194094759,-0.7965819790951398,0.15973144121461846
1684782945853228,0.5289997711146714,-0.766674296177615,0.349919890135042
1684782945869205,0.5679407949950406,-0.7885252155336842,0.3972838941023884
1684782945885182,0.5731898985275041,-0.8068360418097198,0.39288929579613985
1684782945901159,0.5674525062943463,-0.8035400930800334,0.3233081559472035
1684782945917136,0.6215304798962382,-0.8944838635843442,0.30353246356908503
1684782945933113,0.606515602349889,-0.8386968795300223,0.1453269245441371
1684782945949090,0.6304417486839098,-0.7995117112993055,0.09332417792019498
1684782945965067,0.6201876859693289,-0.7150377660791944,0.22980086976424818
1684782945981043,0.6384985122453655,-0.6684061951628899,0.3666437781338212
1684782945997020,0.6233615625238418,-0.621164263370718,0.4950637064164187
1684782946012997,0.6779278248264289,-0.645334554055085,0.5398641947051193
1684782946028974,0.6261692225528348,-0.6655985351338978,0.5603723201342792
1684782946044951,0.5822232394903484,-0.7113756008239873,0.29120317387655437
1684782946060928,0.6443579766536969,-0.8789806973373007,0.2343175402456703
1684782946076905,0.6537575341420618,-0.8845960173952849,0.11407644769970204
1684782946092882,0.690135042343786,-0.8848401617456321,0.11017013809414777
1684782946108859,0.6326390478370341,-0.7417715724422065,0.31354238193331785
1684782946124817,0.5889372091248948,-0.7001449607080188,0.30255588616769646
1684782946140793,0.5404745555809871,-0.6210421911955444,0.3649347676813912
1684782946156770,0.5152056153200579,-0.5287556267643243,0.4408636606393532
1684782946172747,0.6026092927443347,-0.7190661478599223,0.4221866178377969
1684782946188724,0.6085908293278397,-0.6975814450293738,0.25128557259479667
1684782946204701,0.6426489662012669,-0.7947508964675363,0.38873884184023844
1684782946220678,0.6160372320134275,-0.7387197680628672,0.4282902265964754
1684782946236655,0.5819790951400012,-0.6665751125352863,0.32611581597619566
1684782946252632,0.5570763714045928,-0.5928435187304495,0.542793926909285
1684782946268609,0.5508506904707406,-0.618600747692073,0.48993667505912875
1684782946284586,0.6290989547570005,-0.6964827954528117,0.40082398718242196
1684782946300562,0.6443579766536969,-0.7906004425116349,0.2700846875715266
1684782946316539,0.6780498970016025,-0.844190127412833,0.1957427328908219
1684782946332516,0.6586404211490047,-0.7466544594491493,0.30548561837186217
1684782946348493,0.6327611200122076,-0.6759746700236513,0.3692072938124662
1684782946364470,0.6007782101167312,-0.6408178835736629,0.4413519493400475
1684782946380447,0.593698023956664,-0.647043564507515,0.46674296177615027
1684782946396424,0.5603723201342792,-0.6312962539101243,0.37311360341802047
1684782946412401,0.5596398870832378,-0.6613260090028228,0.3363698786907756
1684782946428378,0.6275120164797441,-0.7392080567635615,0.3036545357442586
1684782946444336,0.6286106660563062,-0.8876478217746242,0.2339513237201496
1684782946460312,0.572091248950942,-0.8308842603189137,0.25470359349965666
1684782946476289,0.5600061036087585,-0.8273441672388802,0.3392996108949413
1684782946492266,0.5094682230869001,-0.725413900968948,0.47479972533760595
1684782946508243,0.4669871061264974,-0.7400625619897765,0.4860303654535745
1684782946524220,0.4489204242008089,-0.715159838254368,0.4616159304188603
1684782946540197,0.4444037537193868,-0.8263675898374916,0.4644235904478524
1684782946556174,0.3964293888761734,-0.87519645990692,0.37811856260013776
1684782946572151,0.4452582589456018,-0.9101091020065613,0.4518501564049746
1684782946588128,0.3981383993286034,-0.8902113374532692,0.22662699320973534
1684782946604105,0.4199893186846726,-0.9304951552605476,0.11993591210803345
1684782946620082,0.46430151827267885,-0.8872816052491035,0.21307698176546896
1684782946636058,0.5580529488059813,-0.9270771343556876,0.3224536507209885
1684782946652035,0.6071259632257568,-0.8366216525520715,0.4098573281452662
1684782946668012,0.5944304570077055,-0.8905775539787899,0.1474021515220878
1684782946683989,0.5370565346761271,-0.7799801632715342,0.22870222018768604
1684782946699966,0.5182574196993972,-0.7315175097276265,0.346501869230182
1684782946715943,0.5020218204013123,-0.7031967650873581,0.3700617990386812
1684782946731920,0.5263141832608529,-0.7763179980163271,0.2527504386968795
1684782946747897,0.52143129625391,-0.7548332951857786,0.29132524605172794
1684782946763885,0.5064164187075608,-0.7510490577553979,0.2549477378500038
1684782946779862,0.468818188754101,-0.7735103379873349,0.16021972991531275
1684782946795839,0.5238727397573815,-0.8766613260090028,0.11371023117418133
1684782946811816,0.5360799572747386,-0.9622339208056765,0.05767910276951227
1684782946827793,0.5326619363698786,-1.007888914320592,0.0499885557335773
1684782946843770,0.4884718089570459,-0.9608911268787672,0.11139085984588348
1684782946859747,0.42438391699092115,-0.892530708781567,0.20856031128404684
1684782946875723,0.39337758449683413,-0.8220950637064166,0.28412298771648725
1684782946891700,0.3594415197985805,-0.8101319905394062,0.313786526283665
1684782946907677,0.35394827191576983,-0.8421149004348822,0.1734035248340584
1684782946923654,0.39630731670099983,-0.8996108949416342,0.11956969558251274
1684782946939631,0.40009155413138053,-0.9430685893034259,0.1004043640802621
1684782946955608,0.4385442893110554,-1.016433966582742,0.08502327000839216
1684782946971585,0.47907225146868093,-1.0645304036011294,0.29425497825589364
1684782946987562,0.427557793545434,-0.9796902418554971,0.1948882276646069
1684782947003539,0.3734798199435412,-0.8805676356145571,0.3355153734645606
1684782947019516,0.3234302281223771,-0.8499275196459908,0.2730144197756923
1684782947035493,0.3367360952162963,-0.8557869840543222,0.2537270160982681
1684782947051469,0.3150072480354007,-0.8574959945067522,0.2935225452048522
1684782947067446,0.2713054093232623,-0.8961928740367742,0.17743190661478625
1684782947083404,0.29083695735103365,-0.9173113603418019,0.2343175402456703
1684782947099381,0.31818112458991354,-0.948439765011063,0.18915083543144906
1684782947115358,0.35223926146333984,-0.9855497062638285,0.2561684596017395
1684782947131335,0.3679865720607305,-0.940749217975128,0.3926451514457927
1684782947147312,0.3368581673914699,-0.8843518730449378,0.37994964522774133
1684782947163289,0.3031662470435643,-0.8754406042572671,0.2313878080415046
1684782947179266,0.33746852826733775,-0.9086442359044784,0.25262836652170595
1684782947195243,0.35883115892271267,-0.9313496604867626,0.19562066071564832
1684782947211219,0.38702983138780844,-0.9097428854810405,0.25604638742656594
1684782947227196,0.39069199664301557,-0.8601815823605707,0.2986495765621422
1684782947243173,0.41596093690394476,-0.8622568093385214,0.384588387884337
1684782947259150,0.39423208972304913,-0.8633554589150836,0.33026626993209707
1684782947275127,0.38410009918364274,-0.8689707789730678,0.3725032425421526
1684782947291104,0.3743343251697562,-0.9353780422674904,0.2401770046540017
1684782947307081,0.37860685130083205,-0.98457312886244,0.04486152437628732
1684782947323058,0.3994811932555127,-0.9832303349355307,0.1401998931868471
1684782947339035,0.40289921416037267,-0.9009536888685434,0.2540932326237888
1684782947355012,0.3821469443808656,-0.8588387884336615,0.15350576028076635
1684782947370988,0.4203555352101933,-0.7688715953307392,0.33075455863279135
1684782947386965,0.4304875257495997,-0.7907225146868084,0.35016403448538913
1684782947402954,0.43744563973449324,-0.831372549019608,0.32367437247272424
1684782947418931,0.4536812390325782,-0.827100022888533,0.4035095750362405
1684782947434908,0.4048523689631498,-0.747875181200885,0.46173800259403386
1684782947450884,0.38275730525673346,-0.8614023041123064,0.3330739299610892
1684782947466861,0.3695735103379869,-0.9163347829404134,0.2523842221713588
1684782947482838,0.39447623407339627,-0.9418478675516901,0.2838788433661401
1684782947498815,0.3875181200885027,-0.9296406500343326,0.24603646906233312
1684782947514792,0.3688410772869455,-0.9152361333638512,0.29047074082551294
1684782947530769,0.3640802624551762,-0.8877698939497978,0.39240100709544556
1684782947546746,0.3642023346303498,-0.9082780193789577,0.32269779507133567
1684782947562723,0.35553521019302625,-0.8900892652780956,0.30096894789044004
1684782947578700,0.36554512855725907,-0.8521248187991151,0.3220874341954678
1684782947594677,0.39459830624856984,-0.86665140764477,0.37897306782635276
1684782947610654,0.4501411459525446,-0.9074235141527427,0.3449149309529256
1684782947626630,0.4392767223620968,-0.944167238879988,0.29877164873731576
1684782947642607,0.3834897383077749,-1.037796597238117,0.21173418783855968
1684782947658584,0.35797665369649767,-1.0020294499122606,0.3570000762951091
1684782947674561,0.3012130922407872,-0.8875257495994506,0.604806591897459
1684782947690538,0.3338063630121306,-0.8767833981841764,0.6526588845654997
1684782947706515,0.41254291599908477,-0.939894712748913,0.5441367208361942
1684782947722473,0.37653162432288134,-0.9387960631723509,0.5182574196993972
1684782947738450,0.3805600061036092,-0.8737315938048371,0.5126420996414129
1684782947754427,0.3787289234760056,-0.8091554131380176,0.5277790493629357
1684782947770403,0.33026626993209707,-0.6391088731212329,0.6422827496757462
1684782947786380,0.26105134660868234,-0.5353475242236971,0.6183566033417254
1684782947802357,0.2485999847409781,-0.49115739681086446,0.53168535896849
1684782947818334,0.32941176470588207,-0.5873502708476388,0.4771190966659038
1684782947834311,0.4090028229190512,-0.6698710612649728,0.4368352788586254
1684782947850288,0.4704051270313574,-0.6883039597161824,0.3688410772869455
1684782947866265,0.5059281300068665,-0.7103990234225988,0.35797665369649767
1684782947882242,0.5155718318455786,-0.75727473868925,0.1923247119859619
1684782947898219,0.39447623407339627,-0.7149156939040209,0.12005798428320702
1684782947914196,0.5383993286030364,-0.7898680094605934,0.36725413900968906
1684782947930173,0.5286335545891507,-0.7543450064850843,0.27740901808194085
1684782947946149,0.46564431219958813,-0.6575417715724421,0.10736247806515564
1684782947962126,0.5354695963988707,-0.6469214923323414,0.3468680857557027
1684782947978103,0.5690394445716027,-0.6391088731212329,0.20697337300679042
1684782947994080,0.3784847791256585,-0.6514381628137635,-0.09784084840161755
1684782948010057,0.43439383535515397,-0.8955825131609063,-0.19549858854047475
1684782948026034,0.6326390478370341,-1.360189211871519,-0.3478446631570917
1684782948042022,0.6165255207141218,-1.5378042267490653,-0.21661707484550252
1684782948057999,0.6741435873960482,-1.5369497215228503,0.08538948653391287
1684782948073976,0.6364232852674148,-1.3130693522545207,-0.045593957427328746
1684782948089953,0.2086823834592204,-1.0208285648889905,-0.12372014953841459
1684782948105930,0.05743495841916513,-0.7802243076218813,0.010437170977340315
1684782948121907,-0.04193179217212162,-0.6292210269321736,0.16864271000228914
1684782948137884,0.12982375829709358,-0.7544670786602579,0.2747234302281223
1684782948153861,0.13824673838406998,-0.9451438162813766,0.2726482032501716
1684782948169838,0.20135805294880615,-1.1216601815823606,0.22369726100556964
1684782948185814,0.32281986724650924,-1.2011291676203557,0.1360494392309457
1684782948201791,0.1444724193179221,-1.0769817654688336,-0.048035400930800165
1684782948217768,0.13910124361028497,-1.0392614633401998,0.11798275730525631
1684782948233745,0.40338750286106695,-1.2165102616922256,0.2258945601586939
1684782948249722,0.3344167238879985,-1.2379949645227741,-0.04071107042038591
1684782948265699,0.21063553826199755,-1.0136263065537499,-0.06036469062333083
1684782948281676,0.19452201113908618,-0.8312504768444344,0.06878767071030722
1684782948297653,0.23700312809948887,-0.8853284504463264,0.036438544289310926
1684782948313630,0.2334630350194553,-0.9225604638742655,-0.12726024261844815
1684782948329607,0.12689402609292788,-0.9082780193789577,-0.15130846112764162
1684782948345584,0.14166475928892996,-0.8419928282597087,-0.0357061112382695
1684782948361541,0.1771877622644391,-0.791699092088197,0.01861600671396957
1684782948377518,0.16913099870298343,-0.7163805600061037,0.04644846265354374
1684782948393495,0.06573586633096795,-0.6165255207141223,-0.023132677195391693
1684782948409472,0.03839169909208806,-0.8198977645532923,-0.2990157930876629
1684782948425449,0.04315251392385733,-0.8845960173952849,-0.42426184481574714
1684782948441426,0.12823682001983716,-0.9971465629053178,-0.3932555123216601
1684782948457403,0.14715800717174066,-0.9231708247501333,-0.25091935606927596
1684782948473380,0.12042420080872773,-0.6929427023727781,-0.14288548104066523
1684782948489357,0.1138323033493549,-0.8252689402609295,-0.43988708323796466
1684782948505334,0.20892652780956755,-1.1847714961470968,-0.6765850308995192
1684782948521310,0.27020675974670016,-1.21528953994049,-0.5905241474021516
1684782948537287,0.21368734264133682,-1.0961470969710843,-0.44757763027389963
1684782948553264,0.10955977721827992,-1.0601358052948804,-0.5678187228198674
1684782948569241,0.24298466468299385,-1.076615548943313,-0.5181353475242236
1684782948585218,-0.1161516746776532,-0.6632791638055999,-0.09893949797817969
1684782948601195,0.27313649195086587,-0.8548104066529336,-0.49823758297093157
1684782948617172,-0.013244831006332447,-0.7587396047913328,-0.5103227283131151
1684782948633149,0.039124132143129486,-0.9373311970702676,-0.5366903181506064
1684782948649126,0.13250934615091214,-0.8418707560845351,-0.6332494087129015
1684782948665103,0.10772869459067635,-0.7361562523842222,-0.36127260242618453
1684782948681091,0.08941786831464071,-0.7743648432135499,-0.5673304341191732
1684782948697068,0.07916380560006075,-0.8328374151216908,-0.5951628900587473
1684782948713045,0.05035477225909801,-0.8679942015716793,-0.7324940871290151
1684782948729022,0.056946669718470844,-0.7716792553597314,-0.5938200961318381
1684782948744999,-0.019470511940184565,-0.7799801632715342,-0.6756084534981306
1684782948760975,0.06488136110475295,-0.7810788128480963,-0.6112764171816587
1684782948776952,0.07196154726482007,-0.7421377889677272,-0.7914549477378499
1684782948792929,0.06378271152819082,-0.6974593728542002,-0.6326390478370336
1684782948808906,0.06463721675440581,-0.6609597924773021,-0.5731898985275046
1684782948824883,0.0747692072938122,-0.6282444495307851,-0.5430380712596321
1684782948840860,0.1520408941786835,-0.6640115968566414,-0.5056839856565194
1684782948856837,0.18329137102311766,-0.7154039826047152,-0.5579308766308078
1684782948872814,0.17206073090714913,-0.7368886854352636,-0.721995880064088
1684782948888791,0.15728999771114704,-0.7433585107194629,-0.818554970626383
1684782948904768,0.1276264591439693,-0.7492179751277943,-0.8737315938048371
1684782948920745,0.12530708781567146,-0.6990463111314567,-0.8360112916762037
1684782948936721,0.1541161211566342,-0.710887312123293,-0.7465323872739758
1684782948952698,0.1923247119859619,-0.7058823529411766,-0.7468986037994965
1684782948968675,0.21063553826199755,-0.6507057297627221,-0.6536354619668878
1684782948984652,0.21307698176546896,-0.6770733196002134,-0.678904402227817
1684782949000610,0.2033112077515833,-0.6570534828717478,-0.6665751125352863
1684782949016587,0.20929274433508827,-0.6638895246814678,-0.7304188601510644
1684782949032564,0.19842832074464045,-0.6906233310444803,-0.727122911421378
1684782949048541,0.20636301213092256,-0.7611810482948043,-0.8813000686655985
1684782949064518,0.20843823910887327,-0.6320286869611658,-0.789135576409552
1684782949080495,0.26984054322117945,-0.6289768825818265,-0.6950179293507288
1684782949096471,0.2638590066376745,-0.6867170214389255,-0.6936751354238195
1684782949112448,0.24921034561684596,-0.6283665217059586,-0.710032806897078
1684782949128425,0.23871213855191886,-0.687449454489967,-0.7863279163805599
1684782949144402,0.20135805294880615,-0.6597390707255664,-0.8548104066529336
1684782949160379,0.21527428091859324,-0.6320286869611658,-0.7804684519722285
1684782949176356,0.2974288548104065,-0.6159151598382544,-0.6950179293507288
1684782949192333,0.34125276569771845,-0.6828107118333713,-0.6769512474250399
1684782949208310,0.3132982375829707,-0.6258030060273136,-0.7166247043564509
1684782949224287,0.3548027771419848,-0.6751201647974363,-0.7090562294956895
1684782949240264,0.3218432898451207,-0.6349584191653315,-0.8610360875867857
1684782949256240,0.33881132219424703,-0.6859845883878841,-0.8397955291065844
1684782949272217,0.343938353551537,-0.6293430991073472,-0.7155260547798887
1684782949288194,0.35223926146333984,-0.6673075455863278,-0.6992904554818038
1684782949304171,0.3678644998855569,-0.768383306630045,-0.7691157396810864
1684782949320160,0.3339284351873042,-0.8096437018387119,-0.855542839703975
1684782949336136,0.3117112993057143,-0.7294422827496758,-0.7622796978713664
1684782949352113,0.3461356527046613,-0.7686274509803921,-0.7002670328831924
1684782949368090,0.3356374456397342,-0.7775387197680628,-0.6626688029297321
1684782949384067,0.33661402304112276,-0.8012207217517355,-0.7490959029526207
1684782949400044,0.33832303349355275,-0.8877698939497978,-0.86494239719234
1684782949416021,0.32367437247272424,-0.87177843900206,-0.8998550392919813
1684782949431998,0.28912794689860366,-0.8212405584802016,-0.8336919203479058
1684782949447975,0.2852216372930494,-0.8251468680857559,-0.8665293354695964
1684782949463952,0.24798962386511025,-0.7796139467460135,-0.9315938048371097
1684782949479929,0.19513237201495404,-0.7644769970244907,-0.8834973678187228
1684782949495906,0.18512245365072122,-0.7472648203250172,-0.8336919203479058
1684782949511882,0.25983062485694663,-0.8118410009918362,-0.8451667048142215
1684782949527859,0.2348058289463646,-0.7038071259632259,-0.7374990463111315
1684782949543836,0.19720759899290474,-0.6162813763637751,-0.6431372549019607
1684782949559813,0.1360494392309457,-0.6045624475471123,-0.613473716334783
1684782949575790,0.13165484092469715,-0.6127412832837416,-0.6714579995422292
1684782949591767,0.20416571297779829,-0.6026092927443352,-0.6973373006790267
1684782949607744,0.269108110170138,-0.5203326466773479,-0.7133287556267645
1684782949623721,0.3898374914168006,-0.4821240558480202,-0.7417715724422065
1684782949639679,0.5065384908827344,-0.43830014496070824,-0.823682001983673
1684782949655655,0.5650110627908749,-0.3975280384527351,-0.9413595788509959
1684782949671632,0.5912565804531926,-0.27692072938124657,-0.8787365529869535
1684782949687609,0.5817349507896541,-0.17694361791409152,-0.828809033340963
1684782949703586,0.54023041123064,-0.09564354924849328,-0.8059815365835048
1684782949719563,0.5480430304417485,-0.08978408484016187,-0.8412603952086672
1684782949735540,0.5559777218280306,-0.12274357213702602,-0.8515144579232472
1684782949751517,0.5701380941481649,-0.1727931639581901,-0.7880369268329899
1684782949767494,0.5941863126573583,-0.2558022430762188,-0.7069810025177388
1684782949783471,0.6571755550469218,-0.35101853971160457,-0.6338597695887693
1684782949799448,0.659983215075914,-0.43463797970550067,-0.5800259403372245
1684782949815425,0.616769665064469,-0.5309529259174486,-0.557564660105287
1684782949831401,0.6447241931792176,-0.5984588387884338,-0.46344701304646385
1684782949847378,0.9052262149996189,-0.9517357137407494,-0.20587472343022828
1684782949863355,0.1890287632562755,-0.6107881284809644,-0.12469672693980316
1684782949879332,0.4339055466544597,-0.7544670786602579,-0.5001907377737087
1684782949895309,0.3616388189517048,-0.8458991378652629,-0.4967727168688487
1684782949911286,0.4871290150301366,-0.9080338750286105,-0.49286640726329445
1684782949927263,0.6100556954299226,-0.9950713359273671,-0.6421606775005722
1684782949943240,0.5192339971007858,-0.9938506141756314,-0.7747310597390706
1684782949959228,0.36054016937514266,-0.8545662623025865,-0.5976043335622188
1684782949975205,0.23700312809948887,-0.7488517586022736,-0.6890363927672238
1684782949991182,0.18658731975280407,-0.7636224917982757,-0.4791943236438545
1684782950007159,0.18170443274586123,-0.7527580682078279,-0.4984817273212787
1684782950023136,0.17926298924238981,-0.7046616311894409,-0.41156633859769576
1684782950039113,0.17621118486305054,-0.6942854962996874,-0.36957351033798735
1684782950055090,0.23114366369115746,-0.7244373235675594,-0.3264820325017168
1684782950071066,0.35345998321507555,-0.7992675669489584,-0.32758068207827895
1684782950087043,0.44867627985046177,-0.8050049591821162,-0.3176928358892197
1684782950103020,0.4745555809872588,-0.7595941100175478,-0.32465094987411325
1684782950118997,0.4817578393224995,-0.7349355306324865,-0.3978942549782558
1684782950134974,0.4943312733653773,-0.7357900358587015,-0.4905470359349966
1684782950150951,0.5131303883421072,-0.759838254367895,-0.5499961852445256
1684782950166928,0.5386434729533836,-0.6779278248264284,-0.5003128099488823
1684782950182905,0.5597619592584113,-0.6510719462882428,-0.42218661783779643
1684782950198882,0.5934538796063169,-0.6238498512245365,-0.3646906233310445
1684782950214859,0.574654764629587,-0.5938200961318381,-0.3660334172579538
1684782950230836,0.5637903410391392,-0.5485313191424428,-0.35736629282063026
1684782950246812,0.5509727626459142,-0.5321736476691843,-0.3967956054016937
1684782950262789,0.5496299687190049,-0.48700694285496304,-0.3911802853437094
1684782950278747,0.5900358587014569,-0.46808575570305955,-0.3740901808194095
1684782950294724,0.6526588845654997,-0.4732127870603495,-0.4110780498970015
1684782950310701,0.6948958571755552,-0.5131303883421072,-0.5172808422980086
1684782950326678,0.7027084763866638,-0.4917677576867323,-0.576485847257191
1684782950342655,0.6623025864042118,-0.47565423056382095,-0.6260471503776608
1684782950358632,0.6341039139391169,-0.4335393301289385,-0.6330052643625543
1684782950374609,0.6375219348439769,-0.42218661783779643,-0.6002899214160373
1684782950390586,0.6549782558937975,-0.4050965133134965,-0.556710154879072
1684782950406562,0.5991912718394747,-0.36578927290760666,-0.5659876401922639
1684782950422539,0.5966277561608297,-0.36200503547722596,-0.597238117036698
1684782950438516,0.6187228198672461,-0.37555504692149233,-0.6306858930342565
1684782950454493,0.6439917601281762,-0.3554131380178531,-0.6154268711375601
1684782950470470,0.6703593499656675,-0.3467460135805296,-0.6195773250934615
1684782950486447,0.6789044022278174,-0.3541924162661174,-0.657297627222095
1684782950502424,0.6551003280689711,-0.3445487144274053,-0.7005111772335395
1684782950518401,0.6102998397802697,-0.3373464560921646,-0.7351796749828337
1684782950534378,0.6121309224078733,-0.35443656061646456,-0.729686427100023
1684782950550355,0.6283665217059591,-0.3736018921187152,-0.7019760433356224
1684782950566331,0.6363012130922412,-0.3963073167009994,-0.6630350194552528
1684782950582308,0.6489967193102926,-0.42462806134126785,-0.6275120164797436
1684782950598266,0.6356908522163733,-0.4468451972228582,-0.6145723659113451
1684782950614243,0.5514610513466085,-0.4480659189745939,-0.6813458457312884
1684782950630219,0.4699168383306631,-0.46002899214160387,-0.7481193255512322
1684782950646196,0.48822766460669875,-0.48664072632944233,-0.7112535286488137
1684782950662172,0.5387655451285571,-0.491279468986038,-0.6300755321583886
1684782950678148,0.5548790722514685,-0.4481879911497675,-0.5363241016250857
1684782950694125,0.5288776989394979,-0.4076600289921415,-0.5064164187075608
1684782950710101,0.5353475242236971,-0.40106813153276866,-0.5296101319905393
1684782950726078,0.5430380712596321,-0.40143434805828937,-0.5918669413290609
1684782950742054,0.5456015869382771,-0.4260929274433507,-0.6798809796292056
1684782950758031,0.5719691767757684,-0.4439154650186925,-0.74360265506981
1684782950774007,0.5708705271992063,-0.4159609369039443,-0.8073243305104141
1684782950789983,0.5790493629358355,-0.38178072785534445,-0.7975585564965284
1684782950805960,0.5947966735332262,-0.39093614099336227,-0.8063477531090255
1684782950821936,0.5874723430228119,-0.37457846952010376,-0.7743648432135499
1684782950837913,0.5786831464103148,-0.36871900511177236,-0.7763179980163271
1684782950853889,0.5617151140611885,-0.3634699015793088,-0.7628900587472343
1684782950869866,0.5637903410391392,-0.37335774776836805,-0.7310292210269322
1684782950885842,0.5723353933012891,-0.36993972686350807,-0.6907454032196538
1684782950901818,0.6051728084229797,-0.35748836499580383,-0.6227512016479744
1684782950917816,0.6143282215609975,-0.33673609521629677,-0.5780727855344474
1684782950933793,0.5993133440146483,-0.28998245212481866,-0.5280231937132829
1684782950949770,0.5941863126573583,-0.26178377965972377,-0.5232623788815136
1684782950965747,0.6227512016479739,-0.2842450598916608,-0.5745326924544139
1684782950981723,0.6481422140840776,-0.28827344167238866,-0.5913786526283666
1684782950997700,0.6521705958648054,-0.29877164873731576,-0.5968719005111773
1684782951013677,0.6245822842755775,-0.2944991226062408,-0.6349584191653315
1684782951029654,0.6071259632257568,-0.2869306477454794,-0.6339818417639429
1684782951045631,0.600534065766384,-0.2713054093232623,-0.5979705500877395
1684782951061608,0.6139620050354768,-0.27069504844739445,-0.5364461738002593
1684782951077585,0.6225070572976268,-0.27911802853437084,-0.4829785610742352
1684782951093562,0.5941863126573583,-0.28412298771648725,-0.4829785610742352
1684782951109539,0.557564660105287,-0.2848554207675287,-0.49909208819714657
1684782951125516,0.5322957198443579,-0.3049973296711679,-0.507515068284123
1684782951141492,0.5111772335393301,-0.3019455252918286,-0.502388036926833
1684782951157469,0.5086137178606851,-0.313908598458839,-0.4750438696879531
1684782951173446,0.5021438925764858,-0.33844510566872676,-0.4476997024490732
1684782951189423,0.49665064469367515,-0.39813839932860295,-0.5495078965438314
1684782951205400,0.4484321355001146,-0.41376363775082003,-0.6582742046234835
1684782951221377,0.4007019150072484,-0.45136186770428033,-0.7027084763866638
1684782951237335,0.4291447318226904,-0.5059281300068665,-0.7438467994201572
1684782951253311,0.4914015411612116,-0.5943083848325323,-0.7300526436255437
1684782951269288,0.4712596322575724,-0.6583962767986571,-0.7854734111543449
1684782951285264,0.431830319676509,-0.7000228885328452,-0.9003433279926756
1684782951301241,0.4103456168459605,-0.75385671778439,-0.9226825360494391
1684782951317217,0.396551461051347,-0.8128175783932252,-0.8847180895704585
1684782951333193,0.38654154268711416,-0.8281986724650952,-0.8101319905394062
1684782951349170,0.38397802700846917,-0.827954528114748,-0.6953841458762495
1684782951365146,0.38702983138780844,-0.8241702906843673,-0.6262912947280079
1684782951381123,0.3822690165560392,-0.8312504768444344,-0.679758907454032
1684782951397099,0.3770199130235756,-0.7873044937819484,-0.695262073701076
1684782951413076,0.4102235446707869,-0.7383535515373465,-0.6326390478370336
1684782951429052,0.4552681773098346,-0.6842755779354541,-0.563668268863966
1684782951445028,0.4850537880521859,-0.6397192339971007,-0.5426718547341114
1684782951461005,0.467963683527886,-0.5957732509346152,-0.6115205615320058
1684782951476981,0.4321965362020297,-0.5403524834058135,-0.6529030289158464
1684782951492958,0.44623483634699035,-0.52484931715877,-0.6287327382314793
1684782951508934,0.4509956511787596,-0.5138628213931486,-0.6701152056153199
1684782951524911,0.4380560006103611,-0.4889600976577402,-0.7141832608529795
1684782951540887,0.455146105134661,-0.4973830777447166,-0.76752880140383
1684782951556884,0.4614938582436867,-0.5028763256275273,-0.8100099183642326
1684782951572861,0.45380331120775175,-0.5017776760509651,-0.8150148775463495
1684782951588838,0.4461127641718168,-0.5180132753490501,-0.8462653543907837
1684782951604815,0.43866636148622895,-0.5344930189974821,-0.8579842832074465
1684782951620792,0.4220645456626233,-0.5441367208361942,-0.8499275196459908
1684782951636769,0.41766994735637475,-0.5456015869382771,-0.7967040512703134
1684782951652746,0.43659113450827824,-0.5602502479591056,-0.7565423056382086
1684782951668723,0.4472114137483789,-0.5795376516365303,-0.7234607461661708
1684782951684700,0.44452582589456036,-0.5930876630807966,-0.676340886549172
1684782951700677,0.46051728084229815,-0.5993133440146488,-0.6638895246814678
1684782951716653,0.4986037994964523,-0.6195773250934615,-0.6692607003891049
1684782951732630,0.48285648889906163,-0.6129854276340887,-0.6641336690318149
1684782951748607,0.4379339284351875,-0.610055695429923,-0.6405737392233157
1684782951764584,0.4077821011673155,-0.6447241931792171,-0.6991683833066302
1684782951780561,0.38153658350499775,-0.7062485694666973,-0.76923781185626
1684782951796538,0.383733882658122,-0.7566643778133821,-0.8167238879987795
1684782951812515,0.4060730907148855,-0.7975585564965284,-0.8389410238803694
1684782951828492,0.41254291599908477,-0.8122072175173569,-0.8408941786831465
1684782951844469,0.4124208438239112,-0.8328374151216908,-0.8671396963454643
1684782951860446,0.40216678110933124,-0.8521248187991151,-0.8938735027084763
1684782951876403,0.39996948195620696,-0.8893568322270542,-0.8662851911192493
1684782951892380,0.4102235446707869,-0.9347676813916226,-0.8141603723201345
1684782951908356,0.41852445258258975,-0.9599145494773786,-0.7558098725871671
1684782951924333,0.39581902800030555,-0.9463645380331123,-0.6970931563286795
1684782951940309,0.34882124055847985,-0.9323262378881512,-0.6574196993972685
1684782951956286,0.30011444266422505,-0.926100556954299,-0.636789501792935
1684782951972262,0.2548256656748302,-0.9064469367513541,-0.6389868009460593
1684782951988238,0.24371709773403527,-0.8603036545357443,-0.5750209811551081
1684782952004215,0.24225223163195242,-0.8086671244373234,-0.5028763256275273
1684782952020191,0.2322423132677196,-0.7411612115663386,-0.42377355611505285
1684782952036168,0.269962615396353,-0.7110093842984666,-0.344060425726711
1684782952052144,0.31268787670710285,-0.6818341344319827,-0.3070725566491186
1684782952068121,0.31110093842984643,-0.6411841000991836,-0.316472114137484
1684782952084097,0.31866941329060783,-0.605783169298848,-0.2880292973220415
1684782952100073,0.350774395361257,-0.5945525291828795,-0.3058518348973829
1684782952116050,0.3457694361791406,-0.5667200732433053,-0.32294193942168326
1684782952132026,0.3117112993057143,-0.5133745326924544,-0.2735027084763866
1684782952148003,0.2813153276874951,-0.5044632639047837,-0.2855878538185701
1684782952163979,0.2831464103150987,-0.5313191424429693,-0.2752117189288166
1684782952179956,0.2848554207675287,-0.6065156023498894,-0.349187457084001
1684782952195953,0.52484931715877,-0.9031509880216677,-0.5954070344090945
1684782952211930,0.5513389791714349,-0.7246814679179066,-0.10199130235751896
1684782952227907,0.344792858777752,-0.602365148393988,0.00457770656900891
1684782952243884,0.2225986114290075,-0.7053940642404823,-0.41535057602807646
1684782952259861,0.3573662928206298,-0.8318608377203023,-0.5089799343862058
1684782952275838,0.4043640802624555,-0.8229495689326316,-0.28375677119096654
1684782952291814,0.394842450598917,-0.8072022583352405,-0.2263828488593882
1684782952307791,0.46759746700236526,-1.1735408560311282,-0.19745174334325188
1684782952323768,0.2728923476005187,-0.4566109712367439,-0.12481879911497673
1684782952339745,0.27191577019913016,-0.7068589303425652,-0.4385442893110554
1684782952355722,0.3241626611734185,-0.7339589532310979,-0.24457160296025027
1684782952371699,0.3876401922636763,-0.7846189059281299,-0.3264820325017168
1684782952387676,0.47138170443274596,-0.8139162279697874,-0.40155642023346294
1684782952403653,0.5990691996643012,-0.8450446326390479,-0.4331731136034178
1684782952419630,0.6262912947280084,-0.8534676127260243,-0.48871595330739304
1684782952435607,0.5697718776226441,-0.8520027466239415,-0.5034866865033951
1684782952451583,0.4884718089570459,-0.8771496147096971,-0.5331502250705729
1684782952467560,0.41852445258258975,-0.8332036316472116,-0.45172808422980104
1684782952483537,0.33710231174181704,-0.8809338521400778,-0.40228885328450437
1684782952499514,0.23273060196841389,-0.9071793698023956,-0.41120012207217504
1684782952515472,0.21307698176546896,-0.9069352254520484,-0.3906919966430151
1684782952531448,0.23883421072709243,-0.9201190203707941,-0.3778744182497902
1684782952547425,0.3074387731746393,-0.9752956435492486,-0.3618829633020524
1684782952563401,0.35431448844129054,-1.0157015335317006,-0.37543297474631876
1684782952579378,0.3623712520027462,-0.9966582742046235,-0.3787289234760052
1684782952595354,0.31122301060502,-0.9263447013046462,-0.3894712748912794
1684782952611331,0.27496757457846943,-0.8611581597619593,-0.32037842374303827
1684782952627307,0.28546578164339653,-0.8087891966124969,-0.26312657358663305
1684782952643283,0.29718471046005934,-0.7711909666590371,-0.2377355611505303
1684782952659260,0.3239185168230714,-0.7405508506904708,-0.22076752880140393
1684782952675236,0.3342946517128249,-0.669504844739452,-0.22821393148699176
1684782952691213,0.3213550011444264,-0.5961394674601359,-0.22919050888838033
1684782952707189,0.3419851987487599,-0.5629358358129246,-0.3192797741664761
1684782952723166,0.4237735561150533,-0.5674525062943467,-0.3613946746013581
1684782952739142,0.578072785534447,-0.5597619592584113,-0.2158846417944611
1684782952755118,0.5012893873502708,-0.3828793774319066,0.017761501487754572
1684782952771095,0.3002365148393986,-0.39777218280308224,-0.26569008926527804
1684782952787071,0.2533607995727474,-0.4484321355001146,-0.5114213778896772
1684782952803048,0.22406347753109035,-0.3839780270084687,-0.423163195239185
1684782952819024,0.26434729533836876,-0.44623483634699035,-0.39728389410238796
1684782952835022,0.23541618982223245,-0.44867627985046177,-0.27606622415503157
1684782952850999,0.20990310521095612,-0.46588845654993527,-0.2503089951934081
1684782952866975,0.21905851834897394,-0.4686961165789274,-0.21576256961928753
1684782952882952,0.2410315098802167,-0.527412832837415,-0.2642252231631952
1684782952898929,0.2225986114290075,-0.5968719005111773,-0.3753109025711452
1684782952914906,0.21722743572137038,-0.6684061951628899,-0.45001907377737105
1684782952930883,0.2225986114290075,-0.7405508506904708,-0.5672083619439996
1684782952946860,0.24176394293125814,-0.8463874265659572,-0.6497291523613336
1684782952962837,0.1360494392309457,-0.5860074769207295,-0.7046616311894409
1684782952978814,0.275089646753643,-1.0148470283054856,-0.841626611734188
1684782952994791,0.21576256961928753,-0.8584725719081407,-0.6105439841306173
1684782953010768,0.22027924010070965,-0.932082093537804,-0.7218738078889144
1684782953026744,0.23236438544289317,-0.8990005340657663,-0.5834439612420845
1684782953042721,0.12494087129014986,-0.8310063324940873,-0.5868619821469445
1684782953058698,0.18219272144655552,-0.9843289845120928,-0.6145723659113451
1684782953074675,0.15423819333180777,-0.8810559243152514,-0.6653543907835506
1684782953090652,0.16217288471808988,-0.9267109178301669,-0.7433585107194629
1684782953106629,0.24640268558785383,-0.97773708705272,-0.6592507820248721
1684782953122606,0.11712825207904132,-0.9204852368963148,-0.7652094300755321
1684782953138583,0.15985351338979203,-0.9998321507591363,-0.6732890821698327
1684782953154541,0.2280918593118182,-1.1020065613794157,-0.6691386282139313
1684782953170517,0.28668650339513224,-1.1270313572899977,-0.666941329060807
1684782953186493,0.32745860990310494,-1.0937056534676128,-0.5869840543221181
1684782953202470,0.41254291599908477,-1.137773708705272,-0.6594949263752192
1684782953218446,0.3419851987487599,-1.099931334401465,-0.9546654459449151
1684782953234423,0.42023346303501974,-1.0358434424353398,-0.7340810254062715
1684782953250399,0.44330510414282465,-1.0480506599526969,-0.7754634927901121
1684782953266376,0.4291447318226904,-1.0214389257648584,-0.7384756237125201
1684782953282352,0.4569771877622646,-0.9936064698252842,-0.7199206530861373
1684782953298329,0.4502632181277182,-0.9378194857709623,-0.6713359273670556
1684782953314305,0.3938658731975284,-0.8853284504463264,-0.7398184176394293
1684782953330281,0.2935225452048522,-0.821972991531243,-0.6913557640955217
1684782953346258,0.19073777370870548,-0.6261692225528344,-0.6934309910734724
1684782953362234,0.20904859998474112,-0.7869382772564277,-0.6915999084458688
1684782953378211,0.17157244220645484,-0.7509269855802243,-0.6529030289158464
1684782953394187,0.20465400167849257,-0.8209964141298545,-0.8156252384222173
1684782953410164,0.09527733272297212,-0.7754634927901121,-0.9367208361943997
1684782953426140,0.16595712214847058,-0.8113527122911419,-0.9218280308232241
1684782953442116,0.2663004501411459,-0.764965285725185,-0.7703364614328221
1684782953458093,0.3209887846189057,-0.7118638895246816,-0.6519264515144578
1684782953474060,0.388006408789197,-0.6820782787823298,-0.33466086823834607
1684782953490037,0.37396810864423546,-0.7614251926451514,-0.23651483939879459
1684782953506013,0.3705500877393755,-0.8350347142748151,-0.6846417944609748
1684782953521990,0.203677424277104,-0.6569314106965742,-1.0209506370641641
1684782953537967,0.1251850156404979,-0.7621576256961928,-0.725413900968948
1684782953553944,0.0802624551766229,-0.7227283131151294,-0.43915465018692323
1684782953569921,0.16742198825055343,-0.6876935988403146,-0.4535591668574046
1684782953585898,0.23260852979324032,-0.7293202105745022,-0.5144731822690165
1684782953601875,0.22333104448004892,-0.7622796978713664,-0.49701686121919586
1684782953617852,0.1928130006866562,-0.7481193255512322,-0.45831998168917387
1684782953633829,0.240665293354696,-0.8429694056610972,-0.48151369497215235
1684782953649806,0.25006485084306096,-0.7389639124132144,-0.4917677576867323
1684782953665783,0.29425497825589364,-0.8349126420996416,-0.6719462882429235
1684782953681759,0.18915083543144906,-0.6166475928892958,-0.640207522697795
1684782953697736,0.24408331425955598,-0.5866178377965974,-0.6120088502327001
1684782953713713,0.3699397268635076,-0.6552224002441442,-0.5847867551689938
1684782953729690,0.42389562829022687,-0.6443579766536964,-0.4130312046997786
1684782953745667,0.38068207827878275,-0.6096894789044023,-0.38715190356298157
1684782953761644,0.3309987029831385,-0.6380102235446707,-0.4328068970778971
1684782953777621,0.23761348897535672,-0.579903868162051,-0.40155642023346294
1684782953793609,0.1940337224383919,-0.5692835889219503,-0.36029602502479596
1684782953809586,0.15973144121461846,-0.5329060807202257,-0.3631036850537881
1684782953825562,0.15594720378423776,-0.5606164644846263,-0.38898298619058513
1684782953841539,0.3023117418173493,-0.6749980926222627,-0.5840543221179524
1684782953857515,0.22992294193942175,-0.74531166552224,-0.5973601892118716
1684782953873491,0.18915083543144906,-0.8083009079118026,-0.7403067063401236
1684782953889468,0.08807507438773143,-0.7757076371404592,-0.6922102693217367
1684782953905444,0.03350881208514522,-0.7475089646753643,-0.6179903868162051
1684782953921421,-0.009948882276646032,-0.8490730144197758,-0.7232166018158237
1684782953937397,0.02935835812924381,-1.0077668421454185,-0.7368886854352636
1684782953953374,0.036438544289310926,-0.983718623636225,-0.5962615396353095
1684782953969350,0.06451514457923224,-0.9572289616235601,-0.46979476615548954
1684782953985326,0.07574578469520077,-0.9301289387350269,-0.36041809719996953
1684782954001303,0.02252231631952384,-0.9038834210727091,-0.41071183337148076
1684782954017279,-0.0327763790341038,-0.8552986953536279,-0.43268482490272353
1684782954033256,-0.03033493553063238,-0.8733653772793164,-0.3550469214923324
1684782954049232,0.008239871824216038,-0.8754406042572671,-0.29340047302967864
1684782954065209,0.07061875333791079,-0.896803234912642,-0.24164187075608456
1684782954081185,0.09295796139467427,-0.8655527580682079,-0.23627069504844744
1684782954097161,0.0919813839932857,-0.8616464484626536,-0.39899290455481795
1684782954113128,0.12091248950942202,-0.927809567406729,-0.3048752574959943
1684782954129105,0.12249942778667844,-0.9466086823834594,-0.5283894102388036
1684782954145082,0.036438544289310926,-0.9246356908522162,-0.4979934386205844
1684782954161059,0.07782101167315147,-0.899366750591287,-0.4717479209582667
1684782954177036,-0.14190890363927666,-0.8678721293965057,-0.10064850843060968
1684782954193013,0.1625391012436106,-0.9494163424124515,-0.25311665522240023
1684782954208990,0.017883573662928143,-0.7046616311894409,-0.29584191653315006
1684782954224967,0.13788052185854927,-0.9219501029983976,-0.21490806439307253
1684782954240944,0.03326466773479808,-0.8720225833524071,-0.36627756160830094
1684782954256920,-0.0686655985351341,-1.0056916151674677,-0.6210421911955444
1684782954272897,-0.06414892805371197,-0.8144045166704816,-0.4755321583886474
1684782954288874,-0.1098039215686275,-0.7754634927901121,-0.7559319447623407
1684782954304851,-0.07000839246204338,-0.827954528114748,-0.6753643091477834
1684782954320828,0.03472953383688093,-0.9386739909971773,-0.585885404745556
1684782954336805,-0.003112840466926059,-0.938185702296483,-0.6070038910505837
1684782954352782,0.04486152437628732,-0.9969024185549706,-0.54535744258793
1684782954368759,0.08075074387731718,-1.0548867017624168,-0.2717936980239566
1684782954384736,0.04888990615701516,-1.1236133363851377,-0.5701380941481653
1684782954400713,0.06671244373235652,-1.0846723125047686,-0.6339818417639429
1684782954416689,0.06781109330891866,-1.0699015793087665,-0.6099336232547494
1684782954432678,0.041565575646600905,-1.0302281223773555,-0.5916227969787138
1684782954448655,0.12530708781567146,-1.1031052109559778,-0.49787136644541086
1684782954464632,0.18194857709620837,-1.1037155718318457,-0.4302433813992521
1684782954480609,0.09710841535057568,-1.0623331044480047,-0.46478980697337313
1684782954496585,0.16949721522850414,-1.0248569466697184,-0.5110551613641565
1684782954512562,0.03448538948653379,-0.906202792401007,-0.17291523613336368
1684782954528539,0.1024795910582128,-1.186114290074006,-0.7779049362935835
1684782954544516,0.18512245365072122,-1.2202944991226063,-0.391302357518883
1684782954560493,0.20428778515297186,-1.0829633020523386,0.13556115053025142
1684782954576470,0.15277332722972492,-0.9102311741817348,0.07025253681239008
1684782954592447,0.123476005188067,-1.020706492713817,0.11700617990386775
1684782954608424,0.24432745860990313,-1.027542534523537,-0.10882734416723894
1684782954624401,0.27618829633020514,-0.9799343862058443,0.21149004348821254
1684782954640378,0.17669947356374482,-0.9746852826733807,0.11920347905699202
1684782954656355,0.1494773785000385,-0.9719996948195622,-0.004699778744182481
1684782954672331,0.17938506141756339,-1.0442664225223162,0.07428091859311792
1684782954688308,0.13482871747921,-1.0370641641870755,-0.017761501487754572
1684782954704285,0.08636606393530144,-0.9589379720759901,0.09112687876707071
1684782954720262,0.1334859235523007,-0.9392843518730452,0.04449530785076661
1684782954736239,0.26446936751354233,-1.3116044861524374,-0.26776531624322875
1684782954752197,0.32074464026855853,-1.2167544060425728,-0.15594720378423732
1684782954768174,0.13678187228198713,-1.0280308232242312,0.16070801861600703
1684782954784151,0.11712825207904132,-1.2639963378347447,-0.004943923094529623
1684782954800128,0.2116121156633861,-1.1265430685893034,0.45966277561608315
1684782954816105,0.27203784237430373,-1.1723201342793925,0.6266575112535291
1684782954832081,0.36188296330205194,-1.2598458838788433,0.8538338292515446
1684782954848058,0.4170595864805069,-1.2910963607232775,0.5740444037537191
1684782954864035,0.3284351873044935,-1.2421454184786755,0.18512245365072122
1684782954880012,0.202822919050889,-0.9047379262989241,0.054627298390172996
