Timestamp (microseconds),Gyro X (°/s),Gyro Y (°/s),Gyro Z (°/s)
1684782929508178,-0.16784924086368846,35.14152742809188,44.99885557335779
1684782929524173,-8.89600976577401,29.709315632867856,39.32249942778685
1684782929540168,-11.764705882352928,15.335317006179821,31.84557869840546
1684782929556163,-10.08621347371627,7.980468451972229,27.57305256733025
1684782929572158,-5.600061036087595,5.813687342641288,26.749065384908818
1684782929588153,-2.639810788128443,8.194094758525921,26.321812771801206
1684782929604148,1.5411612115663047,14.206149385824347,24.979018844891925
1684782929620144,5.203326466773433,25.436789501792873,21.499961852445153
1684782929636139,7.248035400930803,40.7873655298697,17.441062027923977
1684782929652134,4.3183031967651,45.73128862439921,17.502098115510762
1684782929668129,-3.3112077515830833,37.003128099489004,20.187685969329323
1684782929684124,-9.323262378881509,28.122377355611434,24.185549706263828
1684782929700119,-5.203326466773433,33.676661326009025,25.284199282825966
1684782929716114,4.074158846417959,52.01800564583823,19.69939726863504
1684782929732109,12.710765239948046,66.3614862287327,14.69443808651863
1684782929748104,14.633401998931845,73.89944304570076,10.208285648889841
1684782929764099,9.323262378881509,72.19043259327077,10.75761043717091
1684782929780094,3.341725795376533,63.15709163042652,13.35164415960935
1684782929796089,12.893873502708402,63.03501945525295,13.778896772716848
1684782929812084,34.958419165331634,76.34088654917218,10.11673151750972
1684782929828064,59.159227893492016,96.26916914625781,4.440375371938671
1684782929844059,71.33592736705577,100.72480354009326,5.783169298847952
1684782929860054,63.61486228732747,79.72838941023883,9.719996948195558
1684782929876049,49.08827344167253,50.94987411306943,10.147249561303056
1684782929892044,28.79377431906596,27.359426260776672,9.597924773021987
1684782929908039,17.1053635461966,14.511329823758274,12.405584802014118
1684782929924034,5.294880598153668,5.264362554360218,13.565270466163042
1684782929940029,-3.128099488822727,10.66605630579079,13.260090028229115
1684782929956024,-12.13092240787364,13.229571984435779,14.602883955138395
1684782929972019,-18.478675516899443,9.933623254749364,17.22743572137017
1684782929988014,-23.147936217288475,5.844205386434737,18.417639429312544
1684782930004009,-27.93926909285119,3.0670634012359415,17.25795376516362
1684782930020004,-34.71427481498438,-4.989700160219741,11.612115663385907
1684782930035999,-44.75471122301053,-16.006713969634575,0.16784924086368846
1684782930051994,-41.9470511940184,-14.847028305485537,-4.654001678492364
1684782930067989,-34.378576333257,-14.480811779964824,-3.7384603646905816
1684782930083984,-34.470130464637236,-17.746242465858018,-5.172808422980097
1684782930099979,-37.09468223086901,-21.683070115205624,-7.461661707484495
1684782930115974,-32.57801174944689,-9.29274433508806,-11.001754787518053
1684782930131969,-16.983291371023142,-0.19836728465702436,-16.76966506446945
1684782930147949,-1.7853055619134466,-3.4332799267566543,-24.399176012817634
1684782930163944,12.68024719615471,-2.731364919508678,-24.46021210040442
1684782930179939,15.609979400320412,3.006027313649156,-29.70931563286797
1684782930195934,7.644769970244852,5.996795605401644,-30.35019455252916
1684782930211929,-4.86762798504617,1.3885709925993979,-34.13443198290986
1684782930227924,-12.00885023270007,-6.179903868162,-36.209658960860565
1684782930243919,-4.16571297779808,0.2594033722438098,-44.602121004043624
1684782930259914,10.025177386129485,6.637674525062948,-63.767452506294376
1684782930275909,30.01449607080167,9.475852597848416,-67.91790646219579
1684782930291904,34.04287785152974,9.353780422674845,-72.43457694361791
1684782930307899,23.819333180743,2.6703288319218927,-71.24437323567554
1684782930323894,23.72777904936288,3.7079423208972457,-57.45021744106202
1684782930339889,21.316853589684797,-6.759746700236519,-44.93781948577089
1684782930355884,15.335317006179821,-18.265049210345637,-43.99176012817577
1684782930371879,22.78171969176765,-16.372930495155288,-45.88387884336612
1684782930387874,22.78171969176765,-10.574502174410554,-41.03150988021662
1684782930403869,12.954909590295188,1.5411612115663047,-39.13939116502627
1684782930419864,7.003891050583661,25.46730754558621,-35.26359960326545
1684782930435859,6.424048218509142,16.43396658274196,-26.382848859388105
1684782930451854,-1.3580529488059483,-3.006027313649156,-10.971236743724717
1684782930467529,-7.1869993133440175,-20.12664988174265,1.266498817425827
1684782930483523,-9.842069123369129,-40.87891966124971,5.844205386434737
1684782930499516,-1.8158236057068962,-45.48714427405196,6.515602349889377
1684782930515510,9.689478904402222,-33.09681849393451,0.9918364232852355
1684782930531503,19.516289005874683,-16.18982223239493,-6.72922865644307
1684782930547497,33.46303501945545,11.97833218890662,-13.076981765468759
1684782930563490,33.27992675669498,44.937819485771115,-17.227435721370284
1684782930579484,21.652552071412174,56.595712214847026,-21.652552071412288
1684782930595478,11.276417181658644,50.09536888685443,-21.46944380865193
1684782930611471,2.7924010070954637,44.44953078507683,-17.074845502403377
1684782930627465,0.9613183794918996,39.23094529640662,-7.919432364385443
1684782930643458,-3.768978408484031,28.824292362859524,-4.074158846417959
1684782930659452,-0.9918364232852355,35.69085221637306,1.5411612115663047
1684782930675446,5.386434729533789,58.76249332417797,-3.8605325398641526
1684782930691439,11.612115663385907,77.40901808194099,-6.21042191195545
1684782930707433,4.715037766079149,68.03997863736936,-1.7242694743266611
1684782930723426,-4.654001678492364,48.81361104753182,3.677424277103796
1684782930739420,-6.393530174715806,34.897383077744735,7.0954451819637825
1684782930755414,-5.416952773327239,26.321812771801206,11.551079575799122
1684782930771407,-5.9357595178148586,22.598611429007292,13.412680247196135
1684782930787078,-11.917296101319835,17.441062027923977,7.766842145418423
1684782930803071,-35.81292439154652,37.125200274662575,-22.049286640726336
1684782930819063,-61.26497291523617,85.55733577477667,-50.88883802548264
1684782930835055,-78.2024872205692,173.90707255664915,-91.41680018310831
1684782930851047,-62.394140535591646,207.7821011673152,-82.87174792095834
1684782930867039,-45.57869840543219,220.9658960860611,-72.55664911879148
1684782930883031,-51.04142824444955,194.9340047302967,-66.72770275425341
1684782930899024,-11.520561532005786,165.8808270389868,-56.74830243381405
1684782930915016,52.47577630273895,136.3393606469824,-20.492866407263364
1684782930931008,75.39482719157695,96.33020523384471,7.40062561989771
1684782930947000,77.28694590676741,88.24292362859524,6.637674525062948
1684782930962992,59.6475165941863,68.34515907530317,5.844205386434737
1684782930978984,51.31609063859014,48.23376821545753,5.691615167467717
1684782930994977,50.94987411306943,29.312581063553807,5.050736247806526
1684782931010969,75.76104371709766,25.253681239032403,-2.6703288319218927
1684782931026961,128.28259708552673,49.97329671168086,-19.821469443808724
1684782931042953,168.93263141832608,81.19325551232168,-42.95414663920042
1684782931058945,174.3648432135501,80.15564202334622,-66.05630579079877
1684782931074937,157.4578469520104,48.538948653391344,-77.1343556878004
1684782931090930,137.0412756542305,-20.889600976577412,-88.21240558480201
1684782931106659,131.3954375524529,-70.51194018463411,-79.60631723506526
1684782931122650,147.81414511329808,-60.288395513847604,-75.12016479743647
1684782931138641,161.91348134584587,-34.744792858777714,-82.13931486991692
1684782931154632,140.21515220874335,-37.36934462500949,-95.6282902265965
1684782931170623,120.56153200579843,-71.24437323567554,-89.43312733653772
1684782931186615,124.25421530479889,-85.5573357747769,-62.60776684214545
1684782931202606,119.43236438544295,-32.12024109254594,-55.283436331731195
1684782931218597,129.56435492484934,24.093995574883593,-64.37781338216223
1684782931234588,123.43022812237746,36.51483939879472,-63.096055542839736
1684782931250579,97.00160219729923,21.04219119554432,-50.431067368581694
1684782931266571,89.58571755550452,12.619211108567924,-34.92790112153807
1684782931282562,87.57152666514071,14.724956130311966,-44.846265354390766
1684782931298553,107.65239948119324,29.8924238956281,-66.17837796597235
1684782931314544,117.72335393301296,44.20538643472969,-89.98245212481879
1684782931330536,111.49767299916084,48.50843060959801,-96.02502479591055
1684782931346527,91.75249866483546,49.63759822995348,-83.45159075303275
1684782931362518,84.61127641718167,63.21812771801319,-75.60845349813076
1684782931378509,102.73899443045707,72.61768520637816,-81.40688181887549
1684782931394500,136.52246890974288,88.70069428549618,-80.30823224231335
1684782931410492,135.27122911421384,66.2088960097658,-69.96261539635304
1684782931426208,121.01930266269937,28.183413443198106,-49.54604409857336
1684782931442198,109.08674753948276,20.523384451056586,-23.727779049362994
1684782931458188,103.95971618219278,-5.386434729533789,-16.09826810101481
1684782931474177,144.73182269016547,-36.05706874189366,-27.11528191042953
1684782931490167,223.31578545815228,-29.068436713206665,-74.17410543984124
1684782931506157,163.59197375448252,2.090485999847374,-65.81216144045163
1684782931522147,82.13931486991669,15.21324483100625,-32.9442282749676
1684782931538137,84.70283054856168,6.363012130922357,-26.44388494697489
1684782931554126,131.67009994659338,10.940718699931267,-21.98825055313955
1684782931570116,168.74952315556584,65.90371557183175,-25.467307545586323
1684782931586106,265.1255054551002,197.49752040894168,-78.32455939574277
1684782931602096,170.18387121385535,83.39055466544596,-66.57511253528651
1684782931618085,41.06202792401018,-71.58007171740292,-40.45166704814221
1684782931634075,72.77027542534529,-30.93003738460368,-12.64972915236126
1684782931650065,45.273517967498265,-16.22034027618838,14.419775692378039
1684782931666055,51.529716945143946,23.422598611428953,28.763256275272624
1684782931682045,61.41756313420319,1.1139085984588064,19.11955443656052
1684782931698034,73.990997177081,-54.79514763103691,-2.7924010070954637
1684782931714024,52.170595864805136,-44.2969405661097,-17.19691767757695
1684782931730014,39.7192339971009,-15.579461356526963,-14.755474174105416
1684782931745727,13.809414816510184,-25.13160906385906,-2.212558175020945
1684782931761716,10.482948043030433,-23.697261005569544,3.3112077515830833
1684782931777705,24.67383840695811,-5.844205386434737,2.3956664377813013
1684782931793694,24.49073014419764,-2.97550926985582,4.043640802624509
1684782931809682,20.035095750362302,-5.50850690470736,5.661097123674381
1684782931825671,6.088349736781879,-16.86121919584957,6.668192568856284
1684782931841660,5.050736247806526,-18.814373998626706,9.781033035782343
1684782931857649,-29.526207370107613,-36.57587548638128,14.66392004272518
1684782931873638,-48.75257495994515,-71.27489127946899,13.138017853055544
1684782931889627,-26.901655603875838,-40.024414435034714,14.69443808651863
1684782931905615,-13.534752422369706,-13.290608072022565,11.917296101319835
1684782931921604,-33.61562523842224,-25.65041580834668,13.565270466163042
1684782931937593,-74.38773174639505,-63.34019989318688,17.990386816205046
1684782931953582,-90.47074082551308,-100.38910505836577,26.41336690318144
1684782931969571,-82.4139772640574,-102.89158464942398,27.786678873884057
1684782931985560,-46.921492332341586,-74.63187609674219,26.1692225528343
1684782932001548,-25.955596246280606,-41.5197985809109,15.976195925841125
1684782932017537,-13.382162203402686,-19.760433356221938,4.531929503318793
1684782932033526,-14.57236591134506,-9.201190203707938,-4.3183031967651
1684782932049515,-16.678110933089215,-5.0202182040130765,-3.8300144960708167
1684782932065307,-13.595788509956492,-1.5716792553597543,0.19836728465702436
1684782932081295,-7.522697795071281,4.592965590905578,2.182040131227609
1684782932097283,-1.968413824673803,12.375066758220783,-0.7782101167315432
1684782932113271,8.194094758525921,17.715724422064454,-5.783169298847952
1684782932129259,15.91515983825434,17.77676050965124,-8.163576714732585
1684782932145247,18.387121385519094,20.309758144502894,-7.766842145418423
1684782932161234,12.893873502708402,19.91302357518873,-7.248035400930803
1684782932177222,7.034409094376997,20.431830319676465,-6.912336919203426
1684782932193210,5.2338445105668825,21.469443808651818,-5.630579079880931
1684782932209198,1.6632333867398756,14.267185473411132,-3.372243839169869
1684782932225186,1.6632333867398756,7.492179751277945,-0.8392462043183286
1684782932241174,2.853437094682249,2.182040131227609,0.3509575036240449
1684782932257162,3.799496452277367,1.3885709925993979,0.44251163500416624
1684782932273150,5.569542992294146,4.928664072632955,-1.4801251239795192
1684782932289137,7.156481269550568,8.438239108873063,-2.761882963302014
1684782932305125,8.07202258335235,10.177767605096506,-2.182040131227609
1684782932321113,6.942854962996876,7.1869993133440175,-0.4730296787976158
1684782932337101,5.325398641947004,4.1962310215915295,2.4872205691615363
1684782932353089,6.820782787823305,5.600061036087595,0.8087281605248791
1684782932369077,5.752651255054502,8.865491721980561,-1.968413824673803
1684782932384857,3.4332799267566543,11.642633707179357,-5.081254291599862
1684782932400844,1.2359807736323773,11.062790875104838,-5.630579079880931
1684782932416832,0.8697642481116645,9.201190203707938,-5.294880598153668
1684782932432819,-1.2970168612191628,6.942854962996876,-4.531929503318793
1684782932448806,-1.3275349050126124,9.018081940947582,-4.623483634699028
1684782932464794,-1.144426642252256,11.398489356832215,-5.874723430228073
1684782932480781,0.045777065690117524,14.785992217898752,-7.125963225757232
1684782932496769,1.2054627298390415,14.267185473411132,-7.40062561989771
1684782932512756,0.8697642481116645,10.330357824063412,-5.661097123674381
1684782932528743,1.4496070801861833,9.781033035782343,-5.386434729533789
1684782932544731,1.0833905546654705,10.147249561303056,-5.874723430228073
1684782932560718,-0.4730296787976158,7.1869993133440175,-5.172808422980097
1684782932576706,-0.6256198977645226,3.7384603646905816,-2.7008468757152286
1684782932592693,1.144426642252256,3.7079423208972457,-1.1139085984588064
1684782932608680,3.1586175326161765,5.996795605401644,-1.2970168612191628
1684782932624668,3.7384603646905816,5.050736247806526,-1.4496070801861833
1684782932640655,3.128099488822727,2.090485999847374,-0.7476920729380936
1684782932656643,2.334630350194516,-0.19836728465702436,0.41199359121083035
1684782932672630,0.41199359121083035,-1.9073777370870175,0.93080033569845
1684782932688617,-0.5035477225909517,-1.846341649500232,1.266498817425827
1684782932704376,-0.41199359121083035,-1.0833905546654705,0.6866559853513081
1684782932720362,0.38147554741738077,1.6327153429465397,-0.44251163500416624
1684782932736349,1.3580529488059483,3.8300144960708167,-2.212558175020945
1684782932752335,1.6327153429465397,2.761882963302014,-2.4872205691615363
1684782932768322,1.3885709925993979,1.9989318684672526,-2.059967956054038
1684782932784308,2.3956664377813013,5.355916685740453,-2.6703288319218927
1684782932800295,2.639810788128443,7.522697795071281,-3.585870145723675
1684782932816281,2.30411230640118,6.912336919203426,-2.761882963302014
1684782932832267,2.731364919508678,7.492179751277945,-2.3956664377813013
1684782932848254,4.257267109178315,9.689478904402222,-3.0365453574426056
1684782932864240,3.1891355764095124,7.614251926451516,-3.555352101930225
1684782932880227,2.212558175020945,5.142290379186647,-2.6703288319218927
1684782932896213,1.2054627298390415,4.592965590905578,-2.5787747005416577
1684782932912200,1.144426642252256,5.50850690470736,-2.8229190508887996
1684782932928186,0.44251163500416624,5.294880598153668,-2.426184481574751
1684782932944172,0.6256198977645226,6.027313649195094,-2.3651483939879654
1684782932960159,-0.015259021896667946,6.607156481269499,-2.6092927443351073
1684782932976145,0.5035477225909517,6.2714579995422355,-2.9144731822690346
1684782932992132,-0.045777065690117524,2.8229190508887996,-2.548256656748322
1684782933008118,0.106813153276903,2.0294499122605885,-2.182040131227609
1684782933023925,1.2359807736323773,3.250171663996298,-1.7547875181201107
1684782933039911,1.2970168612191628,4.043640802624509,-2.30411230640118
1684782933055896,1.3275349050126124,4.531929503318793,-2.5787747005416577
1684782933071882,0.3509575036240449,4.043640802624509,-2.6092927443351073
1684782933087867,0.1373311970702389,3.768978408484031,-2.8229190508887996
1684782933103853,0.1373311970702389,3.250171663996298,-2.883955138475585
1684782933119838,-0.19836728465702436,2.4872205691615363,-2.2735942626077303
1684782933135824,0.07629510948345342,2.9144731822690346,-2.2430762188143945
1684782933151809,0.44251163500416624,3.4943160143434397,-1.7547875181201107
1684782933167795,-0.106813153276903,3.463797970550104,-1.052872510872021
1684782933183780,-0.07629510948345342,4.898146028839506,-0.6866559853513081
1684782933199766,-24.46021210040442,6.88181887541009,16.067750057221247
1684782933215751,0.16784924086368846,7.248035400930803,0.6256198977645226
1684782933231737,-1.2970168612191628,1.5106431677729688,-2.090485999847374
1684782933247722,-18.966964217593727,24.734874494544783,7.919432364385443
1684782933263708,0.1373311970702389,17.959868772411596,0.5035477225909517
1684782933279693,-5.630579079880931,-5.355916685740453,0.3204394598305953
1684782933295679,-7.431143663691159,-0.2899214160372594,3.555352101930225
1684782933311664,-19.913023575188845,-6.88181887541009,6.21042191195545
1684782933327650,-17.31898985275052,-2.639810788128443,3.372243839169869
1684782933343444,-9.140154116121153,3.4027618829633184,1.3275349050126124
1684782933359429,-5.264362554360218,4.074158846417959,-0.5340657663844013
1684782933375414,-1.2970168612191628,2.731364919508678,-0.1373311970702389
1684782933391399,1.6632333867398756,1.266498817425827,0.2594033722438098
1684782933407384,3.2806897077897474,0.8087281605248791,-0.07629510948345342
1684782933423370,4.043640802624509,0.2899214160372594,-0.44251163500416624
1684782933439355,3.9520866712443876,0.6561379415579722,-0.2899214160372594
1684782933455340,3.097581445029391,1.7547875181201107,-0.9613183794918996
1684782933471325,1.9073777370870175,2.4872205691615363,-1.4801251239795192
1684782933487310,2.334630350194516,2.8229190508887996,-1.5716792553597543
1684782933503295,2.1210040436408235,2.6092927443351073,-1.5106431677729688
1684782933519280,1.9073777370870175,2.548256656748322,-1.1139085984588064
1684782933535265,2.1515220874341594,3.6469062333104603,-1.022354467078685
1684782933551250,2.639810788128443,3.341725795376533,-0.93080033569845
1684782933567235,2.853437094682249,2.1210040436408235,-0.6561379415579722
1684782933583220,2.30411230640118,1.5411612115663047,-0.44251163500416624
1684782933599205,2.4872205691615363,1.3580529488059483,-0.8087281605248791
1684782933615190,2.059967956054038,1.4801251239795192,-1.022354467078685
1684782933631175,1.5716792553597543,2.30411230640118,-0.93080033569845
1684782933647160,0.2899214160372594,1.7547875181201107,-0.9002822919051141
1684782933663025,-0.07629510948345342,1.5411612115663047,-0.7782101167315432
1684782933679009,-0.3509575036240449,1.3885709925993979,-0.7171740291447577
1684782933694993,-0.6866559853513081,1.2970168612191628,-1.1139085984588064
1684782933710977,-0.41199359121083035,1.7547875181201107,-1.6327153429465397
1684782933726961,-0.16784924086368846,1.0833905546654705,-1.4801251239795192
1684782933742945,0.106813153276903,1.5411612115663047,-1.3885709925993979
1684782933758929,0.5340657663844013,1.4496070801861833,-1.3580529488059483
1684782933774913,0.8697642481116645,1.1139085984588064,-1.2054627298390415
1684782933790897,1.052872510872021,2.0294499122605885,-0.8697642481116645
1684782933806881,1.1749446860455919,2.97550926985582,-0.6866559853513081
1684782933822865,1.5716792553597543,4.074158846417959,-1.1139085984588064
1684782933838849,1.266498817425827,3.0670634012359415,-1.052872510872021
1684782933854833,0.9918364232852355,3.7384603646905816,-1.6632333867398756
1684782933870817,1.1139085984588064,3.1586175326161765,-1.6937514305333252
1684782933886801,0.9002822919051141,1.7547875181201107,-1.6021972991530902
1684782933902785,0.9613183794918996,1.6937514305333252,-1.1749446860455919
1684782933918769,0.7782101167315432,2.0294499122605885,-1.052872510872021
1684782933934754,0.2899214160372594,1.937895780880467,-1.1139085984588064
1684782933950738,0.9613183794918996,3.0670634012359415,-1.2054627298390415
1684782933966722,0.7171740291447577,2.731364919508678,-1.2970168612191628
1684782933982544,0.5340657663844013,2.1210040436408235,-1.5411612115663047
1684782933998527,0.3204394598305953,1.2970168612191628,-1.3275349050126124
1684782934014511,0.07629510948345342,0.9918364232852355,-1.2359807736323773
1684782934030494,0.16784924086368846,1.6632333867398756,-1.4190890363927338
1684782934046478,-0.19836728465702436,1.4190890363927338,-1.3275349050126124
1684782934062461,0.1373311970702389,2.2430762188143945,-1.1139085984588064
1684782934078445,0.1373311970702389,2.731364919508678,-1.2970168612191628
1684782934094429,-0.106813153276903,3.4943160143434397,-1.4190890363927338
1684782934110412,-0.7476920729380936,3.4027618829633184,-1.968413824673803
1684782934126396,-1.9073777370870175,2.853437094682249,-1.6937514305333252
1684782934142379,-2.426184481574751,2.30411230640118,-1.846341649500232
1684782934158363,-2.1515220874341594,3.2806897077897474,-1.2359807736323773
1684782934174347,-1.7242694743266611,2.090485999847374,-1.9989318684672526
1684782934190330,-1.2970168612191628,1.0833905546654705,-1.1749446860455919
1684782934206314,-0.6866559853513081,1.8158236057068962,-1.3275349050126124
1684782934222297,0.106813153276903,1.7242694743266611,-1.5716792553597543
1684782934238281,0.106813153276903,1.5716792553597543,-1.7242694743266611
1684782934254264,-0.3204394598305953,0.9613183794918996,-1.2970168612191628
1684782934270248,-0.5340657663844013,1.4496070801861833,-1.8158236057068962
1684782934286232,-0.4730296787976158,0.3509575036240449,-1.5716792553597543
1684782934302063,-0.106813153276903,0.2594033722438098,-1.052872510872021
1684782934318046,-0.3509575036240449,0.3204394598305953,-1.1139085984588064
1684782934334029,-0.8087281605248791,0.6256198977645226,-1.266498817425827
1684782934350012,-0.6866559853513081,0.8087281605248791,-1.2054627298390415
1684782934365995,-0.38147554741738077,0.8697642481116645,-1.5411612115663047
1684782934381978,0.1373311970702389,0.9613183794918996,-1.2359807736323773
1684782934397961,-0.6256198977645226,1.7853055619134466,-1.3885709925993979
1684782934413944,-0.8392462043183286,2.97550926985582,-1.7547875181201107
1684782934429927,-1.7242694743266611,1.7853055619134466,-1.4801251239795192
1684782934445911,-2.059967956054038,1.9989318684672526,-1.4190890363927338
1684782934461894,-2.3651483939879654,1.937895780880467,-1.6937514305333252
1684782934477877,-1.6021972991530902,2.0294499122605885,-1.7547875181201107
1684782934493860,-1.2970168612191628,1.144426642252256,-1.2359807736323773
1684782934509843,-0.4730296787976158,1.7242694743266611,-1.4496070801861833
1684782934525826,-0.22888532845047393,1.9073777370870175,-1.2970168612191628
1684782934541809,-0.3204394598305953,2.426184481574751,-1.052872510872021
1684782934557792,-0.4730296787976158,1.3885709925993979,-1.3275349050126124
1684782934573775,-0.3204394598305953,1.7242694743266611,-1.3885709925993979
1684782934589758,0.106813153276903,1.3885709925993979,-1.144426642252256
1684782934605742,0.22888532845047393,0.7782101167315432,-1.3275349050126124
1684782934621643,0.1373311970702389,0.4730296787976158,-1.266498817425827
1684782934637625,0.1373311970702389,1.144426642252256,-1.2054627298390415
1684782934653608,0.7476920729380936,1.4496070801861833,-1.2054627298390415
1684782934669591,0.6561379415579722,1.4801251239795192,-1.266498817425827
1684782934685573,0.8087281605248791,1.6021972991530902,-1.2970168612191628
1684782934701556,0.5340657663844013,1.4496070801861833,-1.3885709925993979
1684782934717538,0.41199359121083035,1.5716792553597543,-1.2359807736323773
1684782934733521,0.38147554741738077,2.4567025253680868,-1.4801251239795192
1684782934749504,0.045777065690117524,2.1210040436408235,-1.3275349050126124
1684782934765486,0.6561379415579722,3.0670634012359415,-1.4190890363927338
1684782934781469,0.5645838101777372,2.761882963302014,-1.7547875181201107
1684782934797452,0.41199359121083035,1.9989318684672526,-2.1515220874341594
1684782934813434,0.5951018539711868,1.8158236057068962,-1.7853055619134466
1684782934829417,0.6256198977645226,1.2054627298390415,-1.6937514305333252
1684782934845399,0.5340657663844013,0.44251163500416624,-1.3580529488059483
1684782934861382,0.44251163500416624,0.44251163500416624,-1.3885709925993979
1684782934877365,0.9002822919051141,1.266498817425827,-1.5106431677729688
1684782934893347,0.5951018539711868,0.7171740291447577,-1.0833905546654705
1684782934909330,0.5340657663844013,0.93080033569845,-1.3885709925993979
1684782934925313,0.8087281605248791,1.1749446860455919,-1.266498817425827
1684782934941162,0.8087281605248791,1.0833905546654705,-1.2970168612191628
1684782934957144,0.8392462043183286,1.3275349050126124,-1.5106431677729688
1684782934973126,0.8392462043183286,0.93080033569845,-1.3885709925993979
1684782934989108,0.93080033569845,0.5645838101777372,-1.4496070801861833
1684782935005090,1.1139085984588064,0.5645838101777372,-1.3580529488059483
1684782935021072,1.0833905546654705,0.7476920729380936,-1.4190890363927338
1684782935037055,1.6021972991530902,1.5411612115663047,-1.3885709925993979
1684782935053037,1.9073777370870175,1.7853055619134466,-1.3275349050126124
1684782935069019,1.3885709925993979,0.8087281605248791,-1.5411612115663047
1684782935085001,0.9613183794918996,0.22888532845047393,-1.2970168612191628
1684782935100983,1.0833905546654705,0.5645838101777372,-1.4190890363927338
1684782935116965,1.4496070801861833,0.5951018539711868,-1.2970168612191628
1684782935132948,1.7242694743266611,0.5645838101777372,-1.1749446860455919
1684782935148930,2.059967956054038,0.7171740291447577,-1.052872510872021
1684782935164912,2.0294499122605885,1.144426642252256,-1.3580529488059483
1684782935180894,1.266498817425827,0.3509575036240449,-1.144426642252256
1684782935196876,0.8392462043183286,0.5645838101777372,-1.266498817425827
1684782935212858,0.3204394598305953,1.052872510872021,-1.7547875181201107
1684782935228840,-0.106813153276903,0.7476920729380936,-1.9989318684672526
1684782935244823,-0.5340657663844013,0.44251163500416624,-2.0294499122605885
1684782935260711,-0.7476920729380936,0.5340657663844013,-2.3651483939879654
1684782935276693,-0.015259021896667946,0.22888532845047393,-2.0294499122605885
1684782935292675,0.6256198977645226,0.38147554741738077,-1.2054627298390415
1684782935308656,0.9918364232852355,1.144426642252256,-1.266498817425827
1684782935324638,0.9918364232852355,1.1139085984588064,-0.8392462043183286
1684782935340620,0.7782101167315432,0.9613183794918996,-1.144426642252256
1684782935356601,0.1373311970702389,0.7782101167315432,-1.3885709925993979
1684782935372583,0.22888532845047393,0.5340657663844013,-1.4496070801861833
1684782935388565,0.3509575036240449,0.8087281605248791,-1.3275349050126124
1684782935404546,0.19836728465702436,0.6866559853513081,-1.3275349050126124
1684782935420528,0.3204394598305953,0.6256198977645226,-0.9918364232852355
1684782935436510,0.44251163500416624,1.2359807736323773,-1.144426642252256
1684782935452491,0.6256198977645226,1.4190890363927338,-1.1749446860455919
1684782935468473,0.6561379415579722,1.1749446860455919,-1.0833905546654705
1684782935484455,0.4730296787976158,1.022354467078685,-1.144426642252256
1684782935500436,0.38147554741738077,1.266498817425827,-1.2054627298390415
1684782935516418,0.3509575036240449,1.266498817425827,-1.4496070801861833
1684782935532400,0.9918364232852355,0.8392462043183286,-1.5716792553597543
1684782935548381,1.2970168612191628,0.7782101167315432,-1.1139085984588064
1684782935564363,0.9002822919051141,1.022354467078685,-1.266498817425827
1684782935580230,0.5951018539711868,0.7782101167315432,-1.0833905546654705
1684782935596212,0.6561379415579722,0.41199359121083035,-1.0833905546654705
1684782935612193,0.8392462043183286,0.16784924086368846,-1.3885709925993979
1684782935628174,0.9002822919051141,0.045777065690117524,-1.022354467078685
1684782935644155,0.8697642481116645,0.22888532845047393,-1.1139085984588064
1684782935660136,0.8697642481116645,0.19836728465702436,-1.2359807736323773
1684782935676118,1.2054627298390415,0.3204394598305953,-1.0833905546654705
1684782935692099,1.5106431677729688,0.7171740291447577,-0.9002822919051141
1684782935708080,1.5106431677729688,0.6561379415579722,-0.7782101167315432
1684782935724061,1.3275349050126124,0.16784924086368846,-0.6866559853513081
1684782935740042,1.2970168612191628,0.3204394598305953,-0.9613183794918996
1684782935756024,1.3885709925993979,0.8087281605248791,-1.0833905546654705
1684782935772005,1.3885709925993979,0.9002822919051141,-1.2054627298390415
1684782935787986,1.5716792553597543,0.5340657663844013,-0.7476920729380936
1684782935803967,1.6937514305333252,0.5951018539711868,-0.8392462043183286
1684782935819948,1.7853055619134466,0.9002822919051141,-0.8392462043183286
1684782935835929,1.6327153429465397,0.8087281605248791,-0.7171740291447577
1684782935851911,1.5411612115663047,1.0833905546654705,-0.7476920729380936
1684782935867892,1.4801251239795192,1.266498817425827,-0.7476920729380936
1684782935883873,1.3275349050126124,1.3275349050126124,-0.93080033569845
1684782935899780,1.144426642252256,1.1139085984588064,-1.3580529488059483
1684782935915761,0.8392462043183286,0.22888532845047393,-1.2359807736323773
1684782935931741,0.9918364232852355,0.3509575036240449,-0.9613183794918996
1684782935947722,1.2359807736323773,0.8392462043183286,-0.6256198977645226
1684782935963703,1.4801251239795192,0.8392462043183286,-0.3509575036240449
1684782935979684,1.6021972991530902,0.6866559853513081,-0.5645838101777372
1684782935995664,1.5411612115663047,0.6561379415579722,-0.7171740291447577
1684782936011645,1.2970168612191628,0.7171740291447577,-0.93080033569845
1684782936027626,0.5035477225909517,0.5645838101777372,-0.7782101167315432
1684782936043606,0.5645838101777372,0.22888532845047393,-0.8392462043183286
1684782936059587,0.8087281605248791,0.9002822919051141,-1.1749446860455919
1684782936075568,0.5645838101777372,0.5645838101777372,-1.0833905546654705
1684782936091549,0.4730296787976158,0.6561379415579722,-1.266498817425827
1684782936107529,0.5035477225909517,0.7171740291447577,-1.2054627298390415
1684782936123510,0.5340657663844013,0.5035477225909517,-1.1139085984588064
1684782936139491,0.6256198977645226,0.6256198977645226,-1.2359807736323773
1684782936155471,0.7171740291447577,0.6256198977645226,-1.2970168612191628
1684782936171452,0.7782101167315432,0.9002822919051141,-0.9918364232852355
1684782936187433,1.0833905546654705,1.2970168612191628,-0.93080033569845
1684782936203414,1.144426642252256,1.0833905546654705,-0.7476920729380936
1684782936219329,0.93080033569845,0.8697642481116645,-1.022354467078685
1684782936235310,0.7476920729380936,0.22888532845047393,-1.0833905546654705
1684782936251291,0.7782101167315432,0.5340657663844013,-1.0833905546654705
1684782936267272,0.93080033569845,0.7476920729380936,-1.2359807736323773
1684782936283252,0.9002822919051141,0.3509575036240449,-1.022354467078685
1684782936299233,0.8087281605248791,0.19836728465702436,-0.6561379415579722
1684782936315214,0.93080033569845,0.7171740291447577,-0.6866559853513081
1684782936331195,0.9918364232852355,1.144426642252256,-0.7476920729380936
1684782936347175,0.8392462043183286,0.9918364232852355,-0.8087281605248791
1684782936363156,0.5951018539711868,0.8087281605248791,-1.022354467078685
1684782936379137,0.6256198977645226,0.5951018539711868,-1.052872510872021
1684782936395117,0.7171740291447577,0.6866559853513081,-1.144426642252256
1684782936411098,0.8087281605248791,1.0833905546654705,-1.0833905546654705
1684782936427079,0.7171740291447577,0.9918364232852355,-1.1139085984588064
1684782936443060,0.5035477225909517,0.8697642481116645,-1.022354467078685
1684782936459040,0.4730296787976158,0.5340657663844013,-1.0833905546654705
1684782936475021,0.6866559853513081,0.22888532845047393,-1.1139085984588064
1684782936491002,0.5951018539711868,0.2594033722438098,-1.2970168612191628
1684782936506982,0.5645838101777372,0.5035477225909517,-1.1749446860455919
1684782936522963,0.6256198977645226,0.5340657663844013,-0.9918364232852355
1684782936538849,0.6561379415579722,0.5035477225909517,-1.022354467078685
1684782936554829,0.6561379415579722,0.41199359121083035,-0.9002822919051141
1684782936570809,0.6256198977645226,0.3204394598305953,-0.7476920729380936
1684782936586789,0.6866559853513081,0.5645838101777372,-0.5951018539711868
1684782936602769,0.8697642481116645,0.7782101167315432,-0.6256198977645226
1684782936618750,1.022354467078685,0.93080033569845,-0.8087281605248791
1684782936634730,1.2359807736323773,1.052872510872021,-0.8392462043183286
1684782936650710,1.2054627298390415,1.2970168612191628,-0.6561379415579722
1684782936666690,1.4190890363927338,1.144426642252256,-0.7782101167315432
1684782936682671,1.4190890363927338,1.1749446860455919,-0.93080033569845
1684782936698651,1.266498817425827,0.5951018539711868,-1.0833905546654705
1684782936714631,1.1749446860455919,0.07629510948345342,-0.93080033569845
1684782936730611,1.052872510872021,0.19836728465702436,-1.1139085984588064
1684782936746592,0.9002822919051141,0.3509575036240449,-0.8392462043183286
1684782936762572,0.8697642481116645,0.5645838101777372,-0.7476920729380936
1684782936778552,0.8087281605248791,0.7171740291447577,-0.8697642481116645
1684782936794532,0.5340657663844013,0.4730296787976158,-1.0833905546654705
1684782936810513,0.3204394598305953,0.22888532845047393,-1.052872510872021
1684782936826493,0.38147554741738077,0.6866559853513081,-1.0833905546654705
1684782936842473,0.5035477225909517,0.8697642481116645,-1.022354467078685
1684782936858398,0.5340657663844013,0.7476920729380936,-1.022354467078685
1684782936874378,0.3204394598305953,0.38147554741738077,-1.2970168612191628
1684782936890359,0.16784924086368846,0.07629510948345342,-1.2054627298390415
1684782936906339,0.38147554741738077,0.3509575036240449,-1.266498817425827
1684782936922319,0.5035477225909517,0.3204394598305953,-0.9613183794918996
1684782936938299,0.5645838101777372,0.5951018539711868,-1.022354467078685
1684782936954280,0.44251163500416624,0.6866559853513081,-1.0833905546654705
1684782936970260,0.41199359121083035,0.93080033569845,-1.1749446860455919
1684782936986240,0.4730296787976158,1.1749446860455919,-1.2359807736323773
1684782937002220,0.6866559853513081,1.3885709925993979,-1.144426642252256
1684782937018200,1.1139085984588064,1.6327153429465397,-1.3275349050126124
1684782937034181,1.144426642252256,1.2359807736323773,-1.0833905546654705
1684782937050161,1.052872510872021,0.7476920729380936,-1.1139085984588064
1684782937066141,1.022354467078685,0.7171740291447577,-1.1749446860455919
1684782937082121,0.6561379415579722,0.5951018539711868,-1.1749446860455919
1684782937098102,0.5645838101777372,0.5035477225909517,-1.1749446860455919
1684782937114082,0.7171740291447577,0.7476920729380936,-1.2054627298390415
1684782937130062,1.0833905546654705,1.022354467078685,-0.9918364232852355
1684782937146042,1.1139085984588064,0.9918364232852355,-1.022354467078685
1684782937162023,1.2359807736323773,0.6866559853513081,-1.2359807736323773
1684782937177917,1.4190890363927338,0.8392462043183286,-1.5106431677729688
1684782937193897,1.3275349050126124,0.7476920729380936,-1.4496070801861833
1684782937209877,0.8087281605248791,0.16784924086368846,-1.0833905546654705
1684782937225856,0.4730296787976158,-0.045777065690117524,-0.9918364232852355
1684782937241836,0.19836728465702436,0.16784924086368846,-1.2054627298390415
1684782937257816,0.19836728465702436,0.2899214160372594,-1.1749446860455919
1684782937273796,0.3204394598305953,0.38147554741738077,-1.0833905546654705
1684782937289775,0.41199359121083035,0.7171740291447577,-0.93080033569845
1684782937305755,0.6256198977645226,0.8697642481116645,-0.8087281605248791
1684782937321735,0.9613183794918996,0.93080033569845,-0.9918364232852355
1684782937337715,1.2054627298390415,0.6866559853513081,-0.9918364232852355
1684782937353695,1.3580529488059483,0.7476920729380936,-0.7171740291447577
1684782937369674,1.2359807736323773,0.9002822919051141,-0.6561379415579722
1684782937385654,0.9918364232852355,0.9918364232852355,-0.22888532845047393
1684782937401634,0.8697642481116645,0.3204394598305953,-0.5035477225909517
1684782937417614,1.2054627298390415,0.6561379415579722,-0.6561379415579722
1684782937433593,1.1139085984588064,0.6256198977645226,-0.9002822919051141
1684782937449573,0.7782101167315432,0.44251163500416624,-0.93080033569845
1684782937465553,0.6256198977645226,0.6256198977645226,-1.1749446860455919
1684782937481533,0.7782101167315432,0.44251163500416624,-0.93080033569845
1684782937497467,1.0833905546654705,0.6561379415579722,-0.9002822919051141
1684782937513446,1.3580529488059483,1.1139085984588064,-0.7171740291447577
1684782937529425,1.9073777370870175,1.2359807736323773,-0.22888532845047393
1684782937545405,2.30411230640118,1.2054627298390415,-0.22888532845047393
1684782937561384,2.3651483939879654,1.2359807736323773,-0.8087281605248791
1684782937577363,2.2430762188143945,0.8697642481116645,-0.9002822919051141
1684782937593342,1.8158236057068962,-0.045777065690117524,-1.2054627298390415
1684782937609322,1.4496070801861833,0.41199359121083035,-1.144426642252256
1684782937625301,1.6021972991530902,0.5340657663844013,-0.38147554741738077
1684782937641280,1.5106431677729688,1.1139085984588064,-0.22888532845047393
1684782937657260,1.2359807736323773,0.3204394598305953,-0.6866559853513081
1684782937673239,1.022354467078685,0.41199359121083035,-1.2054627298390415
1684782937689218,0.6866559853513081,0.1373311970702389,-1.2359807736323773
1684782937705197,0.6256198977645226,0.3509575036240449,-1.2054627298390415
1684782937721177,0.6561379415579722,0.6256198977645226,-1.1139085984588064
1684782937737156,0.6256198977645226,0.3204394598305953,-1.052872510872021
1684782937753135,0.5951018539711868,0.045777065690117524,-0.9002822919051141
1684782937769115,0.7476920729380936,0.4730296787976158,-1.052872510872021
1684782937785094,0.8392462043183286,0.5951018539711868,-1.022354467078685
1684782937801073,0.8392462043183286,0.5951018539711868,-0.8392462043183286
1684782937816986,0.8087281605248791,0.5645838101777372,-1.0833905546654705
1684782937832965,0.7476920729380936,0.7782101167315432,-1.2970168612191628
1684782937848944,0.8087281605248791,0.9918364232852355,-1.3885709925993979
1684782937864924,0.7171740291447577,0.8392462043183286,-1.266498817425827
1684782937880903,0.5645838101777372,0.8392462043183286,-1.1139085984588064
1684782937896882,0.6561379415579722,0.7171740291447577,-1.0833905546654705
1684782937912861,0.6256198977645226,0.3509575036240449,-1.022354467078685
1684782937928841,0.6561379415579722,0.5645838101777372,-1.2054627298390415
1684782937944820,0.4730296787976158,0.2899214160372594,-1.144426642252256
1684782937960799,0.3509575036240449,0.22888532845047393,-1.1139085984588064
1684782937976779,0.44251163500416624,0.2899214160372594,-1.1139085984588064
1684782937992758,0.4730296787976158,0.5035477225909517,-1.2970168612191628
1684782938008737,0.3509575036240449,0.8697642481116645,-1.5106431677729688
1684782938024716,0.3204394598305953,1.022354467078685,-1.5411612115663047
1684782938040696,0.5035477225909517,1.144426642252256,-1.4190890363927338
1684782938056675,0.5951018539711868,1.052872510872021,-1.144426642252256
1684782938072654,0.5951018539711868,0.7171740291447577,-1.1749446860455919
1684782938088634,0.7171740291447577,0.6866559853513081,-1.2970168612191628
1684782938104613,0.8087281605248791,0.6561379415579722,-1.3885709925993979
1684782938120592,0.7476920729380936,0.8087281605248791,-1.3275349050126124
1684782938136505,0.6256198977645226,1.022354467078685,-1.3885709925993979
1684782938152484,0.41199359121083035,0.8392462043183286,-1.3885709925993979
1684782938168462,0.44251163500416624,0.93080033569845,-1.3580529488059483
1684782938184441,0.5951018539711868,0.8087281605248791,-1.052872510872021
1684782938200420,0.8697642481116645,0.8697642481116645,-1.2359807736323773
1684782938216399,1.022354467078685,0.7782101167315432,-1.2054627298390415
1684782938232378,1.1749446860455919,0.7476920729380936,-1.1139085984588064
1684782938248356,1.266498817425827,0.9002822919051141,-0.8087281605248791
1684782938264335,1.5106431677729688,1.3580529488059483,-0.8392462043183286
1684782938280314,1.5411612115663047,1.3275349050126124,-0.9002822919051141
1684782938296293,1.3580529488059483,1.1139085984588064,-1.0833905546654705
1684782938312272,1.1139085984588064,0.7782101167315432,-1.4496070801861833
1684782938328251,1.144426642252256,0.6256198977645226,-1.5106431677729688
1684782938344229,1.2359807736323773,0.6561379415579722,-1.4190890363927338
1684782938360208,1.7547875181201107,0.7171740291447577,-1.0833905546654705
1684782938376187,1.8158236057068962,0.93080033569845,-1.1139085984588064
1684782938392166,1.968413824673803,0.9002822919051141,-0.9918364232852355
1684782938408145,1.7242694743266611,0.5951018539711868,-1.0833905546654705
1684782938424123,1.8768596932936816,0.6256198977645226,-0.7782101167315432
1684782938440102,2.182040131227609,0.6866559853513081,-0.5645838101777372
1684782938456054,2.2735942626077303,0.8697642481116645,-0.3204394598305953
1684782938472033,2.3956664377813013,0.8392462043183286,-0.4730296787976158
1684782938488012,2.5177386129548722,0.8697642481116645,-0.5645838101777372
1684782938503991,2.1210040436408235,1.052872510872021,-0.8087281605248791
1684782938519970,1.2970168612191628,0.7782101167315432,-0.9918364232852355
1684782938535948,0.9613183794918996,0.8087281605248791,-1.0833905546654705
1684782938551927,0.9918364232852355,0.6866559853513081,-1.144426642252256
1684782938567906,1.1139085984588064,0.4730296787976158,-1.2054627298390415
1684782938583885,1.0833905546654705,0.2899214160372594,-0.8392462043183286
1684782938599864,1.0833905546654705,0.22888532845047393,-0.6256198977645226
1684782938615842,0.8697642481116645,0.6561379415579722,-0.8697642481116645
1684782938631821,0.8697642481116645,0.6866559853513081,-0.8697642481116645
1684782938647800,1.2359807736323773,0.3204394598305953,-0.6866559853513081
1684782938663779,1.6327153429465397,0.5340657663844013,-0.7782101167315432
1684782938679758,1.9073777370870175,0.93080033569845,-0.9918364232852355
1684782938695737,1.968413824673803,1.0833905546654705,-0.8697642481116645
1684782938711715,1.8158236057068962,0.9613183794918996,-0.8697642481116645
1684782938727694,1.6632333867398756,1.0833905546654705,-0.8697642481116645
1684782938743673,1.6021972991530902,0.8697642481116645,-0.8087281605248791
1684782938759652,1.3580529488059483,0.5645838101777372,-0.19836728465702436
1684782938775573,1.2970168612191628,0.2899214160372594,-0.16784924086368846
1684782938791552,0.8087281605248791,0.6561379415579722,-0.8392462043183286
1684782938807531,0.2594033722438098,0.7782101167315432,-1.4496070801861833
1684782938823510,0.22888532845047393,0.7476920729380936,-1.6937514305333252
1684782938839489,0.5645838101777372,0.5035477225909517,-1.846341649500232
1684782938855467,0.6561379415579722,0.4730296787976158,-2.090485999847374
1684782938871446,0.7171740291447577,0.7782101167315432,-2.2430762188143945
1684782938887425,0.9918364232852355,1.144426642252256,-2.0294499122605885
1684782938903404,1.2054627298390415,0.93080033569845,-1.3885709925993979
1684782938919383,1.846341649500232,1.3275349050126124,-0.9613183794918996
1684782938935361,2.2430762188143945,1.1139085984588064,-1.144426642252256
1684782938951340,2.3956664377813013,0.6561379415579722,-0.6866559853513081
1684782938967319,2.3651483939879654,0.8392462043183286,-0.9613183794918996
1684782938983298,1.937895780880467,0.93080033569845,-0.8087281605248791
1684782938999277,1.5411612115663047,0.8697642481116645,-0.93080033569845
1684782939015256,1.3275349050126124,0.41199359121083035,-0.7782101167315432
1684782939031234,1.3885709925993979,0.3509575036240449,-0.9613183794918996
1684782939047213,1.8158236057068962,0.4730296787976158,-0.8392462043183286
1684782939063192,2.059967956054038,0.9613183794918996,-0.8392462043183286
1684782939079171,2.334630350194516,0.9002822919051141,-0.38147554741738077
1684782939095123,2.4872205691615363,0.9918364232852355,-0.38147554741738077
1684782939111101,2.334630350194516,0.5951018539711868,-0.7476920729380936
1684782939127080,2.426184481574751,0.3204394598305953,-0.41199359121083035
1684782939143058,2.212558175020945,0.8087281605248791,-0.5951018539711868
1684782939159036,1.7242694743266611,1.0833905546654705,-0.3509575036240449
1684782939175015,1.6021972991530902,0.3204394598305953,-0.41199359121083035
1684782939190993,1.7853055619134466,0.6256198977645226,-0.7476920729380936
1684782939206971,5.0202182040130765,3.4332799267566543,-1.6632333867398756
1684782939222950,1.8768596932936816,1.4190890363927338,-0.8392462043183286
1684782939238928,1.9073777370870175,1.3275349050126124,-0.3204394598305953
1684782939254906,1.846341649500232,0.6866559853513081,-0.5645838101777372
1684782939270885,1.7242694743266611,0.6561379415579722,-0.8087281605248791
1684782939286863,1.5716792553597543,0.8087281605248791,-0.9002822919051141
1684782939302841,1.4190890363927338,1.052872510872021,-1.022354467078685
1684782939318820,1.3580529488059483,0.93080033569845,-0.93080033569845
1684782939334798,1.3580529488059483,1.144426642252256,-0.9613183794918996
1684782939350776,1.3275349050126124,0.8697642481116645,-1.2359807736323773
1684782939366755,1.5106431677729688,0.5035477225909517,-1.3885709925993979
1684782939382733,1.8158236057068962,0.7476920729380936,-1.5106431677729688
1684782939398711,1.9073777370870175,0.8697642481116645,-1.022354467078685
1684782939414642,1.6021972991530902,0.8697642481116645,-0.38147554741738077
1684782939430620,1.3275349050126124,1.022354467078685,-0.3509575036240449
1684782939446599,1.266498817425827,1.052872510872021,-0.6866559853513081
1684782939462577,1.1749446860455919,0.8697642481116645,-1.266498817425827
1684782939478555,0.9918364232852355,0.7171740291447577,-1.3275349050126124
1684782939494534,0.8392462043183286,0.5645838101777372,-1.1749446860455919
1684782939510512,0.8087281605248791,1.052872510872021,-1.4190890363927338
1684782939526490,0.5645838101777372,1.1749446860455919,-1.5411612115663047
1684782939542469,0.7171740291447577,0.41199359121083035,-1.0833905546654705
1684782939558447,0.93080033569845,0.8087281605248791,-0.93080033569845
1684782939574425,1.022354467078685,1.052872510872021,-0.9613183794918996
1684782939590404,1.022354467078685,0.9002822919051141,-1.0833905546654705
1684782939606382,0.9613183794918996,0.6561379415579722,-1.2359807736323773
1684782939622360,0.7782101167315432,0.2594033722438098,-1.266498817425827
1684782939638339,0.8697642481116645,0.2899214160372594,-1.1139085984588064
1684782939654317,0.9613183794918996,0.7782101167315432,-1.2359807736323773
1684782939670295,0.8087281605248791,1.0833905546654705,-1.3275349050126124
1684782939686274,0.6866559853513081,0.9613183794918996,-1.2970168612191628
1684782939702252,0.6561379415579722,0.7782101167315432,-1.2359807736323773
1684782939718230,0.6866559853513081,0.8697642481116645,-1.3275349050126124
1684782939734192,0.6561379415579722,0.7782101167315432,-1.3580529488059483
1684782939750170,0.5951018539711868,0.7476920729380936,-1.266498817425827
1684782939766148,0.5951018539711868,0.8697642481116645,-1.2054627298390415
1684782939782127,0.4730296787976158,0.6561379415579722,-1.3275349050126124
1684782939798105,0.5340657663844013,0.44251163500416624,-1.266498817425827
1684782939814083,0.6256198977645226,0.5951018539711868,-1.3275349050126124
1684782939830062,0.3204394598305953,0.4730296787976158,-1.2970168612191628
1684782939846040,0.44251163500416624,0.6256198977645226,-1.3580529488059483
1684782939862018,0.7171740291447577,0.4730296787976158,-0.9613183794918996
1684782939877997,0.9613183794918996,0.93080033569845,-1.022354467078685
1684782939893975,1.1139085984588064,0.9613183794918996,-0.9613183794918996
1684782939909953,1.2359807736323773,0.7476920729380936,-0.9613183794918996
1684782939925932,1.2359807736323773,0.5645838101777372,-0.9918364232852355
1684782939941910,1.2359807736323773,0.5035477225909517,-0.7476920729380936
1684782939957888,1.3580529488059483,0.6256198977645226,-0.5340657663844013
1684782939973867,1.4190890363927338,0.4730296787976158,-0.5340657663844013
1684782939989845,1.3885709925993979,0.2899214160372594,-0.7782101167315432
1684782940005823,0.9918364232852355,0.2594033722438098,-1.052872510872021
1684782940021802,0.6561379415579722,0.41199359121083035,-1.2359807736323773
1684782940037780,0.5645838101777372,0.5340657663844013,-1.2970168612191628
1684782940053741,0.44251163500416624,0.5645838101777372,-1.1749446860455919
1684782940069719,0.41199359121083035,0.6256198977645226,-1.1749446860455919
1684782940085698,0.2594033722438098,0.5340657663844013,-1.2970168612191628
1684782940101676,0.3204394598305953,0.5340657663844013,-1.3275349050126124
1684782940117654,0.19836728465702436,0.2899214160372594,-1.0833905546654705
1684782940133633,0.6561379415579722,0.93080033569845,-1.2054627298390415
1684782940149611,0.7171740291447577,0.8697642481116645,-0.9613183794918996
1684782940165589,0.6866559853513081,0.8697642481116645,-0.9613183794918996
1684782940181568,0.9002822919051141,0.6866559853513081,-0.9002822919051141
1684782940197546,0.93080033569845,0.5951018539711868,-1.266498817425827
1684782940213524,0.8087281605248791,0.3509575036240449,-1.1139085984588064
1684782940229503,0.7782101167315432,0.3204394598305953,-1.022354467078685
1684782940245481,0.7171740291447577,0.5645838101777372,-0.9918364232852355
1684782940261459,0.5951018539711868,0.6866559853513081,-1.2359807736323773
1684782940277438,0.6256198977645226,0.6561379415579722,-1.1749446860455919
1684782940293416,0.5645838101777372,0.5645838101777372,-1.3580529488059483
1684782940309394,0.5035477225909517,0.3509575036240449,-1.1749446860455919
1684782940325373,0.44251163500416624,0.3509575036240449,-1.3275349050126124
1684782940341351,0.5951018539711868,0.5035477225909517,-1.2970168612191628
1684782940357329,0.5340657663844013,0.4730296787976158,-1.1749446860455919
1684782940373260,0.6256198977645226,0.38147554741738077,-0.9918364232852355
1684782940389238,0.6561379415579722,0.6561379415579722,-1.266498817425827
1684782940405216,0.44251163500416624,0.7476920729380936,-1.3580529488059483
1684782940421194,0.106813153276903,0.44251163500416624,-1.3580529488059483
1684782940437172,0.38147554741738077,0.9918364232852355,-1.4496070801861833
1684782940453149,0.2594033722438098,0.7476920729380936,-0.8697642481116645
1684782940469127,0.8087281605248791,0.7476920729380936,-0.8697642481116645
1684782940485105,0.9002822919051141,0.6561379415579722,-0.6866559853513081
1684782940501083,0.7171740291447577,0.1373311970702389,-0.5340657663844013
1684782940517061,0.6561379415579722,-0.22888532845047393,-0.4730296787976158
1684782940533039,0.5035477225909517,-0.3204394598305953,-0.8697642481116645
1684782940549017,0.44251163500416624,-0.22888532845047393,-1.1139085984588064
1684782940564994,0.3509575036240449,0.015259021896667946,-1.1139085984588064
1684782940580972,0.41199359121083035,0.106813153276903,-0.8697642481116645
1684782940596950,0.44251163500416624,0.4730296787976158,-0.8392462043183286
1684782940612928,0.22888532845047393,0.6561379415579722,-1.1139085984588064
1684782940628906,0.38147554741738077,0.6866559853513081,-1.144426642252256
1684782940644884,0.4730296787976158,0.7476920729380936,-1.3885709925993979
1684782940660862,0.5035477225909517,0.6866559853513081,-1.2970168612191628
1684782940676839,0.5645838101777372,0.7476920729380936,-1.266498817425827
1684782940692810,0.5951018539711868,0.8697642481116645,-1.2359807736323773
1684782940708788,0.7171740291447577,0.7476920729380936,-1.2054627298390415
1684782940724765,0.8697642481116645,0.9613183794918996,-1.2970168612191628
1684782940740743,0.9918364232852355,0.7476920729380936,-1.4190890363927338
1684782940756721,0.9613183794918996,0.16784924086368846,-1.052872510872021
1684782940772699,1.266498817425827,0.44251163500416624,-0.8087281605248791
1684782940788677,1.144426642252256,0.015259021896667946,-0.38147554741738077
1684782940804655,1.1749446860455919,0.1373311970702389,-0.07629510948345342
1684782940820633,1.2359807736323773,0.5035477225909517,-0.4730296787976158
1684782940836610,1.3885709925993979,0.5035477225909517,-0.5951018539711868
1684782940852588,1.6327153429465397,1.144426642252256,-0.7171740291447577
1684782940868566,1.6327153429465397,1.9989318684672526,-1.052872510872021
1684782940884544,1.6021972991530902,1.6632333867398756,-0.6866559853513081
1684782940900522,1.3275349050126124,1.2054627298390415,-0.16784924086368846
1684782940916500,-0.44251163500416624,3.372243839169869,-1.3885709925993979
1684782940932478,-0.44251163500416624,4.989700160219741,-2.212558175020945
1684782940948455,-0.19836728465702436,6.637674525062948,-2.7924010070954637
1684782940964433,0.6256198977645226,5.874723430228073,-2.6092927443351073
1684782940980411,0.2899214160372594,5.783169298847952,-2.334630350194516
1684782940996389,2.2430762188143945,4.83710994125272,-2.30411230640118
1684782941012329,4.16571297779808,5.600061036087595,-2.3956664377813013
1684782941028307,6.088349736781879,9.384298466468294,-3.8300144960708167
1684782941044284,8.133058670939135,16.281376363775053,-5.874723430228073
1684782941060262,13.015945677881973,32.42542153047998,1.7547875181201107
1684782941076240,20.06561379415575,30.472266727702618,1.7853055619134466
1684782941092218,18.631265735866236,16.250858319981603,2.426184481574751
1684782941108196,16.98329137102303,16.128786144808032,3.555352101930225
1684782941124174,16.220340276188267,18.35660334172576,0.7476920729380936
1684782941140152,10.330357824063412,14.511329823758274,-2.334630350194516
1684782941156129,18.87541008621338,23.57518883039586,-0.5645838101777372
1684782941172107,10.025177386129485,12.497138933394353,-0.93080033569845
1684782941188085,15.426871137560056,13.534752422369706,3.585870145723675
1684782941204063,3.0365453574426056,13.168535896848994,5.722133211261166
1684782941220041,7.125963225757232,12.558175020981139,3.2806897077897474
1684782941236019,2.426184481574751,10.574502174410554,3.585870145723675
1684782941251997,-0.3509575036240449,1.3275349050126124,2.4872205691615363
1684782941267974,4.623483634699028,-0.07629510948345342,2.7008468757152286
1684782941283952,5.53902494850081,-2.2430762188143945,2.6703288319218927
1684782941299930,5.53902494850081,-2.853437094682249,3.585870145723675
1684782941315908,4.226749065384865,-6.942854962996876,8.285648889906156
1684782941331878,6.9733730067902115,-7.003891050583661,20.92011902037075
1684782941347856,2.334630350194516,-18.08194094758528,18.72281986724647
1684782941363834,0.7782101167315432,-16.89173723964302,16.098268101014696
1684782941379812,2.4872205691615363,-15.36583504997327,14.755474174105416
1684782941395790,4.379339284351886,-7.522697795071281,12.344548714427333
1684782941411768,8.22461280231937,-10.543984130617218,17.990386816205046
1684782941427745,4.440375371938671,-17.715724422064568,20.92011902037075
1684782941443723,-1.9073777370870175,-29.739833676661306,27.176317998016202
1684782941459701,-27.512016479743693,-57.3586633096819,35.26359960326545
1684782941475679,-37.06416418707556,-109.63607232776383,41.97756923781185
1684782941491657,-48.08117799649051,-160.05188067444874,45.82284275577945
1684782941507635,-60.47150377660796,-171.98443579766547,41.82497901884494
1684782941523613,-53.97116044861525,-122.85038529030294,26.443884946974777
1684782941539590,-37.49141680018306,-59.55596246280618,9.170672159914488
1684782941555568,4.074158846417959,-0.2899214160372594,8.194094758525921
1684782941571546,38.95628290226614,35.29411764705901,13.931486991683755
1684782941587524,50.644693675135386,66.17837796597246,19.180590524147306
1684782941603502,38.162813763637814,110.79575799191275,12.741283283741495
1684782941619480,34.0733958953233,95.99450675211733,1.052872510872021
1684782941635458,5.783169298847952,23.910887312123236,-7.675288014038301
1684782941651397,-17.53261615930421,-19.546807049668132,-8.010986495765565
1684782941667375,5.600061036087595,7.431143663691159,-8.62134737163342
1684782941683353,56.870374608987504,54.551003280689656,-29.221026932173686
1684782941699331,1.9989318684672526,21.28633554589146,-32.60852979324022
1684782941715309,-9.903105210955914,-0.106813153276903,-29.43465323872738
1684782941731287,22.598611429007292,22.171358815899794,-16.159304188601595
1684782941747264,7.461661707484495,3.8605325398641526,-2.426184481574751
1684782941763242,-1.9073777370870175,-1.8158236057068962,-1.7853055619134466
1684782941779220,2.1210040436408235,9.56740672922865,-6.942854962996876
1684782941795198,5.264362554360218,10.11673151750972,-10.08621347371627
1684782941811176,0.6866559853513081,9.384298466468294,-10.238803692683291
1684782941827154,-4.684519722285813,2.3651483939879654,-11.245899137865194
1684782941843132,-5.569542992294146,-0.38147554741738077,-10.421911955443647
1684782941859110,-2.6092927443351073,-4.440375371938671,-5.691615167467717
1684782941875087,-7.888914320591994,-12.863355458915066,0.8697642481116645
1684782941891065,-5.966277561608308,-9.170672159914488,2.548256656748322
1684782941907043,-0.2899214160372594,-4.013122758831173,4.043640802624509
1684782941923021,0.19836728465702436,-2.212558175020945,2.212558175020945
1684782941938999,0.9918364232852355,0.106813153276903,0.6256198977645226
1684782941954977,0.7476920729380936,-0.93080033569845,1.5411612115663047
1684782941970916,2.7924010070954637,-4.989700160219741,6.790264744029855
1684782941986894,0.4730296787976158,-12.069886320286855,11.703669794766142
1684782942002871,0.41199359121083035,-11.001754787518053,11.520561532005786
1684782942018849,-0.5340657663844013,-2.334630350194516,3.341725795376533
1684782942034826,0.7782101167315432,4.226749065384865,-2.548256656748322
1684782942050803,2.9449912260623705,-0.106813153276903,0.8087281605248791
1684782942066781,0.9613183794918996,-5.661097123674381,3.8605325398641526
1684782942082758,-0.5035477225909517,-1.9073777370870175,0.4730296787976158
1684782942098735,2.059967956054038,2.7008468757152286,-1.937895780880467
1684782942114713,1.4801251239795192,-0.2899214160372594,-0.5340657663844013
1684782942130690,0.19836728465702436,-1.5716792553597543,-0.07629510948345342
1684782942146668,1.846341649500232,1.6632333867398756,-1.022354467078685
1684782942162645,1.1749446860455919,2.639810788128443,-2.3651483939879654
1684782942178622,1.144426642252256,1.5106431677729688,-1.9073777370870175
1684782942194600,1.3580529488059483,0.5951018539711868,-1.052872510872021
1684782942210577,1.5106431677729688,1.968413824673803,-2.5177386129548722
1684782942226554,3.677424277103796,4.898146028839506,-3.555352101930225
1684782942242532,3.8300144960708167,3.3112077515830833,-2.853437094682249
1684782942258509,1.4496070801861833,4.592965590905578,-5.53902494850081
1684782942274487,2.4567025253680868,7.614251926451516,-7.0954451819637825
1684782942290435,3.6469062333104603,3.799496452277367,-2.883955138475585
1684782942306413,0.44251163500416624,-3.5248340581368893,0.44251163500416624
1684782942322390,1.052872510872021,-0.9613183794918996,-0.5340657663844013
1684782942338368,1.6632333867398756,3.0670634012359415,-2.97550926985582
1684782942354345,-0.93080033569845,-0.7171740291447577,-2.212558175020945
1684782942370322,-0.1373311970702389,-1.2054627298390415,-0.1373311970702389
1684782942386300,0.93080033569845,1.937895780880467,-1.7853055619134466
1684782942402277,-0.2899214160372594,1.4190890363927338,-3.6469062333104603
1684782942418254,1.3885709925993979,2.212558175020945,-2.639810788128443
1684782942434232,0.9613183794918996,0.6256198977645226,-1.3275349050126124
1684782942450209,-1.7242694743266611,-2.6092927443351073,-1.2970168612191628
1684782942466187,2.5177386129548722,1.7853055619134466,-2.2735942626077303
1684782942482164,4.379339284351886,0.22888532845047393,-1.9989318684672526
1684782942498141,-0.8087281605248791,-3.341725795376533,-0.5645838101777372
1684782942514119,0.2899214160372594,0.8697642481116645,-1.7547875181201107
1684782942530096,0.16784924086368846,3.891050583657602,-3.677424277103796
1684782942546074,-0.3509575036240449,2.212558175020945,-3.1586175326161765
1684782942562051,-0.2899214160372594,-0.4730296787976158,-1.6937514305333252
1684782942578028,1.8768596932936816,2.30411230640118,-1.7547875181201107
1684782942594006,-0.7782101167315432,-0.5340657663844013,-2.4872205691615363
1684782942609985,1.968413824673803,2.30411230640118,-1.6937514305333252
1684782942625962,0.7782101167315432,2.182040131227609,-2.761882963302014
1684782942641940,-0.41199359121083035,0.9613183794918996,-3.250171663996298
1684782942657917,1.7547875181201107,4.1046768902112944,-3.6163881895170107
1684782942673895,0.6561379415579722,3.1891355764095124,-3.8605325398641526
1684782942689872,0.3509575036240449,2.426184481574751,-3.6163881895170107
1684782942705849,1.3885709925993979,2.9449912260623705,-3.250171663996298
1684782942721827,1.144426642252256,2.4567025253680868,-2.639810788128443
1684782942737804,-0.6561379415579722,-1.6632333867398756,-0.6561379415579722
1684782942753781,0.5340657663844013,-1.0833905546654705,0.3509575036240449
1684782942769759,0.045777065690117524,-0.16784924086368846,-0.9918364232852355
1684782942785736,0.5340657663844013,0.8697642481116645,-1.7853055619134466
1684782942801714,-0.106813153276903,-3.3112077515830833,0.7171740291447577
1684782942817691,1.144426642252256,0.41199359121083035,-0.44251163500416624
1684782942833668,-0.106813153276903,1.1139085984588064,-3.128099488822727
1684782942849646,2.4872205691615363,5.172808422980097,-3.8300144960708167
1684782942865623,1.2359807736323773,3.1586175326161765,-3.128099488822727
1684782942881600,-0.6866559853513081,-0.2899214160372594,-2.3956664377813013
1684782942897578,0.22888532845047393,0.9918364232852355,-2.3956664377813013
1684782942913555,0.5035477225909517,2.3956664377813013,-2.761882963302014
1684782942929504,0.015259021896667946,0.4730296787976158,-1.7242694743266611
1684782942945481,-0.6561379415579722,0.41199359121083035,-2.548256656748322
1684782942961459,1.0833905546654705,2.2430762188143945,-2.7008468757152286
1684782942977436,0.93080033569845,-0.5951018539711868,-0.7171740291447577
1684782942993414,1.144426642252256,-0.3509575036240449,-0.3509575036240449
1684782943009391,1.266498817425827,0.9918364232852355,-1.2970168612191628
1684782943025368,1.5716792553597543,0.5645838101777372,-0.8697642481116645
1684782943041346,0.7171740291447577,-0.106813153276903,-1.2054627298390415
1684782943057323,2.3651483939879654,2.1210040436408235,-1.6937514305333252
1684782943073300,1.3885709925993979,0.8697642481116645,-2.212558175020945
1684782943089278,1.6021972991530902,2.059967956054038,-2.334630350194516
1684782943105255,0.8697642481116645,1.846341649500232,-2.8229190508887996
1684782943121233,1.3580529488059483,1.5106431677729688,-1.8768596932936816
1684782943137210,0.8087281605248791,0.38147554741738077,-1.266498817425827
1684782943153187,-0.045777065690117524,-0.3509575036240449,-2.0294499122605885
1684782943169165,0.8392462043183286,0.9613183794918996,-2.4567025253680868
1684782943185142,-0.19836728465702436,1.266498817425827,-3.6163881895170107
1684782943201120,-0.106813153276903,2.0294499122605885,-3.6469062333104603
1684782943217097,1.7242694743266611,3.1586175326161765,-2.6092927443351073
1684782943233074,1.4190890363927338,1.5106431677729688,-1.9073777370870175
1684782943249054,1.7242694743266611,2.212558175020945,-2.9449912260623705
1684782943265031,2.761882963302014,2.9449912260623705,-2.9144731822690346
1684782943281008,-0.2594033722438098,-0.07629510948345342,-2.0294499122605885
1684782943296986,-0.045777065690117524,-1.2970168612191628,-1.7547875181201107
1684782943312963,1.4190890363927338,-0.015259021896667946,-1.144426642252256
1684782943328940,0.19836728465702436,-1.8768596932936816,-0.7171740291447577
1684782943344918,0.3509575036240449,-1.2054627298390415,-0.7782101167315432
1684782943360895,2.2735942626077303,0.44251163500416624,-0.3509575036240449
1684782943376873,3.8300144960708167,-0.16784924086368846,1.7853055619134466
1684782943392850,2.9449912260623705,-2.731364919508678,4.257267109178315
1684782943408827,2.9144731822690346,-4.684519722285813,7.1869993133440175
1684782943424805,-1.5716792553597543,-10.696574349584125,8.255130846112706
1684782943440782,-4.257267109178315,-18.75333791103992,11.642633707179357
1684782943456760,-3.5248340581368893,-15.060654612039343,9.99465934233615
1684782943472737,6.21042191195545,-10.482948043030433,7.034409094376997
1684782943488714,9.475852597848416,-15.487907225146841,15.2437628747997
1684782943504692,10.177767605096506,-27.512016479743693,26.718547341115254
1684782943520669,16.6781109330891,-38.5900663767452,38.13229571984448
1684782943536646,10.177767605096506,-53.54390783550775,45.578698405432306
1684782943552624,7.156481269550568,-61.53963530937665,39.16990920881972
1684782943568573,9.109636072327703,-52.65888456549942,33.92080567635617
1684782943584550,-4.348821240558436,-66.84977492942699,23.941405355916572
1684782943600527,20.157167925535873,-72.67872129396505,36.20965896086068
1684782943616505,10.696574349584125,-97.42885481040662,40.329594872968755
1684782943632482,-11.184863050278409,-118.76096742198831,43.717097734035406
1684782943648460,-26.962691691462624,-111.52819104295418,39.84130617227447
1684782943664437,-28.000305180437977,-91.72198062104223,28.91584649423953
1684782943680414,-24.399176012817634,-71.0002288853284,14.877546349278987
1684782943696392,-28.519111924925596,-57.175555046921545,3.097581445029391
1684782943712369,-37.308308537422704,-53.29976348516061,-7.522697795071281
1684782943728346,-35.019455252918306,-38.1628137636377,-7.614251926451516
1684782943744324,-30.22812237735559,-38.925764858472576,-0.19836728465702436
1684782943760301,-33.58510719462879,-40.817883573662925,5.2338445105668825
1684782943776279,-38.04074158846413,-33.676661326009025,8.010986495765565
1684782943792256,-53.33028152895406,-23.819333180743115,1.4496070801861833
1684782943808233,-35.08049134050509,-5.9357595178148586,2.6092927443351073
1684782943824211,-26.44388494697489,18.081940947585167,6.912336919203426
1684782943840188,-32.05920500495915,38.19333180743115,16.281376363775053
1684782943856166,-18.6617837796598,54.306858930342514,36.942092011902105
1684782943872143,-2.182040131227609,60.379949645227725,78.5687037460898
1684782943888122,8.89600976577401,46.00595101853969,129.13710231174173
1684782943904100,49.91226062409396,54.58152132448322,147.41741054398403
1684782943920077,67.61272602426175,51.346608682383476,170.97734035248345
1684782943936054,3.1586175326161765,0.3509575036240449,214.923323414969
1684782943952032,-18.387121385519208,-25.741969939726914,205.09651331349664
1684782943968009,-54.581521324483106,-50.003814755474195,214.83176928358876
1684782943983986,-18.142977035172066,11.001754787518053,210.37613488975353
1684782943999964,-52.81147478446633,-41.64187075608447,216.5712977798123
1684782944015941,-12.52765697718769,-74.96757457846945,224.13977264057394
1684782944031919,22.26291294728003,-48.020141908903724,204.24200808728165
1684782944047896,-47.53185320820944,-24.734874494544897,217.7004654001678
1684782944063873,-37.00312809948878,-1.1749446860455919,227.71038376440083
1684782944079851,-13.382162203402686,8.987563897154132,231.31151293202106
1684782944095828,4.348821240558436,17.715724422064454,254.93247882810715
1684782944111806,18.173495078965402,9.903105210955914,259.1134508278019
1684782944127783,37.125200274662575,18.417639429312544,251.3923857480736
1684782944143760,63.584344243533906,32.394903486686644,241.474021515221
1684782944159738,37.27779049362948,30.289158464942375,197.74166475928882
1684782944175715,34.683756771191156,51.346608682383476,174.1512169069963
1684782944191692,4.623483634699028,46.616311894407545,151.90356298161282
1684782944207641,-45.67025253681231,-0.44251163500416624,136.52246890974288
1684782944223619,-88.15136949721523,-72.86182955672541,130.84611276417172
1684782944239596,-82.84122987716489,-122.20950637064163,125.4749370565346
1684782944255573,-16.64759288929588,-42.679484245059825,79.75890745403217
1684782944271551,2.30411230640118,-22.507057297627284,31.357289997711177
1684782944287528,-27.969787136644527,-85.67940794995047,73.7163347829403
1684782944303506,-50.40054932478836,-86.28976882581833,123.09452964065008
1684782944319483,-88.36499580376903,-88.09033340962844,162.12710765239967
1684782944335460,-73.10597390707255,-73.38063630121303,207.44640268558783
1684782944351438,-26.535439078355125,-15.609979400320412,211.07804989700162
1684782944367415,-66.63614862287329,-28.427557793545475,105.36354619668896
1684782944383392,-87.02220187685975,8.438239108873063,10.971236743724717
1684782944399370,-91.8440527962158,16.098268101014696,-34.65323872739759
1684782944415347,-76.09674219882504,43.04570077058065,-48.111696040283846
1684782944431325,-67.002365148394,45.48714427405207,-67.58220798046841
1684782944447302,-52.0790417334249,59.98321507591368,-73.89944304570076
1684782944463279,-61.81429770351724,49.72915236133372,-77.5005722133211
1684782944479257,-82.68863965819799,57.60280766002893,-82.59708552681775
1684782944495234,-94.07186999313342,88.3649958037688,-114.73258564126047
1684782944511211,-93.58358129243913,89.86037994964522,-160.81483176928361
1684782944527160,-71.2138551918822,112.71839475089655,-210.22354467078662
1684782944543137,-49.94277866788741,125.93270771343555,-246.63157091630433
1684782944559114,-31.082627603570586,135.08812085145337,-255.7564660105287
1684782944575091,-43.13725490196077,103.80712596322587,-227.03898680094608
1684782944591068,-36.087586785686995,76.18829633020528,-178.2101167315176
1684782944607045,-31.81506065461201,59.89166094453344,-128.4657053482872
1684782944623022,-44.54108491645684,21.072709239337655,-83.75677119096667
1684782944638999,-45.48714427405196,37.39986266880305,-65.96475165941865
1684782944654976,-36.57587548638128,74.75394827191576,-73.59426260776684
1684782944670952,-40.817883573662925,95.75036240177019,-85.61837186236369
1684782944686929,-54.12375066758227,75.42534523537029,-79.54528114747848
1684782944702906,-67.39909971770805,35.44670786602592,-45.151445792324694
1684782944718883,-79.08751049057764,3.2806897077897474,-15.732051575494097
1684782944734860,-61.35652704661629,-8.89600976577401,3.4332799267566543
1684782944750837,-41.42824444953078,-17.654688334477783,7.034409094376997
1684782944766814,-23.392080567635617,18.72281986724647,-22.354467078660264
1684782944782791,-24.58228427557799,56.07690547035941,-60.502021820401296
1684782944798768,-33.43251697566188,89.46364538033095,-80.97962920576799
1684782944814745,-14.54184786755161,116.31952391851678,-68.19256885633627
1684782944830721,-22.354467078660264,111.07042038605323,-64.25574120698866
1684782944846710,-28.702220187685953,79.20958266575099,-44.96833752956434
1684782944862687,-11.917296101319835,49.63759822995348,-13.717860685130063
1684782944878664,-18.50919356069278,-36.57587548638128,24.460212100404306
1684782944894641,-31.296253910124392,-92.9121843289845,42.61844815747327
1684782944910617,-54.91721980621048,-92.57648584725723,33.798733501182596
1684782944926594,-76.73762111848623,-58.76249332417797,7.949950408178779
1684782944942571,-91.99664301518271,-5.50850690470736,-17.257953765163734
1684782944958548,-70.29831387808042,21.530479896238603,-26.626993209735247
1684782944974525,-25.92507820248727,41.550316624704465,-25.92507820248727
1684782944990502,-2.6703288319218927,15.274280918593035,-13.19905394064233
1684782945006479,9.597924773021987,-23.178454261081924,3.2806897077897474
1684782945022456,10.025177386129485,-54.8561837186237,14.908064393072323
1684782945038433,24.216067750057164,-61.90585183489736,30.746929121843095
1684782945054410,53.72701609826822,-53.788052185854895,41.85549706263828
1684782945070387,63.27916380560009,-17.86831464103159,38.31540398260472
1684782945086363,84.76386663614858,31.32677195391784,49.942778667887524
1684782945102340,51.37712672617681,-3.0670634012359415,65.69008926527817
1684782945118317,-8.163576714732585,-58.06057831692988,64.10315098802175
1684782945134294,-27.725642786297385,-57.145037003128095,51.987487602044666
1684782945150271,-32.05920500495915,-31.14366369115737,34.98893720912497
1684782945166229,5.53902494850081,-3.9826047150377235,35.44670786602592
1684782945182206,30.59433890287619,-2.548256656748322,35.721370260166395
1684782945198183,16.128786144808032,-9.56740672922865,4.226749065384865
1684782945214160,29.922941939421662,23.666742961776094,-21.683070115205624
1684782945230136,39.53612573434043,35.38567177843902,-24.3076218814374
1684782945246113,37.55245288776996,15.732051575493983,-6.0578316929884295
1684782945262090,45.76180666819255,14.938582436865772,6.21042191195545
1684782945278067,41.09254596780352,7.40062561989771,2.9449912260623705
1684782945294044,23.636224917982645,-18.570229648279565,-4.409857328145222
1684782945310021,28.763256275272624,-18.722819867246585,-4.898146028839506
1684782945325998,30.533302815289517,-7.339589532310924,-9.872587167162578
1684782945341975,51.25505455100324,19.607843137254804,-8.438239108873063
1684782945357952,43.930724040588984,2.5787747005416577,14.969100480659108
1684782945373929,-2.6703288319218927,-46.7994201571679,20.737010757610392
1684782945389906,8.651865415426869,-18.875410086213492,8.010986495765565
1684782945405882,28.21393148699167,24.612802319371212,-8.438239108873063
1684782945421859,21.16426337071789,20.8896009765773,-14.175631342030897
1684782945437836,12.222476539253762,17.34950789654374,-12.52765697718769
1684782945453813,13.443198290989471,16.281376363775053,-10.971236743724717
1684782945469790,9.811551079575793,17.532616159304098,-12.069886320286855
1684782945485778,7.644769970244852,9.750514991989007,-10.879682612344482
1684782945501755,6.21042191195545,4.928664072632955,-8.74341954680699
1684782945517732,15.2437628747997,9.56740672922865,-5.386434729533789
1684782945533709,9.536888685435201,0.5951018539711868,-0.38147554741738077
1684782945549686,-4.83710994125272,-8.957045853360796,6.393530174715806
1684782945565663,-6.912336919203426,-15.182726787212914,11.947814145113284
1684782945581640,-18.356603341725872,-22.69016556038764,8.560311284046634
1684782945597617,-0.7171740291447577,-17.715724422064568,14.358739604791253
1684782945613594,8.438239108873063,-10.940718699931267,16.43396658274196
1684782945629571,-9.140154116121153,-26.626993209735247,10.574502174410554
1684782945645547,3.1891355764095124,-27.450980392156907,8.74341954680699
1684782945661524,-1.266498817425827,-22.69016556038764,-0.015259021896667946
1684782945677501,0.5035477225909517,-13.046463721675423,-4.287785152971651
1684782945693478,-6.424048218509142,-10.605020218204004,-6.1493858243686645
1684782945709455,-21.31685358968491,-13.260090028229115,-8.712901503013654
1684782945725432,-6.576638437476163,3.5248340581368893,-11.215381094071859
1684782945741409,-6.88181887541009,3.0365453574426056,-13.534752422369706
1684782945757386,1.2054627298390415,5.752651255054502,-16.403448538948737
1684782945773363,11.97833218890662,-7.888914320591994,-21.43892576485848
1684782945789340,6.759746700236519,-33.43251697566188,-24.643320363164776
1684782945805297,8.316166933699492,-21.10322728313122,-36.331731136034136
1684782945821274,13.260090028229115,1.1139085984588064,-50.125886930647766
1684782945837251,17.34950789654374,23.392080567635503,-54.032196536202036
1684782945853228,17.92935072861826,31.14366369115737,-45.33455405508505
1684782945869205,3.921568627450938,11.367971313038765,-29.739833676661306
1684782945885182,2.97550926985582,-12.00885023270007,-17.257953765163734
1684782945901159,14.114595254444112,-22.903791866941333,-22.323949034866928
1684782945917136,35.53826199740615,-10.971236743724717,-31.876096742198797
1684782945933113,24.460212100404306,-9.41481651026163,-50.705729762722285
1684782945949090,15.182726787212914,6.698710612649734,-59.09819180590523
1684782945965067,19.333180743114326,31.60143434805832,-56.2905317769131
1684782945981043,18.6007476920729,40.970473792629946,-38.773174639505555
1684782945997020,18.631265735866236,33.92080567635617,-18.142977035172066
1684782946012997,23.758297093156216,17.92935072861826,0.1373311970702389
1684782946028974,34.378576333257115,-3.677424277103796,11.123826962691624
1684782946044951,13.504234378576257,-43.04570077058054,16.922255283436243
1684782946060928,22.995345998321454,-27.756160830090835,13.504234378576257
1684782946076905,5.2338445105668825,-19.760433356221938,-8.010986495765565
1684782946092882,-3.006027313649156,0.9613183794918996,-31.14366369115737
1684782946108859,1.6327153429465397,28.519111924925483,-49.60708018616015
1684782946124817,-4.1046768902112944,23.086900129701576,-43.106736858167324
1684782946140793,-4.226749065384865,31.0215915159838,-34.16495002670331
1684782946156770,7.827878233005208,28.488593881132147,-19.028000305180512
1684782946172747,11.825741969939713,11.215381094071859,-10.543984130617218
1684782946188724,-17.41054398413064,-1.3275349050126124,-15.091172655832679
1684782946204701,4.1046768902112944,27.420462348363344,-14.633401998931845
1684782946220678,-4.501411459525457,28.244449530785005,-20.065613794155865
1684782946236655,-27.6646066987106,13.626306553749828,-19.150072480354083
1684782946252632,-3.097581445029391,34.40909437705045,-2.731364919508678
1684782946268609,-0.6256198977645226,9.597924773021987,23.758297093156216
1684782946284586,1.9073777370870175,-11.947814145113284,38.04074158846424
1684782946300562,7.980468451972229,-17.53261615930421,36.05706874189377
1684782946316539,1.937895780880467,-2.9449912260623705,16.43396658274196
1684782946332516,-2.639810788128443,17.80727855344469,-4.745555809872599
1684782946348493,-4.806591897459384,16.15930418860148,-7.125963225757232
1684782946364470,4.379339284351886,13.35164415960935,4.287785152971651
1684782946380447,1.2970168612191628,-0.045777065690117524,22.415503166246936
1684782946396424,15.640497444113748,-35.019455252918306,29.282063019760244
1684782946412401,21.83566033417253,-32.76112001220724,41.73342488746471
1684782946428378,21.438925764858368,-31.14366369115737,54.45944914930965
1684782946444336,14.54184786755161,-20.279240100709558,53.54390783550775
1684782946460312,4.013122758831173,-2.731364919508678,36.240177004654015
1684782946476289,2.1515220874341594,15.36583504997327,25.77248798352025
1684782946492266,-5.142290379186647,17.624170290684333,17.77676050965124
1684782946508243,-5.1117723353933116,1.9989318684672526,25.741969939726687
1684782946524220,-2.6703288319218927,-7.55321583886473,36.45380331120782
1684782946540197,9.99465934233615,-13.687342641336613,51.071946288243
1684782946556174,-3.463797970550104,-37.24727244983592,56.534676127260354
1684782946572151,-12.80231937132828,-40.57373922331578,56.16845960173964
1684782946588128,-25.77248798352025,-60.83772030212867,57.48073548485536
1684782946604105,-25.711451895933465,-42.43533989471268,58.5793850614175
1684782946620082,-24.521248187991205,-17.105363546196713,50.37003128099491
1684782946636058,-24.97901884489204,-7.797360189211872,37.94918745708401
1684782946652035,-27.11528191042953,-14.54184786755161,14.69443808651863
1684782946668012,-29.465171282520828,-30.50278477149618,1.2970168612191628
1684782946683989,-32.60852979324022,-21.34737163347836,-18.020904859998495
1684782946699966,-19.516289005874796,-1.1139085984588064,-24.368657969024184
1684782946715943,-10.360875867856862,1.5716792553597543,-11.42900740062555
1684782946731920,-13.626306553749828,-18.63126573586635,10.879682612344482
1684782946747897,-17.807278553444803,-23.849851224536565,23.239490348668596
1684782946763885,-19.88250553139551,-35.62981612878616,35.26359960326545
1684782946779862,-20.584420538643485,-46.066987106126476,45.975432974746354
1684782946795839,-13.107499809262208,-37.94918745708401,50.61417563134205
1684782946811816,-7.1869993133440175,-24.58228427557799,43.16777294575422
1684782946827793,-8.1025406271458,-8.163576714732585,25.314717326619302
1684782946843770,-10.452429999236983,13.076981765468759,3.891050583657602
1684782946859747,-15.487907225146841,24.88746471351169,-8.407721065079727
1684782946875723,-21.07270923933777,24.704356450751447,-5.661097123674381
1684782946891700,-13.748378728923399,17.410543984130527,14.480811779964824
1684782946907677,-10.147249561303056,5.1117723353933116,36.08758678568711
1684782946923654,1.8768596932936816,10.299839780270077,45.02937361715112
1684782946939631,15.976195925841125,19.455252918287897,43.22880903334112
1684782946955608,14.084077210650776,21.896696421759316,36.51483939879472
1684782946971585,14.57236591134506,32.18127718013284,19.485770962081233
1684782946987562,-7.1869993133440175,10.330357824063412,-5.386434729533789
1684782947003539,10.78812848096436,25.314717326619302,-19.943541618982294
1684782947019516,11.734187838559478,12.497138933394353,-19.272144655527654
1684782947035493,19.882505531395395,14.480811779964824,-14.419775692378039
1684782947051469,33.0052643625545,16.098268101014696,-4.83710994125272
1684782947067446,25.131609063858832,-1.7242694743266611,5.722133211261166
1684782947083404,25.46730754558621,7.583733882658066,7.431143663691159
1684782947099381,12.405584802014118,4.623483634699028,9.262226291294724
1684782947115358,5.569542992294146,12.375066758220783,8.255130846112706
1684782947131335,-1.6937514305333252,13.656824597543277,0.44251163500416624
1684782947147312,0.2899214160372594,1.9989318684672526,-5.355916685740453
1684782947163289,7.248035400930803,-7.492179751277945,-3.4027618829633184
1684782947179266,20.828564888990513,1.4801251239795192,3.555352101930225
1684782947195243,16.98329137102303,-5.142290379186647,8.316166933699492
1684782947211219,19.089036392767184,-0.8392462043183286,7.949950408178779
1684782947227196,17.074845502403264,-1.7547875181201107,9.750514991989007
1684782947243173,14.328221560997918,-10.11673151750972,14.084077210650776
1684782947259150,12.619211108567924,-24.277103837644063,10.177767605096506
1684782947275127,14.267185473411132,-32.211795223926174,7.064927138170447
1684782947291104,10.78812848096436,-48.35584039063099,4.745555809872599
1684782947307081,8.529793240253298,-70.60349431601435,-4.776073853665935
1684782947323058,19.485770962081233,-29.373617151140593,-17.776760509651353
1684782947339035,23.02586404211479,-4.623483634699028,-28.122377355611548
1684782947355012,14.358739604791253,-4.257267109178315,-25.711451895933465
1684782947370988,11.85626001373305,9.44533455405508,-20.920119020370862
1684782947386965,7.827878233005208,2.6092927443351073,-9.56740672922865
1684782947402954,4.470893415732007,-4.501411459525457,2.4567025253680868
1684782947418931,13.260090028229115,5.172808422980097,4.928664072632955
1684782947434908,12.436102845807568,-3.250171663996298,1.846341649500232
1684782947450884,21.16426337071789,-11.215381094071859,3.8605325398641526
1684782947466861,1.6327153429465397,-10.910200656137931,6.21042191195545
1684782947482838,7.583733882658066,1.968413824673803,4.531929503318793
1684782947498815,-1.9073777370870175,7.003891050583661,-1.9989318684672526
1684782947514792,0.16784924086368846,17.80727855344469,-8.041504539559014
1684782947530769,4.86762798504617,23.544670786602524,-10.543984130617218
1684782947546746,2.4567025253680868,11.245899137865194,-10.08621347371627
1684782947562723,5.0202182040130765,11.97833218890662,-13.656824597543277
1684782947578700,5.905241474021523,19.24162661173409,-18.570229648279565
1684782947594677,7.583733882658066,10.11673151750972,-14.297703517204468
1684782947610654,1.9073777370870175,-8.346684977492941,-10.818646524757696
1684782947626630,11.97833218890662,-10.482948043030433,-17.86831464103159
1684782947642607,21.316853589684797,5.9357595178148586,-29.221026932173686
1684782947658584,46.799420157168015,56.32104982070655,-47.16563668268873
1684782947674561,45.91439688715968,75.18120088502315,-54.032196536202036
1684782947690538,31.174181734950707,50.73624780651562,-49.66811627374693
1684782947706515,15.579461356526963,30.411230640115946,-52.689402609292756
1684782947722473,18.35660334172576,24.460212100404306,-68.16205081254293
1684782947738450,13.87045090409697,35.69085221637306,-89.52468146791796
1684782947754427,23.758297093156216,54.093232623788936,-106.88944838635837
1684782947770403,35.38567177843902,80.58289463645383,-118.1811245899138
1684782947786380,36.69794766155496,67.70428015564198,-104.38696879530016
1684782947802357,12.64972915236126,41.70290684367137,-77.37850003814754
1684782947818334,-11.581597619592571,9.689478904402222,-39.53612573434043
1684782947834311,-25.68093385214013,-11.459525444419,-1.5106431677729688
1684782947850288,-33.98184176394295,-20.309758144503007,23.514152742809074
1684782947866265,-24.3076218814374,-6.027313649195094,43.83916990920898
1684782947882242,-31.113145647364036,-12.497138933394353,53.086137178606805
1684782947898219,-33.798733501182596,-1.2359807736323773,59.678034637979636
1684782947914196,-25.070572976272274,30.89951934081023,85.03852903028906
1684782947930173,-62.63828488593879,4.3183031967651,97.1847104600597
1684782947946149,-93.18684672312509,-25.34523537041275,100.32806897077899
1684782947962126,-81.16273746852835,-18.295567254139087,119.34081025406272
1684782947978103,-104.66163118944075,-82.13931486991692,151.8120088502326
1684782947994080,-124.13214312962543,-158.40390630960553,183.21507591363388
1684782948010057,-127.06187533379114,-174.18173495078975,207.96520943007545
1684782948026034,-115.00724803540095,-153.21583886472877,190.5699244678417
1684782948042022,-71.67162584878304,-68.43671320668341,113.29823758297107
1684782948057999,-47.53185320820944,-3.4027618829633184,49.39345387960634
1684782948073976,-68.34515907530329,-36.17914091706723,16.495002670328745
1684782948089953,-85.00801098649583,-65.65957122148473,12.405584802014118
1684782948105930,-76.95124742504004,-60.379949645227725,38.31540398260472
1684782948121907,-69.565880827039,-47.7149614709698,47.2877088578623
1684782948137884,-35.019455252918306,-26.688029297322032,62.97398336766605
1684782948153861,1.937895780880467,-15.732051575494097,61.44808117799653
1684782948169838,23.483634699015738,14.053559166857326,44.937819485771115
1684782948185814,14.633401998931845,30.624856946669524,28.45807583733881
1684782948201791,-15.274280918593035,-0.4730296787976158,5.081254291599862
1684782948217768,-3.341725795376533,16.128786144808032,2.059967956054038
1684782948233745,1.8768596932936816,16.55603875791553,-1.3885709925993979
1684782948249722,-19.72991531242849,-30.594338902876302,-23.33104448004883
1684782948265699,-28.702220187685953,-6.942854962996876,-40.024414435034714
1684782948281676,-41.12306401159685,20.248722056916108,-32.91371023117415
1684782948297653,-57.297627222095116,15.335317006179821,-19.21110856794087
1684782948313630,-71.67162584878304,2.5177386129548722,-20.279240100709558
1684782948329607,-75.57793545433731,6.363012130922357,-32.63904783703367
1684782948345584,-52.32318608377204,24.2465857938505,-30.045014114595233
1684782948361541,-39.93286030365448,13.260090028229115,-9.41481651026163
1684782948377518,-47.440299076829206,1.4190890363927338,19.69939726863504
1684782948393495,-70.3593499656672,-29.5872434576944,54.093232623788936
1684782948409472,-90.59281300068665,-20.584420538643485,83.51262684061953
1684782948425449,-146.04409857328153,15.579461356526963,75.12016479743647
1684782948441426,-187.82330052643624,55.008773937590604,52.628366521706084
1684782948457403,-226.76432440680549,76.61554894331266,40.970473792629946
1684782948473380,-252.85725185015644,52.0790417334249,56.9314106965744
1684782948489357,-214.74021515220875,5.9357595178148586,96.72693980315876
1684782948505334,-137.3159380483711,30.807965209429995,93.88876173037329
1684782948521310,-99.93133440146482,83.75677119096667,42.771038376440174
1684782948537287,-100.0534065766384,96.39124132143138,-4.592965590905578
1684782948553264,-99.50408178835733,88.94483863584333,-43.68657969024184
1684782948569241,-98.1918059052415,107.01152056153205,-85.80148012512404
1684782948585218,-90.80643930724045,97.67299916075399,-69.68795300221257
1684782948601195,-70.17624170290685,15.518425268940177,-38.62058442053865
1684782948617172,-36.66742961776151,-19.33318074311444,-27.054245822842745
1684782948633149,-94.43808651865413,-35.59929808499271,-34.13443198290986
1684782948649126,-136.30884260318908,-57.022964827954524,-43.0151827267872
1684782948665103,-37.552452887769846,-7.492179751277945,-34.317540245670216
1684782948681091,19.760433356221824,-23.8803692683299,-7.0954451819637825
1684782948697068,47.40978103303587,-41.55031662470435,14.724956130311966
1684782948713045,4.135194934004744,-68.10101472495614,20.798046845197177
1684782948729022,-13.260090028229115,-45.395590142671836,13.138017853055544
1684782948744999,-29.251544975967022,-56.07690547035941,11.245899137865194
1684782948760975,-65.44594491493092,-46.7994201571679,-17.41054398413064
1684782948776952,-75.91363393606468,-29.495689326314164,-30.685893034256537
1684782948792929,-41.27565423056376,0.8392462043183286,-24.063477531090257
1684782948808906,-22.354467078660264,14.66392004272518,-20.889600976577412
1684782948824883,-15.823605706874218,15.2437628747997,-9.018081940947582
1684782948840860,-11.97833218890662,11.459525444419,6.759746700236519
1684782948856837,-7.949950408178779,-1.6327153429465397,11.245899137865194
1684782948872814,-8.1025406271458,-18.6617837796598,8.133058670939135
1684782948888791,0.38147554741738077,-18.90592813000694,0.7171740291447577
1684782948904768,3.677424277103796,-3.921568627450938,-4.440375371938671
1684782948920745,-2.4567025253680868,21.68307011520551,-4.074158846417959
1684782948936721,-4.531929503318793,34.958419165331634,-3.219653620202962
1684782948952698,-19.85198748760206,30.71641107804976,-6.942854962996876
1684782948968675,-24.216067750057277,31.052109559777136,-6.515602349889377
1684782948984652,-19.45525291828801,32.36438544289331,-5.752651255054502
1684782949000610,-12.100404364080191,26.626993209735247,-7.248035400930803
1684782949016587,-11.520561532005786,15.854123750667554,-10.543984130617218
1684782949032564,-13.87045090409697,14.816510261692201,-10.360875867856862
1684782949048541,-38.95628290226591,22.201876859693243,-9.231708247501274
1684782949064518,-51.40764476997026,45.578698405432306,-16.372930495155288
1684782949080495,-36.881055924315206,53.05561913481347,-17.013809414816592
1684782949096471,-29.892423895628326,35.99603265430687,-18.142977035172066
1684782949112448,-35.90447852292664,28.305485618371677,-15.518425268940177
1684782949128425,-23.422598611429066,32.76112001220736,-11.062790875104838
1684782949144402,-40.60425726710912,32.27283131151307,-11.85626001373305
1684782949160379,-44.14435034714268,45.88387884336612,-6.759746700236519
1684782949176356,-34.28702220187688,42.67948424505994,2.090485999847374
1684782949192333,-7.248035400930803,28.885328450446195,4.745555809872599
1684782949208310,-1.6632333867398756,11.947814145113284,-6.088349736781879
1684782949224287,-0.9002822919051141,5.813687342641288,-5.691615167467717
1684782949240264,-42.61844815747304,-13.290608072022565,-4.440375371938671
1684782949256240,-29.648279545281184,18.814373998626593,-6.851300831616641
1684782949272217,-18.90592813000694,42.09964141298542,-4.257267109178315
1684782949288194,-2.3956664377813013,46.52475776302754,15.609979400320412
1684782949304171,1.1749446860455919,30.685893034256424,30.106050202181905
1684782949320160,-1.7853055619134466,20.21820401312266,28.39703974975191
1684782949336136,-2.548256656748322,34.683756771191156,11.42900740062555
1684782949352113,5.1117723353933116,49.485008010986576,12.252994583047212
1684782949368090,8.163576714732585,54.306858930342514,10.238803692683291
1684782949384067,3.0365453574426056,40.512703135729,14.053559166857326
1684782949400044,-1.2970168612191628,29.465171282520714,27.542534523536915
1684782949416021,-4.715037766079149,32.24231326771974,38.590066376745426
1684782949431998,-1.052872510872021,38.43747615777829,50.27847714961467
1684782949447975,2.1515220874341594,43.56450751506827,60.86823834592201
1684782949463952,-0.44251163500416624,49.51552605477991,62.180514229037954
1684782949479929,-2.3956664377813013,67.12443732356746,66.48355840390627
1684782949495906,-6.363012130922357,82.90226596475168,81.92568856336311
1684782949511882,0.8392462043183286,99.13786526283684,92.0576791027695
1684782949527859,21.59151598382539,128.55725947966744,89.46364538033095
1684782949543836,40.42114900434899,141.86312657358667,89.70778973067809
1684782949559813,49.27138170443277,141.43587396047906,94.43808651865425
1684782949575790,37.521934843976624,138.01785305561907,100.38910505836589
1684782949591767,10.055695429922935,132.64667734798195,108.69001297016871
1684782949607744,-14.877546349278987,122.11795223926151,113.72549019607845
1684782949623721,-30.014496070801897,112.41321431296251,119.12718394750891
1684782949639679,-44.14435034714268,101.12153810940731,118.7609674219882
1684782949655655,-51.13298237582978,93.12581063553807,118.02853437094677
1684782949671632,-51.86541542687121,97.09315632867947,117.44869153887248
1684782949687609,-53.42183566033418,100.81635767147327,116.8993667505913
1684782949703586,-48.783093003738486,100.45014114595256,115.31242847333488
1684782949719563,-42.95414663920042,97.09315632867947,115.49553673609535
1684782949735540,-36.636911573968064,100.11444266422541,113.87808041504536
1684782949751517,-34.744792858777714,108.5374227512018,109.30037384603656
1684782949767494,-31.05210955977725,112.99305714503703,106.85893034256515
1684782949783471,-29.404135194934042,112.29114213778894,103.13572899977112
1684782949799448,-23.727779049362994,107.13359273670562,96.23865110246447
1684782949815425,-17.86831464103159,104.84473945220111,84.12298771648739
1684782949831401,-14.816510261692201,109.02571145189609,68.37567711909674
1684782949847378,30.89951934081023,90.16556038757903,27.389944304570008
1684782949863355,13.595788509956492,114.67154955367369,-10.971236743724717
1684782949879332,-38.773174639505555,97.27626459143971,9.079118028534367
1684782949895309,-53.42183566033418,106.49271381704443,17.074845502403264
1684782949911286,-64.22522316319521,121.20241092545962,22.537575341420506
1684782949927263,-51.46868085755705,116.16693369954987,20.828564888990513
1684782949943240,-25.497825589379772,107.56084534981323,11.123826962691624
1684782949959228,-17.013809414816592,117.02143892576487,-5.50850690470736
1684782949975205,-33.15785458152129,105.05836575875492,-11.886778057526499
1684782949991182,-8.07202258335235,117.08247501335177,-7.003891050583661
1684782950007159,-33.21889066910808,103.41039139391182,-13.626306553749828
1684782950023136,-36.82001983672842,103.80712596322587,-21.43892576485848
1684782950039113,-39.444571602960195,97.55092698558042,-26.108186465247627
1684782950055090,-42.40482185091935,90.44022278171951,-26.688029297322032
1684782950071066,-54.79514763103691,74.26565957122148,-24.856946669718468
1684782950087043,-65.9342336156252,51.56023498893728,-28.21393148699167
1684782950103020,-62.943465323872715,32.57801174944689,-32.05920500495915
1684782950118997,-54.88670176241703,18.295567254138973,-32.05920500495915
1684782950134974,-49.51552605477991,11.642633707179357,-30.014496070801897
1684782950150951,-52.719920653086206,12.314030670633997,-29.648279545281184
1684782950166928,-54.21530479896239,16.922255283436243,-30.197604333562253
1684782950182905,-43.65606164644839,18.387121385519094,-25.284199282825966
1684782950198882,-35.75188830395973,15.640497444113748,-24.765392538338347
1684782950214859,-29.648279545281184,6.698710612649734,-24.765392538338347
1684782950230836,-27.14579995422298,1.846341649500232,-26.413366903181554
1684782950246812,-31.60143434805832,-1.266498817425827,-27.054245822842745
1684782950262789,-37.88815136949722,3.341725795376533,-28.946364538033095
1684782950278747,-39.41405355916686,5.874723430228073,-28.061341268024762
1684782950294724,-39.62767986572055,-0.6561379415579722,-23.514152742809188
1684782950310701,-33.43251697566188,-10.879682612344482,-19.638361181048367
1684782950326678,-24.97901884489204,-11.276417181658644,-22.842755779354547
1684782950342655,-20.76752880140384,-9.140154116121153,-23.819333180743115
1684782950358632,-22.171358815899907,-3.463797970550104,-24.70435645075156
1684782950374609,-22.751201647974426,3.555352101930225,-23.20897230487526
1684782950390586,-20.309758144503007,3.677424277103796,-22.873273823147997
1684782950406562,-18.326085297932423,1.2054627298390415,-24.46021210040442
1684782950422539,-19.21110856794087,1.7547875181201107,-22.781719691767762
1684782950438516,-21.22529945830479,1.4801251239795192,-19.943541618982294
1684782950454493,-20.889600976577412,3.5248340581368893,-17.593652246890997
1684782950470470,-19.57732509346158,0.44251163500416624,-15.426871137560056
1684782950486447,-13.748378728923399,-5.844205386434737,-12.64972915236126
1684782950502424,-9.903105210955914,-10.391393911650198,-10.452429999236983
1684782950518401,-9.323262378881509,-5.264362554360218,-7.980468451972229
1684782950534378,-10.482948043030433,3.585870145723675,-2.9144731822690346
1684782950550355,-9.872587167162578,6.88181887541009,1.937895780880467
1684782950566331,-4.043640802624509,3.585870145723675,6.179903868162
1684782950582308,3.555352101930225,-7.1869993133440175,8.77393759060044
1684782950598266,14.450293736171488,-26.016632333867392,9.872587167162578
1684782950614243,23.17845426108181,-39.597161821927216,8.74341954680699
1684782950630219,21.9577325093461,-29.95345998321511,10.63553826199734
1684782950646196,10.818646524757696,-14.175631342030897,19.333180743114326
1684782950662172,-1.1749446860455919,-5.0202182040130765,22.964827954528005
1684782950678148,-3.799496452277367,-3.6163881895170107,21.225299458304676
1684782950694125,-5.783169298847952,-11.30693522545198,20.37079423208968
1684782950710101,-9.384298466468294,-16.89173723964302,20.187685969329323
1684782950726078,-12.466620889600904,-22.41550316624705,19.211108567940755
1684782950742054,-13.534752422369706,-24.399176012817634,17.80727855344469
1684782950758031,-14.267185473411132,-20.859082932784077,13.290608072022565
1684782950774007,-14.57236591134506,-16.76966506446945,6.851300831616641
1684782950789983,-10.147249561303056,-5.203326466773433,2.731364919508678
1684782950805960,-7.278553444724139,1.052872510872021,1.022354467078685
1684782950821936,-6.424048218509142,6.363012130922357,-3.097581445029391
1684782950837913,-7.705806057831637,3.7079423208972457,-5.416952773327239
1684782950853889,-4.287785152971651,4.3183031967651,-4.928664072632955
1684782950869866,-6.607156481269499,6.454566262302592,-5.966277561608308
1684782950885842,-12.161440451666977,10.08621347371627,-6.576638437476163
1684782950901818,-17.41054398413064,11.85626001373305,-7.675288014038301
1684782950917816,-20.920119020370862,5.691615167467717,-11.001754787518053
1684782950933793,-18.722819867246585,0.3204394598305953,-13.87045090409697
1684782950949770,-17.95986877241171,-9.506370641641865,-12.161440451666977
1684782950965747,-18.63126573586635,-18.844892042420156,-7.980468451972229
1684782950981723,-15.671015487907312,-20.370794232089793,-7.156481269550568
1684782950997700,-14.114595254444112,-22.629129472800855,-4.531929503318793
1684782951013677,-14.297703517204468,-24.765392538338347,-2.3956664377813013
1684782951029654,-9.933623254749364,-21.31685358968491,-1.2054627298390415
1684782951045631,-7.675288014038301,-17.013809414816592,0.16784924086368846
1684782951061608,-3.3112077515830833,-12.68024719615471,2.059967956054038
1684782951077585,2.97550926985582,-13.382162203402686,1.8158236057068962
1684782951093562,9.41481651026163,-18.173495078965516,-0.7782101167315432
1684782951109539,14.877546349278987,-20.79804684519729,-2.30411230640118
1684782951125516,20.309758144502894,-19.42473487449456,-2.426184481574751
1684782951141492,23.971923399710022,-13.931486991683755,-2.853437094682249
1684782951157469,26.596475165941683,-8.468757152666512,-3.4027618829633184
1684782951173446,31.38780804150474,-13.717860685130063,-4.654001678492364
1684782951189423,34.31754024567044,-31.082627603570586,-6.179903868162
1684782951205400,38.83421072709257,-40.939955748836496,-9.29274433508806
1684782951221377,40.17700465400185,-46.12802319371326,-9.170672159914488
1684782951237335,35.50774395361259,-51.04142824444955,-7.0954451819637825
1684782951253311,41.88601510643184,-52.445258258945614,-4.013122758831173
1684782951269288,49.2103456168461,-66.7887388418402,-3.0670634012359415
1684782951285264,54.15426871137561,-78.90440222781729,-1.968413824673803
1684782951301241,66.30045014114603,-77.77523460746158,0.1373311970702389
1684782951317217,75.24223697261004,-74.72343022812231,0.5340657663844013
1684782951333193,78.53818570229646,-69.26070038910507,-1.3885709925993979
1684782951349170,81.92568856336311,-67.6432440680552,-0.8392462043183286
1684782951365146,84.18402380407406,-80.33875028610669,1.8768596932936816
1684782951381123,83.26848249027239,-94.65171282520794,3.768978408484031
1684782951397099,79.6368352788586,-88.7006942854963,5.355916685740453
1684782951413076,69.16914625772483,-74.23514152742803,9.262226291294724
1684782951429052,59.76958876935987,-67.2159914549477,11.184863050278409
1684782951445028,58.73197528038463,-69.01655603875793,9.353780422674845
1684782951461005,58.88456549935154,-69.7184710460059,5.294880598153668
1684782951476981,54.306858930342514,-53.54390783550775,4.745555809872599
1684782951492958,45.76180666819255,-38.19333180743115,9.170672159914488
1684782951508934,36.97261005569544,-35.38567177843902,11.825741969939713
1684782951524911,33.31044480048831,-28.305485618371904,12.558175020981139
1684782951540887,32.36438544289331,-21.927214465552765,14.02304112306399
1684782951556884,32.54749370565355,-10.940718699931267,11.154345006485073
1684782951572861,31.90661478599236,3.0365453574426056,8.285648889906156
1684782951588838,31.0215915159838,12.710765239948046,8.590829327840083
1684782951604815,30.167086289768804,23.880369268329787,8.1025406271458
1684782951620792,27.847714961470956,32.85267414358759,7.248035400930803
1684782951636769,23.270008392461932,38.803692683299005,7.3090714885175885
1684782951652746,17.959868772411596,39.383535515373524,8.77393759060044
1684782951668723,15.121690699626129,40.11596856641495,8.89600976577401
1684782951684700,13.290608072022565,43.99176012817588,8.834973678187225
1684782951700677,7.888914320591994,46.18905928130016,9.750514991989007
1684782951716653,3.219653620202962,45.334554055085164,11.123826962691624
1684782951732630,5.416952773327239,45.12092774853136,9.384298466468294
1684782951748607,9.628442816815436,45.12092774853136,8.499275196459848
1684782951764584,8.560311284046634,39.23094529640662,9.506370641641865
1684782951780561,4.928664072632955,38.345922026398284,10.849164568551146
1684782951796538,-0.9918364232852355,44.235904478523025,13.504234378576257
1684782951812515,-5.203326466773433,50.522621499961815,16.647592889295765
1684782951828492,-0.8392462043183286,56.32104982070655,17.532616159304098
1684782951844469,5.53902494850081,56.44312199588012,19.39421683070111
1684782951860446,10.910200656137931,57.84695201037607,21.92721446555265
1684782951876403,16.46448462653541,64.01159685664152,25.955596246280493
1684782951892380,18.753337911039807,69.84054322117959,29.526207370107386
1684782951908356,20.157167925535873,75.45586327916385,30.502784771495953
1684782951924333,24.94850080109859,82.04776073853668,28.885328450446195
1684782951940309,34.34805828946378,82.26138704509026,28.0308232242312
1684782951956286,41.611352712291136,76.52399481193243,26.779583428702153
1684782951972262,42.80155642023351,70.78660257877459,25.955596246280493
1684782951988238,40.146486610208285,73.22804608224601,26.504921034561676
1684782952004215,30.930037384603565,75.39482719157695,28.85481040665286
1684782952020191,19.69939726863504,82.23086900129692,29.587243457694285
1684782952036168,6.942854962996876,85.98458838788429,30.746929121843095
1684782952052144,-2.9144731822690346,79.72838941023883,27.603570611123814
1684782952068121,-7.492179751277945,70.87815671015483,21.83566033417253
1684782952084097,-7.827878233005208,70.57297627222101,17.044327458609814
1684782952100073,-13.076981765468759,69.38277256427864,11.123826962691624
1684782952116050,-19.45525291828801,72.46509498741125,2.5177386129548722
1684782952132026,-20.981155107957647,78.41611352712289,-4.043640802624509
1684782952148003,-23.08690012970169,74.57084000915529,-3.921568627450938
1684782952163979,-20.492866407263364,71.33592736705577,-2.9144731822690346
1684782952179956,-14.54184786755161,64.89662012664985,-2.059967956054038
1684782952195953,-21.622034027618838,87.9987792782481,-15.36583504997327
1684782952211930,13.962005035477205,163.866636148623,-68.19256885633627
1684782952227907,27.969787136644527,115.58709086747535,-53.665980010681324
1684782952243884,-5.172808422980097,43.68657969024184,-16.433966582742073
1684782952259861,-20.67597467002372,71.45799954222935,2.3956664377813013
1684782952275838,2.3651483939879654,104.99732967116825,0.4730296787976158
1684782952291814,-3.4332799267566543,78.53818570229646,1.6327153429465397
1684782952307791,-4.745555809872599,59.7085526817732,3.891050583657602
1684782952323768,-38.52903028915841,36.63691157396829,-24.185549706263828
1684782952339745,-48.23376821545742,-25.3757534142062,8.804455634393776
1684782952355722,-27.02372777904941,29.007400625619766,24.002441443503358
1684782952371699,-48.05065995269706,15.030136568245894,32.73060196841402
1684782952387676,-57.145037003128095,-3.250171663996298,41.550316624704465
1684782952403653,-52.87251087205311,-11.490043488212336,49.240863660639434
1684782952419630,-43.8696879530022,-19.150072480354083,51.16350041962323
1684782952435607,-31.113145647364036,-16.281376363775166,50.1564049744411
1684782952451583,-25.528343633173108,-3.891050583657602,42.46585793850613
1684782952467560,-18.63126573586635,21.13374532692444,28.0308232242312
1684782952483537,-24.58228427557799,32.05920500495927,22.23239490348658
1684782952499514,-23.91088731212335,36.51483939879472,28.45807583733881
1684782952515472,-21.164263370718004,44.66315709163041,36.08758678568711
1684782952531448,-13.412680247196135,53.42183566033418,41.153582055390416
1684782952547425,-7.583733882658066,57.877470054169635,40.848401617456375
1684782952563401,-2.5787747005416577,59.7085526817732,35.660334172579724
1684782952579378,-2.883955138475585,62.241550316624625,27.45098039215668
1684782952595354,-8.133058670939135,61.32600900282296,19.54680704966802
1684782952611331,-9.658960860608772,66.91081101701388,17.80727855344469
1684782952627307,-15.732051575494097,63.61486228732747,17.074845502403264
1684782952643283,-21.74410620279241,52.1400778210118,20.58442053864337
1684782952659260,-22.69016556038764,44.113832303349454,23.971923399710022
1684782952675236,-25.589379720759894,37.82711528191044,25.345235370412638
1684782952691213,-27.450980392156907,28.54962996871882,31.631952391851883
1684782952707189,-44.08331425955589,10.849164568551146,42.22171358815899
1684782952723166,-48.75257495994515,21.774624246585745,48.966201266498956
1684782952739142,-36.82001983672842,71.70214389257649,25.619897764553116
1684782952755118,9.99465934233615,71.58007171740292,10.482948043030433
1684782952771095,14.633401998931845,1.266498817425827,32.394903486686644
1684782952787071,15.060654612039343,18.05142290379183,46.58579385061421
1684782952803048,11.703669794766142,76.43244068055242,51.31609063859014
1684782952819024,-5.1117723353933116,86.1982146944381,59.7085526817732
1684782952835022,-10.238803692683291,94.59067673762115,59.76958876935987
1684782952850999,-19.913023575188845,90.65384908827332,60.41046768902106
1684782952866975,-22.96482795452812,90.89799343862046,58.640421149004396
1684782952882952,-18.448157473105994,89.79934386205832,55.191882200351074
1684782952898929,-26.382848859388105,81.10170138094145,44.44953078507683
1684782952914906,-39.322499427786624,78.44663157091622,35.9349965667202
1684782952930883,-53.60494392309454,73.990997177081,31.38780804150474
1684782952946860,-61.9974059662776,73.38063630121314,30.502784771495953
1684782952962837,-75.24223697261004,55.130846112764175,13.260090028229115
1684782952978814,-53.08613717860692,52.9335469596399,29.159990844586673
1684782952994791,-36.27069504844735,98.9852750438697,22.995345998321454
1684782953010768,-51.62127107652407,66.84977492942699,17.044327458609814
1684782953026744,-48.99671931029229,75.54741741054386,6.668192568856284
1684782953042721,-47.74547951476313,69.0775921263446,-4.776073853665935
1684782953058698,-45.395590142671836,67.85687037460889,-4.715037766079149
1684782953074675,-49.63759822995348,59.95269703212034,-14.633401998931845
1684782953090652,-52.87251087205311,34.10391393911664,-14.69443808651863
1684782953106629,-53.360799572747396,21.744106202792295,-21.34737163347836
1684782953122606,-56.9314106965744,-2.7924010070954637,-26.32181277180132
1684782953138583,-43.0151827267872,8.712901503013654,-10.78812848096436
1684782953154541,-43.350881208514465,5.569542992294146,-4.470893415732007
1684782953170517,-49.66811627374693,-0.9002822919051141,-5.416952773327239
1684782953186493,-55.680170901045244,-14.419775692378039,-5.325398641947004
1684782953202470,-62.63828488593879,-46.066987106126476,-3.9826047150377235
1684782953218446,-66.69718471046008,-70.32883192187376,-3.0670634012359415
1684782953234423,-48.50843060959801,-27.81719691767762,5.905241474021523
1684782953250399,-58.76249332417797,-31.906614785992247,13.473716334782921
1684782953266376,-63.614862287327355,-21.683070115205624,19.27214465552754
1684782953282352,-70.60349431601435,-15.121690699626129,21.68307011520551
1684782953298329,-75.30327306019683,-21.10322728313122,17.868314641031475
1684782953314305,-73.13649195086589,-39.29198138399329,12.283512626840547
1684782953330281,-58.243686579690234,-38.98680094605936,10.971236743724717
1684782953346258,-55.283436331731195,-51.499198901350496,0.19836728465702436
1684782953362234,-40.268558785381856,-55.161364156557624,5.0202182040130765
1684782953378211,-38.34592202639806,-49.11879148546586,7.125963225757232
1684782953394187,-53.818570229648344,-69.1386282139315,6.21042191195545
1684782953410164,-57.99954222934309,-60.7156481269551,-1.7547875181201107
1684782953426140,-51.98748760204478,-27.359426260776672,5.9357595178148586
1684782953442116,-42.86259250782018,10.63553826199734,12.00885023270007
1684782953458093,-29.098954757000115,37.43038071259639,14.847028305485537
1684782953474060,24.36865796902407,79.6368352788586,20.4623483634698
1684782953490037,22.659647516594077,33.859769588769495,11.917296101319835
1684782953506013,-18.53971160448623,-53.940642404821915,-7.522697795071281
1684782953521990,-5.386434729533789,-47.74547951476313,-16.464484626535523
1684782953537967,24.399176012817406,12.619211108567924,-3.2806897077897474
1684782953553944,14.02304112306399,35.47722590981925,5.50850690470736
1684782953569921,-16.037232013428024,9.719996948195558,8.89600976577401
1684782953585898,-12.375066758220783,-10.605020218204004,9.29274433508806
1684782953601875,7.644769970244852,-16.250858319981717,7.125963225757232
1684782953617852,15.274280918593035,-21.46944380865193,11.673151750972693
1684782953633829,19.24162661173409,-21.133745326924554,20.767528801403728
1684782953649806,21.16426337071789,-9.750514991989007,19.974059662775517
1684782953665783,13.962005035477205,-6.576638437476163,11.551079575799122
1684782953681759,3.006027313649156,24.3076218814374,-5.172808422980097
1684782953697736,-0.7782101167315432,47.80651560234992,8.834973678187225
1684782953713713,5.416952773327239,67.73479819943532,25.680933852140015
1684782953729690,21.377889677271583,79.66735332265193,37.94918745708401
1684782953745667,17.746242465857904,55.527580682078224,42.374303807126125
1684782953761644,20.8896009765773,45.578698405432306,39.47508964675376
1684782953777621,24.460212100404306,55.37499046311132,34.19546807049687
1684782953793609,23.758297093156216,53.81857022964823,31.90661478599236
1684782953809586,5.722133211261166,46.52475776302754,34.71427481498449
1684782953825562,-19.05851834897385,24.67383840695811,43.595025558861835
1684782953841539,-19.05851834897385,8.316166933699492,52.048523689631566
1684782953857515,1.2054627298390415,13.19905394064233,53.147173266193704
1684782953873491,-2.9144731822690346,-2.2430762188143945,50.09536888685443
1684782953889468,13.290608072022565,16.250858319981603,46.18905928130016
1684782953905444,10.971236743724717,12.924391546501852,44.32745860990326
1684782953921421,27.05424582284263,7.614251926451516,49.485008010986576
1684782953937397,48.661020828564915,32.394903486686644,46.3721675440604
1684782953953374,47.68444342717635,56.83985656519417,37.125200274662575
1684782953969350,49.240863660639434,56.96192874036774,33.06630045014117
1684782953985326,61.020828564888916,49.97329671168086,30.746929121843095
1684782954001303,55.771725032425365,26.504921034561676,26.901655603875724
1684782954017279,48.17273212787063,19.54680704966802,23.60570687418931
1684782954033256,42.86259250782041,23.758297093156216,29.404135194933815
1684782954049232,24.277103837643836,18.44815747310588,33.46303501945545
1684782954065209,10.208285648889841,9.41481651026163,38.19333180743115
1684782954081185,3.3112077515830833,-9.231708247501274,40.69581139848947
1684782954097161,-5.203326466773433,-35.26359960326545,42.313267719539226
1684782954113128,5.844205386434737,-30.960555428397015,43.80865186541541
1684782954129105,-13.107499809262208,-55.405508506904766,31.937132829785696
1684782954145082,-3.7079423208972457,-34.92790112153807,20.981155107957534
1684782954161059,1.144426642252256,-21.255817502098125,15.732051575493983
1684782954177036,9.689478904402222,-9.018081940947582,17.68520637827112
1684782954193013,-14.755474174105416,-33.76821545738915,3.6469062333104603
1684782954208990,-29.83138780804154,-99.44304570077054,13.504234378576257
1684782954224967,34.775310902571164,-94.8348210879683,21.866178377965866
1684782954240944,38.55954833295186,-107.07255664911872,-12.222476539253762
1684782954256920,52.78095674067299,-82.74967574578477,-23.544670786602637
1684782954272897,13.443198290989471,-71.88525215533684,-23.91088731212335
1684782954288874,-8.712901503013654,-110.91783016708632,-13.046463721675423
1684782954304851,29.49568932631405,-54.94773785000382,-1.2970168612191628
1684782954320828,61.600671396963435,-12.00885023270007,5.081254291599862
1684782954336805,81.89517051956955,-4.623483634699028,-3.250171663996298
1684782954352782,107.59136339360657,27.664606698710486,-1.144426642252256
1684782954368759,124.86457618066675,23.758297093156216,6.027313649195094
1684782954384736,93.24788281071164,-75.48638132295719,3.7384603646905816
1684782954400713,77.07331960021361,-68.92500190737769,-7.797360189211872
1684782954416689,82.29190508888382,-33.89028763256272,-14.785992217898752
1684782954432678,79.27061875333789,-22.079804684519786,-15.457389181353392
1684782954448655,95.17051956969567,0.8392462043183286,-12.405584802014118
1684782954464632,93.15632867933164,29.343099107347143,-23.23949034866871
1684782954480609,66.54459449149317,12.64972915236126,-28.671702143892617
1684782954496585,30.71641107804976,-8.255130846112706,-23.11741817349514
1684782954512562,76.03570611123814,73.86892500190743,-37.430380712596275
1684782954528539,93.0647745479514,98.22232394903494,-37.82711528191044
1684782954544516,113.3287556267644,208.11779964904235,-46.707866025787666
1684782954560493,101.18257419699398,234.51590753032747,-53.60494392309454
1684782954576470,80.18616006713955,198.9318684672312,-37.21675440604258
1684782954592447,65.2933546959639,130.78507667658505,6.118867780575215
1684782954608424,32.76112001220736,57.41969939726869,5.142290379186647
1684782954624401,47.40978103303587,68.25360494392316,10.849164568551146
1684782954640378,-4.16571297779808,-1.2970168612191628,28.244449530785005
1684782954656355,-41.58083466849769,-44.38849469748982,47.89806973373015
1684782954672331,-10.330357824063412,-14.419775692378039,51.071946288243
1684782954688308,11.123826962691624,0.106813153276903,29.739833676661192
1684782954704285,46.921492332341586,48.722056916151814,20.248722056916108
1684782954720262,53.42183566033418,64.4998855573358,39.44457160296042
1684782954736239,76.40192263675885,70.60349431601435,64.01159685664152
1684782954752197,31.32677195391784,67.03288319218746,65.53749904631104
1684782954768174,32.85267414358759,73.74685282673386,52.53681239032585
1684782954784151,93.70565346761259,63.523308155947234,53.147173266193704
1684782954800128,131.27336537727933,113.72549019607845,3.250171663996298
1684782954816105,217.9140917067216,152.8801403830014,-46.21957732509338
1684782954832081,306.2943465323874,180.62104219119556,-70.96971084153506
1684782954848058,331.83794918745707,140.76447699702453,-88.30395971618225
1684782954864035,251.30083161669336,65.84267948424508,-108.35431448844122
1684782954880012,124.16266117341888,9.719996948195558,-79.81994354161907
1684782954895989,41.245136186770424,-43.228809033340895,-42.64896620126649
1684782954911966,-45.85336079957267,-98.83268482490269,-26.504921034561676
1684782954927943,-138.65873197528038,-98.55802243076221,34.40909437705045
1684782954943920,-191.08873121232932,-81.62050812542918,75.05912870984957
1684782954959897,-190.96665903715575,-46.28061341268017,46.494239719233974
1684782954975874,-148.882276646067,57.23659113450822,-24.33813992523085
1684782954991850,-156.4507515068284,192.52307927061884,-77.04280155642016
1684782955007827,-119.2492561226826,218.46341649500255,-122.6062409399558
1684782955023804,-54.734111543450126,159.62462806134135,-108.20172426947431
1684782955039781,14.511329823758274,162.7985046158542,-107.92706187533372
1684782955055758,74.17410543984124,177.11146715495533,-104.6311131456473
1684782955071716,140.09308003356978,212.08514534218352,-123.4607461661708
1684782955087692,201.25123979552905,218.15823605706873,-167.71190966659037
1684782955103669,256.64148928053714,222.79697871366466,-150.07248035400937
1684782955119645,213.48897535667948,113.42030975814464,-118.24216067750058
1684782955135622,171.89288166628535,131.05973907072553,-81.3458457312887
1684782955151598,176.19592584115367,123.30815594720389,-58.82352941176475
1684782955167575,179.49187457084008,83.69573510337977,-79.24010070954455
1684782955183551,209.4300755321583,91.59990844586855,-115.64812695506225
1684782955199527,174.3648432135501,119.92065308613724,-171.03837644007012
1684782955215504,131.79217212176695,220.38605325398657,-213.0617227435722
1684782955231480,61.600671396963435,328.7861448081178,-221.60677500572217
1684782955247457,19.607843137254804,330.1289387350271,-178.88151369497223
1684782955263433,2.97550926985582,312.2758831158924,-120.13427939269093
1684782955279410,-38.31540398260472,222.70542458228442,-100.81635767147327
1684782955295386,-5.050736247806526,214.00778210116732,-90.3486686503395
1684782955311362,23.30052643625538,134.90501258869313,-62.63828488593879
1684782955327339,12.771801327534831,49.11879148546586,-34.71427481498438
1684782955343315,16.769665064469336,-20.737010757610506,-14.084077210650776
1684782955359292,30.472266727702618,-40.146486610208285,43.411917296101365
1684782955375268,9.44533455405508,-74.5708400091554,59.739070725566535
