Timestamp (microseconds),Accel X (g),Accel Y (g),Accel Z (g)
1684782926601501,-0.12640573739223315,-0.3617608911268788,0.8211184863050276
1684782926617501,-0.19342336156252404,-0.36908522163729307,-1.6579232471198595
1684782926633502,-0.2138094148165104,0.034851606012054503,-0.4951857785915923
1684782926649502,-0.1560692759594109,0.39996948195620696,-2.552590218966964
1684782926665502,-0.2687418936446173,0.5768520637827113,-1.103593499656672
1684782926681502,-0.08612191958495474,0.35431448844129054,-1.2913405050736246
1684782926697503,-0.24921034561684596,0.27191577019913016,-0.9579613946746015
1684782926713503,-0.22418554970626392,0.24713511863889526,-1.556359197375448
1684782926729503,-0.15912108033875016,0.2565346761272602,-1.5303578240634774
1684782926745504,-0.14569314106965736,0.23126573586633103,-1.5636835278858627
1684782926761504,-0.2394445716029603,0.17938506141756339,-1.0176546883344777
1684782926777504,-0.0745250629434655,0.06549172198062081,-0.8324711985961701
1684782926793504,-0.17096208133058655,0.11139085984588348,-0.8571297779812315
1684782926809505,-0.06622415503166268,0.05365072098878443,-0.9584496833752958
1684782926825505,-0.009216449225604606,-0.17767605096513295,-0.7516594186312657
1684782926841505,0.17645532921339768,-0.1392233157854581,-0.5318074311436636
1684782926857505,0.14630350194552566,-0.15289539940489805,-1.0609903105210954
1684782926873506,-0.062317845426107965,-0.241519798580911,-0.932936598764019
1684782926889506,-0.036316472114137355,-0.15912108033875016,-0.784008545052262
1684782926905506,0.022278171969176697,-0.029968719005111666,-1.0952925917448693
1684782926921508,0.20685130083161685,-0.12274357213702602,-0.9224383916990919
1684782926937509,0.22650492103456177,-0.2339513237201496,-0.9365987640192261
1684782926953509,0.6084687571526661,-0.5813687342641338,-1.106767376211185
1684782926969509,0.40009155413138053,-0.25983062485694663,-0.8998550392919813
1684782926985509,0.650583657587549,-0.16668955519951156,-0.7188220035095751
1684782927001510,0.5918669413290605,-0.3856870374608987,-0.9041275654230563
1684782927017510,0.803662165255207,-0.5082475013351644,-0.8825207904173342
1684782927033510,0.8352788586251618,-0.2129549095902954,-0.9016861219195849
1684782927049511,0.5145952544441901,-0.10431067368581681,-0.24713511863889526
1684782927065511,0.5055619134813458,-0.030823224231326662,-0.23871213855191886
1684782927081511,0.7011215381094074,-0.15082017242694734,-0.392156862745098
1684782927097511,0.7172350652323187,-0.13873502708476382,-0.6723125047684442
1684782927113512,0.7190661478599223,-0.270817120622568,-0.716868848706798
1684782927129512,0.6205539024948497,-0.27875181200885013,-0.8224612802319373
1684782927145512,0.38410009918364274,-0.3522392614633403,-1.0972457465476464
1684782927161512,0.20355535210193043,-0.36530098420691237,-1.0688029297322044
1684782927177513,0.09735255970092282,-0.16803234912642084,-0.9822537575341421
1684782927193513,-0.03668268863965807,-0.1715724422064544,-0.7783932249942778
1684782927209513,-0.10211337453269254,-0.1832913710231172,-0.8208743419546809
1684782927225514,-0.19073777370870548,-0.13763637750820168,-0.7573968108644236
1684782927241516,-0.12713817044327458,0.12738231479362216,-0.7851071946288242
1684782927257516,-0.35480277714198527,0.3964293888761734,-1.292927443350881
1684782927273516,0.0844129091325243,-0.016906996261539575,-1.1132372014953842
1684782927289517,0.170107576104372,-0.023376821545738835,-1.2073548485542078
1684782927305517,0.3518730449378191,-0.12335393301289388,-1.356527046616312
1684782927321517,0.22906843671320676,-0.14947737850003806,-1.1616998550392919
1684782927337517,0.021057450217440987,-0.10040436408026254,-1.0546425574120697
1684782927353518,-0.16717784390020585,-0.019836728465705278,-1.4494239719234
1684782927369518,-0.12066834515907532,-0.02398718242160669,-1.9253833829251543
1684782927385518,2.967635614557107,0.2982833600366215,-0.17718776226443866
1684782927401518,0.21942473487449465,-0.15216296635385662,-0.8628671702143893
1684782927417519,0.2003814755474176,-0.07403677424277122,-1.4757915617608912
1684782927433519,0.08722056916151644,-0.03961242084382377,-0.9835965514610514
1684782927449519,0.06646829938200938,-0.018005645838101714,-0.9765163653009843
1684782927465520,0.12787060349431645,-0.02679484245059882,-0.874341954680705
1684782927481520,0.19098191805905262,-0.03179980163271523,-0.99140917067216
1684782927497520,0.29083695735103365,-0.09613183794918756,-0.9771267261768521
1684782927513520,0.5117875944151979,-0.017639429312581,-0.9993438620584421
1684782927529521,0.591989013504234,-0.03790341039139378,-1.0293736171511405
1684782927545521,0.3411306935225449,-0.12628366521705958,-1.0139925230792706
1684782927561554,0.2888838025482565,-0.1426413366903181,-1.1282520790417334
1684782927577554,0.11163500419623062,-0.1182269016556039,-0.9632104982070651
1684782927593554,-0.1115129320210575,-0.14154268711375595,-0.8086671244373234
1684782927609554,-0.15301747158007162,-0.2217441062027925,-0.6637674525062942
1684782927625555,-0.005188067444876765,-0.24872205691615168,-0.9750514991989014
1684782927641555,0.26654459449149304,-0.16473640039673443,-0.5492637521934842
1684782927657555,0.4213321126115819,-0.7147936217288473,-1.4967879758907454
1684782927673555,0.23871213855191886,-0.7685053788052185,-0.8999771114671549
1684782927689556,0.37616540779736063,0.467109178301671,-0.8059815365835048
1684782927705556,0.1205462729839013,0.1369039444571607,-0.7265125505455101
1684782927721556,0.002990768291752488,0.24371709773403527,-1.246540016784924
1684782927737557,-0.16839856565194156,-0.07428091859311836,-1.106767376211185
1684782927753557,-0.21490806439307253,-0.10064850843060968,-1.3081864652475774
1684782927769557,-0.18780804150453978,0.06732280460822437,-1.1194628824292363
1684782927785557,-0.21344319829098968,-0.06646829938200982,-1.2544747081712062
1684782927801558,-0.07635614557106907,-0.0955214770733197,-1.1689021133745325
1684782927817558,-0.22015716792553608,-0.13568322270542454,-1.2898756389715418
1684782927833558,-0.12628366521705958,-0.25506981002517737,-0.8557869840543222
1684782927849558,-0.03546196688792236,-0.34222934309910746,-0.6742656595712213
1684782927865559,0.08014038300144932,-0.45807583733882673,-0.796826123445487
1684782927881591,0.030945296406500233,-0.34723430228122387,-0.9367208361943997
1684782927897592,0.20514229037918685,-0.38556496528572515,-0.9772487983520257
1684782927913592,0.019470511940184565,-0.4038757915617608,-1.0272983901731898
1684782927929592,0.06829938200961294,-0.4392767223620968,-0.9356221866178376
1684782927945593,0.11651789120317346,-0.40314335851071936,-0.9401388570992602
1684782927961593,0.12384222171358772,-0.39264515144579226,-0.9655298695353629
1684782927977593,0.13641565575646641,-0.3638361181048295,-1.0032501716639963
1684782927993593,0.17608911268787697,-0.4096131837949186,-0.9173113603418019
1684782928009594,0.1360494392309457,-0.2735027084763866,-1.015579461356527
1684782928025594,0.26569008926527804,-0.16302738994430443,-1.0261997405966277
1684782928041594,0.2973067826352329,-0.18353551537346435,-1.1623102159151597
1684782928057594,0.2536049439230945,-0.4997024490730144,-1.1074998092622264
1684782928073595,0.21808194094758537,-0.5441367208361942,-0.7476310368505379
1684782928089595,0.16681162737468558,-0.41742580300602716,-0.9240253299763483
1684782928105595,0.11969176775768631,-0.3576104371709774,-0.9086442359044784
1684782928121595,0.11993591210803345,-0.26861982146944374,-0.8340581368734266
1684782928137596,0.12079041733424845,-0.21271076523994825,-0.8146486610208288
1684782928153596,0.14935530632486493,-0.2516517891203174,-0.8371099412527658
1684782928169596,0.22455176623178463,-0.24383916990920884,-0.8469977874418251
1684782928185597,0.26654459449149304,-0.2477454795147631,-0.8755626764324407
1684782928201660,0.19037155718318477,-0.3563897154192417,-0.8972915236133363
1684782928217661,0.18402380407415908,-0.47650873579003594,-0.8998550392919813
1684782928233661,0.10528725108720494,-0.4859082932784009,-0.8870374608987563
1684782928249662,0.12298771648737272,-0.41449607080186146,-0.8064698252841991
1684782928265663,0.23529411764705888,-0.3954528114747844,-0.7733882658121614
1684782928281664,0.30951400015259,-0.40119020370794223,-0.8018310826276034
1684782928297664,0.3389333943694206,-0.5331502250705729,-0.8006103608758677
1684782928313665,0.40473029678797623,-0.5238727397573815,-0.9446555275806823
1684782928329666,0.3351491569390399,-0.4536812390325782,-0.6958724345769438
1684782928345667,0.3468680857557027,-0.3781185626001373,-0.6516823071641107
1684782928361667,0.37018387121385476,-0.3950865949492637,-0.6710917830167085
1684782928377668,0.37738612954909634,-0.4096131837949186,-0.690135042343786
1684782928393669,0.3355153734645606,-0.36371404592965595,-0.7445792324711986
1684782928409670,0.3330739299610892,-0.42462806134126785,-0.7582513160906386
1684782928425670,0.2558022430762188,-0.48285648889906163,-0.7958495460440984
1684782928441671,0.22125581750209822,-0.5355916685740443,-1.1017624170290685
1684782928457672,0.2747234302281223,-0.5810025177386131,-0.9018081940947584
1684782928473672,0.1847562371252005,-0.43048752574959925,-0.6736552986953535
1684782928489673,0.1978179598687726,-0.575631342030976,-0.7278553444724194
1684782928505674,0.1587548638132299,-0.5714808880750746,-0.8513923857480736
1684782928521698,0.2659342336156252,-0.7317616540779737,-0.9456321049820708
1684782928537698,0.28204776073853655,-0.6287327382314793,-0.9069352254520484
1684782928553699,0.44281681544213036,-0.5571984435797663,-0.8687266346227207
1684782928569700,0.36847486076142477,-0.5930876630807966,-0.6065156023498894
1684782928585701,0.42108796826123474,-0.6818341344319827,-0.36029602502479596
1684782928601701,0.4535591668574046,-0.7962157625696191,-0.2503089951934081
1684782928617702,0.422430762188144,-0.5542687113756006,-0.5039749752040894
1684782928633703,0.34467078660257844,-0.5310749980926222,-0.7742427710383764
1684782928649704,0.2540932326237888,-0.572213321126116,-0.5524376287479971
1684782928665704,0.2653238727397573,-0.7013656824597545,-0.14276340886549166
1684782928681705,0.3883726253147177,-0.8771496147096971,-0.3125658045319297
1684782928697706,0.38947127489127986,-0.784008545052262,-0.42291905088883786
1684782928713707,0.3010910200656136,-0.7062485694666973,-0.3790951400015259
1684782928729707,0.2888838025482565,-0.7208972304875259,-0.43341725795376496
1684782928745708,0.2310215915159839,-0.6696269169146256,-0.42572671091783
1684782928761709,0.12738231479362216,-0.65644312199588,-0.4774853131914245
1684782928777710,0.17352559700923198,-0.8380865186541544,-0.3924010070954451
1684782928793710,0.18707560845349835,-0.9342793926909283,-0.5091020065613794
1684782928809711,0.19757381551842546,-0.9478294041351951,-0.7217517357137408
1684782928825712,0.23797970550087744,-0.9934843976501107,-0.9014419775692377
1684782928841735,0.10455481803616351,-0.7986572060730905,-0.714305333028153
1684782928857736,0.05389486533913157,-0.9275654230563819,-0.7379873350118258
1684782928873737,0.020691233691920274,-0.9632104982070651,-0.8352788586251623
1684782928889738,-0.007385366598001042,-0.8421149004348822,-0.4652780956740674
1684782928905738,-0.002990768291752488,-1.0959029526207371,-0.7255359731441215
1684782928921739,0.06854352635996008,-0.9126726176852062,-0.5927214465552759
1684782928937740,0.12835889219501073,-1.1107957579919128,-0.5431601434348057
1684782928953741,0.1050431067368578,-1.0543984130617226,-0.6037079423208973
1684782928969741,0.14886701762417065,-0.9427023727779051,-0.5474326695658807
1684782928985742,0.041443503471427334,-1.2655832761120012,-0.3143968871595333
1684782929001743,0.10406652933546923,-0.8996108949416342,-0.6752422369726099
1684782929017744,0.08111696040283789,-0.792553597314412,-1.0330357824063476
1684782929033744,0.12469672693980272,-0.9380636301213094,-0.7340810254062715
1684782929049745,0.1461814297703521,-1.0186312657358663,-0.5029983978027008
1684782929065746,0.15301747158007206,-0.9313496604867626,-0.3961852445258258
1684782929081747,0.16937514305333057,-0.8937514305333027,-0.3161058976119633
1684782929097747,0.13336385137712714,-1.2477607385366598,-0.35077439536125743
1684782929113748,0.2562905317769131,-0.8892347600518806,-0.38800640878919657
1684782929129749,0.20929274433508827,-0.7558098725871671,-0.20440985732814543
1684782929145750,0.13495078965438356,-0.8411383230334937,-0.20318913557640972
1684782929161773,0.21771572442206466,-0.8241702906843673,-0.23419546807049674
1684782929177774,0.20404364080262472,-0.8871595330739299,-0.29376668955519936
1684782929193775,0.2654459449149309,-0.9524681467917908,-0.3916685740444037
1684782929209776,0.3544365606164641,-1.0476844434271761,-0.35187304493781957
1684782929225776,0.32111085679407925,-1.0847943846799422,-0.41754787518120073
1684782929241777,0.32367437247272424,-1.1678034637979704,-0.4451361867704282
1684782929257778,0.22784771496147105,-0.9987335011825742,-0.2868085755703058
1684782929273779,0.16510261692225559,-0.9507591363393608,-0.22369726100556964
1684782929289779,0.10162508583199781,-0.9560082398718244,-0.15423819333180733
1684782929305780,0.0701304646372165,-0.8943617914091706,-0.15204089417868305
1684782929321781,0.07879758907454004,-0.9275654230563819,0.005432211795223907
1684782929337782,0.07354848554207649,-0.971755550469215,0.0869764248111693
1684782929353782,0.14508278019378995,-1.0548867017624168,-0.04461738002594018
1684782929369783,0.1477683680476085,-1.0274204623483634,-0.18402380407415864
1684782929385784,0.17547875181200911,-1.06660563057908,-0.23846799420157172
1684782929401785,0.18744182497901907,-1.08540474555581,-0.21844815747310609
1684782929417785,0.16693369954985915,-1.0890669108110171,-0.15118638895246805
1684782929433786,0.16217288471808988,-1.0553749904631111,-0.12213321126115817
1684782929449787,0.15509269855802277,-1.018142977035172,-0.10028229190508897
1684782929465788,0.16302738994430488,-1.0487830930037383,-0.05816739147020655
1684782929481811,0.17328145265888484,-1.0752727550164036,0.03424124513618665
1684782929497812,0.1415426871137564,-1.1065232318608378,0.08905165178912
1684782929513814,0.14264133669031853,-1.1054245822842756,0.16009765774013918
1684782929529815,0.1310444800488293,-1.0951705195696957,0.13507286182955713
1684782929545816,0.12909132524605216,-1.0790569924467843,0.04876783398184159
1684782929561817,0.13763637750820212,-1.077714198519875,-0.0014038300144960658
1684782929577818,0.1272602426184486,-1.0597695887693597,-0.05902189669642155
1684782929593820,0.130556191348135,-1.042313267719539,-0.10247959105821325
1684782929609821,0.12372014953841415,-1.0305943389028762,-0.1517967498283359
1684782929625822,0.11895933470664488,-0.9970244907301442,-0.14532692454413665
1684782929641823,0.11187914854657777,-0.9848172732127871,-0.07904173342488763
1684782929657825,0.10968184939345349,-0.9733424887464714,-0.07037460898756409
1684782929673826,0.10663004501411422,-0.9582055390249486,-0.13910124361028453
1684782929689827,0.13080033569848215,-0.9950713359273671,-0.19415579461356547
1684782929705828,0.12298771648737272,-0.9955596246280614,-0.20563057907988114
1684782929721830,0.15936522468909775,-1.0083772030212863,-0.17462424658579367
1684782929737831,0.124330510414282,-1.001907377737087,-0.12860303654535743
1684782929753832,0.09149309529259142,-0.9776150148775464,-0.06646829938200982
1684782929769833,0.06475928892957938,-0.9488059815365837,-0.05499351491569371
1684782929785834,0.055848020141908705,-0.9517357137407494,-0.060852979324025114
1684782929801849,0.029724574654764524,-0.9541771572442208,-0.05352864881361086
1684782929817850,-0.010315098802166744,-0.9494163424124515,-0.024719615472648115
1684782929833851,-0.03338673990997165,-0.9248798352025633,0.06207370107576082
1684782929849853,-0.018249790188448856,-0.9667505912870986,0.13080033569848215
1684782929865854,0.0060425726710917615,-1.0111848630502784,0.14874494544899708
1684782929881855,-0.016662851911192433,-1.0229037918669412,0.10138094148165067
1684782929897856,-0.0018921187151903496,-1.0180209048599984,0.07122911421377864
1684782929913858,0.002746623941405346,-1.0251010910200655,-0.035095750362401645
1684782929929859,0.0017700465400167786,-1.0392614633401998,-0.08038452735179691
1684782929945860,0.008728160524910322,-1.026932173647669,-0.036438544289310926
1684782929961861,0.03057907988097952,-1.0342565041580833,0.003356984817273201
1684782929977862,0.028381780727855244,-1.0470740825513083,0.031311512932020946
1684782929993864,0.026184481574730967,-1.0675822079804687,0.053284504463263715
1684782930009865,0.07818722819867219,-1.1122606240939956,0.09295796139467427
1684782930025866,0.09344625009536855,-1.1077439536125735,0.05352864881361086
1684782930041867,0.010193026626993174,-1.0254673075455862,0.08477912565804502
1684782930057869,0.006286717021438903,-1.0272983901731898,0.06878767071030722
1684782930073870,0.026062409399557396,-1.028397039749752,-0.0036011291676203427
1684782930089871,0.08172732127870574,-1.0950484473945221,-0.09295796139467472
1684782930105872,0.027527275501640247,-1.1208056763561456,-0.015808346684977437
1684782930121856,0.09466697184710426,-1.1847714961470968,0.10431067368581637
1684782930137858,0.08661020828564858,-1.1375295643549248,0.06903181506065437
1684782930153859,0.08953994048981428,-1.06831464103151,0.011535820553902454
1684782930169860,0.05877775234607441,-0.9949492637521935,-0.08563363088426046
1684782930185861,0.09918364232852639,-1.0144808117799649,-0.06256198977645555
1684782930201862,0.11053635461966849,-0.9911650263218128,0.04083314259555948
1684782930217864,0.12567330434119217,-1.033524071107042,0.050476844434271584
1684782930233865,0.1343404287785157,-1.0699015793087665,0.10943770504310635
1684782930249866,0.12408636606393486,-1.0382848859388112,0.14300755321583924
1684782930265867,0.10614175631341993,-0.9733424887464714,0.06439307240405867
1684782930281869,0.12445258258945557,-0.9740749217975129,0.12872510872053144
1684782930297870,0.10479896238651065,-0.8992446784161134,0.007263294422827471
1684782930313871,0.09784084840161711,-0.8443121995880065,-0.01739528496223386
1684782930329872,0.13849088273441712,-0.9159685664148927,0.0040894178683146265
1684782930345873,0.1608300907911806,-0.9721217669947357,0.01751735713740743
1684782930361875,0.12103456168459559,-0.9264667734798198,0.024963759822995257
1684782930377876,0.14007782101167354,-0.9679713130388343,-0.017639429312581
1684782930393877,0.13714808880750784,-0.9846952010376135,-0.08368047608148332
1684782930409878,0.0928358892195007,-0.9088883802548255,0.03045700770580595
1684782930425880,0.12616159304188646,-0.8548104066529336,0.05401693751430514
1684782930441925,0.0928358892195007,-0.8511482413977265,0.002990768291752488
1684782930457926,0.14544899671931066,-0.9314717326619362,0.11346608682383419
1684782930473927,0.16742198825055343,-0.9582055390249486,0.07122911421377864
1684782930489928,0.1998931868467233,-0.9947051194018464,-0.026916914625772392
1684782930505930,0.22272068360418107,-1.0186312657358663,-0.08148317692835905
1684782930521931,0.22796978713664462,-1.0216830701152055,-0.10577553978789966
1684782930537932,0.2499427786678874,-1.0569619287403675,-0.21515220874341967
1684782930553933,0.2621499961852445,-1.081132219424735,-0.16217288471808944
1684782930569934,0.26019684138246735,-1.0127718013275349,-0.0678110933089191
1684782930585936,0.22772564278629748,-0.9744411383230336,-0.050720988784618726
1684782930601937,0.20123598077363258,-0.9528343633173115,-0.043030441748683756
1684782930617938,0.2121004043640804,-0.97261005569543,0.012024109254596738
1684782930633939,0.21686121919584966,-0.9983672846570535,0.048035400930800165
1684782930649941,0.24090943770504314,-1.0209506370641641,-0.04083314259555948
1684782930665942,0.2558022430762188,-0.9879911497673,-0.09466697184710471
1684782930681943,0.24957656214236668,-0.9496604867627987,0.02008087281605242
1684782930697944,0.2600747692072938,-0.9606469825284201,0.08209353780422646
1684782930713945,0.275089646753643,-0.97431906614786,0.0861219195849543
1684782930729947,0.26068513008316163,-0.9499046311131458,0.060852979324025114
1684782930745948,0.30939192797741644,-0.9981231403067063,0.023010605020218122
1684782930761963,0.2714274814984359,-0.9881132219424735,0.04644846265354374
1684782930777964,0.2650797283894102,-0.9943389028763256,-0.055970092317082276
1684782930793965,0.28998245212481866,-1.2322575722896163,-0.12054627298390175
1684782930809966,0.23077744716563675,-0.8603036545357443,-0.35663385976958883
1684782930825967,0.27032883192187374,-1.0943160143434807,-0.3239185168230718
1684782930841969,0.3028000305180436,-0.9248798352025633,-0.14520485236896308
1684782930857970,0.31610589761196284,-0.9505149919890137,0.1561913481345849
1684782930873971,0.27570000762951086,-0.8230716411078052,0.3830014496070806
1684782930889972,0.17169451438162842,-0.7881589990081634,0.4956740672922866
1684782930905974,0.1222552834363313,-0.7171129930571452,0.6282444495307855
1684782930921975,0.26984054322117945,-0.8773937590600442,0.39374380102235484
1684782930937976,0.33539330128938705,-0.8357671473258566,0.3440604257267106
1684782930953977,0.3778744182497906,-0.8126955062180516,0.3964293888761734
1684782930969978,0.4132753490501262,-0.8739757381551843,0.4259708552681776
1684782930985980,0.4409857328145268,-0.9201190203707941,0.4883497367818723
1684782931001981,0.5016556038757916,-1.0058136873426413,0.4809033340962845
1684782931017982,0.5086137178606851,-1.0193636987869077,0.4137636377508205
1684782931033983,0.537666895551995,-0.9818875410086214,0.4644235904478524
1684782931049985,0.5249713893339436,-0.8463874265659572,0.5706263828488591
1684782931065986,0.5934538796063169,-0.8482185091935608,0.8070801861600669
1684782931082000,0.5487754634927899,-0.7747310597390706,0.858838788433661
1684782931098002,0.566109712367437,-0.8527351796749829,0.6122529945830468
1684782931114003,0.6654764629587246,-0.7250476844434273,0.4855420767528802
1684782931130004,0.6966048676279852,-0.7881589990081634,0.5038529030289158
1684782931146005,0.6327611200122076,-0.6491187914854657,0.6580300602731368
1684782931162006,0.5120317387655451,-0.5025101091020066,0.492988479438468
1684782931178008,0.48737315938048376,-0.5132524605172808,0.390569924467842
1684782931194009,0.578072785534447,-0.672922865644312,0.26178377965972377
1684782931210010,0.5884489204242005,-0.585885404745556,0.36639963378347407
1684782931226011,0.5199664301518272,-0.46723125047684455,0.4939650568398566
1684782931242013,0.49457541771572444,-0.3999694819562065,0.4986037994964523
1684782931258014,0.5370565346761271,-0.4977492942702373,0.5261921110856793
1684782931274015,0.5949187457083998,-0.6182345311665522,0.5315632867933164
1684782931290016,0.5855191882200348,-0.6563210498207064,0.5296101319905393
1684782931306018,0.532539864194705,-0.5984588387884338,0.4948195620660716
1684782931322019,0.38666361486228773,-0.47602044708934166,0.4077821011673155
1684782931338020,0.31122301060502,-0.41547264820325003,0.44122987716487394
1684782931354021,0.29291218432898436,-0.4690623331044481,0.5885709925993741
1684782931370022,0.30609597924773,-0.5105668726634622,0.8084229800869762
1684782931386024,0.3057297627222093,-0.4160830090791179,0.8694590676737617
1684782931402038,0.3036545357442586,-0.19964904249637616,0.8749523155565724
1684782931418040,0.3705500877393755,-0.32257572289616254,0.7270008392462044
1684782931434042,0.432684824902724,-0.17523460746166153,0.8906996261539639
1684782931450043,0.5189898527504386,-0.28448920424200796,1.0194857709620813
1684782931466045,0.6297093156328684,-0.4101014724956129,0.8954604409857332
1684782931482047,0.6410620279240105,-0.34723430228122387,0.5956511787594412
1684782931498048,0.500679026474403,-0.11309987029831392,0.5593957427328906
1684782931514050,0.3969176775768677,-0.07598992904554835,0.7941405355916684
1684782931530052,0.3242847333485921,-0.039124132143129486,0.8542000457770653
1684782931546054,0.47943846799420164,0.03704890516517878,0.8288090333409626
1684782931562055,0.5137407492179751,0.03472953383688093,0.6094453345540547
1684782931578057,0.3247730220492864,0.430975814450294,1.1675593194476237
1684782931594059,0.5873502708476384,0.6188448920424197,1.7035782406347755
1684782931610060,0.6023651483939876,0.690135042343786,1.0917524986648353
1684782931626062,0.5347371633478293,0.7490959029526207,1.0791790646219575
1684782931642064,0.41303120469977905,0.5808804455634391,0.8423590447852289
1684782931658065,0.3142748149843593,0.37201495384145833,1.014724956130312
1684782931674067,0.28033875028610655,0.2532387273975738,1.0745403219653618
1684782931690069,0.2650797283894102,0.14337376974135996,0.8726329442282745
1684782931706071,0.22186617837796607,0.1906157015335319,0.7342030975814451
1684782931722076,0.3233081559472035,0.3599298084992748,0.9646753643091479
1684782931738078,0.4053406576638441,0.42304112306401187,0.8628671702143889
1684782931754079,0.4509956511787596,0.39337758449683413,0.6685282673380639
1684782931770081,0.4501411459525446,0.4131532768749526,0.7760738536659799
1684782931786083,0.4026550698100255,0.4098573281452662,0.8308842603189133
1684782931802085,0.41132219424734906,0.277653162432288,0.8623788815136946
1684782931818086,0.3678644998855569,0.40302128633554624,0.8456549935149154
1684782931834088,0.39752803845273554,0.40375371938658766,0.8563973449301896
1684782931850090,0.39716182192721483,0.46588845654993527,0.878736552986954
1684782931866091,0.44379339284351893,0.29217975127794293,0.7390859845883879
1684782931882093,0.4561226825360496,0.3297779812314028,0.6928206301976045
1684782931898095,0.4527046616311896,0.36139467460135766,0.8191653315022505
1684782931914096,0.44245059891660965,0.3734798199435412,0.973464560921645
1684782931930098,0.4312199588006411,0.32269779507133567,0.9916533150225071
1684782931946100,0.47602044708934166,0.2418860151064317,0.8863050278477154
1684782931962102,0.4968947890440223,0.2822919050888837,0.7545891508354314
1684782931978103,0.54023041123064,0.19342336156252404,0.6614480811779968
1684782931994105,0.5923552300297548,0.1809719996948198,0.7332265201800565
1684782932010107,0.5860074769207291,0.1801174944686048,0.7593499656672007
1684782932026108,0.5336385137712671,0.25018692301823453,0.789135576409552
1684782932042114,0.49420920119020373,0.27154955367360945,0.8139162279697869
1684782932058116,0.5102006561379415,0.27106126497291516,0.794262607766842
1684782932074117,0.5363241016250857,0.2339513237201496,0.7573968108644236
1684782932090119,0.5449912260624092,0.2234531166552225,0.7816891737239642
1684782932106121,0.5414511329823757,0.22027924010070965,0.8267338063630119
1684782932122122,0.5133745326924544,0.23529411764705888,0.8273441672388797
1684782932138124,0.5011673151750973,0.24933241779201953,0.8159914549477376
1684782932154126,0.5027542534523537,0.25848783093003735,0.8134279392690926
1684782932170127,0.4927443350881209,0.2653238727397573,0.8080567635614555
1684782932186129,0.48773937590600447,0.2754558632791637,0.8637216754406039
1684782932202131,0.48017090104524307,0.2678873884184023,0.8798352025635161
1684782932218133,0.4892042420080873,0.26190585183489734,0.8729991607537952
1684782932234134,0.4867627985046159,0.25897611963073164,0.8456549935149154
1684782932250136,0.4988479438467994,0.24115358205539028,0.8205081254291597
1684782932266138,0.5039749752040894,0.2453040360112917,0.8212405584802012
1684782932282139,0.48944838635843446,0.25885404745555807,0.8211184863050276
1684782932298141,0.46051728084229815,0.2730144197756923,0.8388189517051954
1684782932314143,0.47235828183413453,0.2797283894102387,0.8415045395590139
1684782932330145,0.48944838635843446,0.2621499961852445,0.8327153429465168
1684782932346146,0.5051956969558251,0.2537270160982681,0.7967040512703134
1684782932362182,0.5045853360799573,0.2448157473105974,0.8043945983062484
1684782932378184,0.4881055924315252,0.2586099031052109,0.8361333638513768
1684782932394186,0.47260242618448167,0.2654459449149309,0.8585946440833139
1684782932410187,0.460273136491951,0.2676432440680552,0.8544441901274125
1684782932426189,0.46686503395132384,0.2654459449149309,0.8268558785381854
1684782932442191,0.4741893644617381,0.2612954909590295,0.8255130846112761
1684782932458192,0.47614251926451523,0.2611734187838559,0.8281986724650947
1684782932474194,0.4607614251926453,0.26056305790798806,0.8510261692225525
1684782932490196,0.4435492484931718,0.2783855954833294,0.872510872053101
1684782932506198,0.45050736247806533,0.2620279240100709,0.8637216754406039
1684782932522199,0.4536812390325782,0.2632486457618066,0.8498054474708168
1684782932538201,0.4446478980697339,0.26861982146944374,0.8711680781261917
1684782932554203,0.430121309224079,0.2838788433661401,0.883009079118029
1684782932570204,0.43488212405584825,0.2771648737315937,0.8637216754406039
1684782932586206,0.44489204242008107,0.26520180056458376,0.8478522926680396
1684782932602208,0.4476997024490732,0.27240405889982444,0.8610360875867853
1684782932618209,0.43244068055237683,0.27106126497291516,0.877882047760739
1684782932634211,0.41974517433432545,0.2638590066376745,0.872510872053101
1684782932650213,0.4446478980697339,0.27325856412603944,0.8618905928130003
1684782932666215,0.4444037537193868,0.27533379110399014,0.8472419317921718
1684782932682220,0.4442816815442132,0.2688639658197909,0.8468757152666511
1684782932698222,0.45123979552910676,0.2625162127107652,0.8336919203479054
1684782932714223,0.4514839398794539,0.25470359349965666,0.8432135500114439
1684782932730225,0.43695735103379896,0.26898603799496446,0.8616464484626531
1684782932746227,0.4364690623331047,0.27203784237430373,0.8634775310902567
1684782932762229,0.44879835202563534,0.2616617074845502,0.8358892195010297
1684782932778230,0.4484321355001146,0.2612954909590295,0.8405279621576254
1684782932794232,0.43366140230411254,0.2783855954833294,0.860547798886091
1684782932810234,0.4380560006103611,0.27325856412603944,0.8550545510032803
1684782932826235,0.43817807278553467,0.26178377965972377,0.8465094987411304
1684782932842237,0.43353933012893897,0.26398107881284805,0.8744640268558781
1684782932858239,0.424139772640574,0.277653162432288,0.8781261921110861
1684782932874241,0.4291447318226904,0.2695963988708323,0.8645761806668188
1684782932890242,0.42694743266956614,0.26776531624322875,0.8533455405508503
1684782932906244,0.42352941176470615,0.27484550240329586,0.8640878919661246
1684782932922246,0.426703288319219,0.2746013580529487,0.8606698710612646
1684782932938247,0.42523842221713615,0.27069504844739445,0.858838788433661
1684782932954249,0.42145418478675545,0.2680094605935759,0.867383840695811
1684782932970251,0.4169375143053333,0.27277027542534515,0.8855725947966739
1684782932986252,0.4175478751812012,0.27228198672465087,0.8727550164034481
1684782933002258,0.41815823605706903,0.27618829633020514,0.862256809338521
1684782933018260,0.42194247348744973,0.2667887388418402,0.8600595101853967
1684782933034261,0.4137636377508205,0.2688639658197909,0.8678721293965053
1684782933050263,0.41522850385290333,0.2738689250019073,0.8695811398489353
1684782933066265,0.4179140917067219,0.2697184710460059,0.8715342946517124
1684782933082266,0.4129091325246055,0.2700846875715266,0.8664072632944224
1684782933098268,0.4081483176928362,0.274235141527428,0.8720225833524067
1684782933114270,0.41339742122529977,0.271671625848783,0.8653086137178603
1684782933130272,0.40668345159075336,0.27484550240329586,0.8700694285496295
1684782933146273,0.40888075074387764,0.2688639658197909,0.8710460059510181
1684782933162275,0.4107118333714812,0.2678873884184023,0.873365377279316
1684782933178277,-0.03265430685893023,0.34674601358052914,0.7188220035095751
1684782933194278,0.42609292744335114,0.24078736552986957,0.9713893339436943
1684782933210280,0.4242618448157476,0.24701304646372169,0.9086442359044788
1684782933226282,0.2548256656748302,0.2348058289463646,0.8880140383001454
1684782933242283,0.43830014496070824,0.2612954909590295,0.9939726863508049
1684782933258285,0.4086366063935305,0.25555809872587165,1.0124055848020141
1684782933274287,0.3717708094911112,0.27069504844739445,0.8234378576333254
1684782933290289,0.38483253223468417,0.2586099031052109,0.946730754558633
1684782933306290,0.4070496681162741,0.22186617837796607,0.8910658426794846
1684782933322296,0.4129091325246055,0.2310215915159839,0.8449225604638739
1684782933338297,0.41718165865568047,0.2296787975890746,0.8688487067978938
1684782933354299,0.40289921416037267,0.23871213855191886,0.8855725947966739
1684782933370301,0.3993591210803391,0.23675898374914173,0.8898451209277489
1684782933386303,0.4027771419851991,0.2318760967421989,0.8870374608987568
1684782933402304,0.39874876020447125,0.2318760967421989,0.8908216983291375
1684782933418306,0.3981383993286034,0.2356603341725796,0.8798352025635161
1684782933434308,0.4024109254596784,0.2377355611505303,0.8845960173952854
1684782933450309,0.40766002899214193,0.23443961242084388,0.8737315938048367
1684782933466311,0.3989929045548184,0.23993286030365457,0.8820325017166404
1684782933482313,0.40009155413138053,0.23358510719462888,0.8844739452201118
1684782933498314,0.3989929045548184,0.23651483939879459,0.8875257495994511
1684782933514316,0.4007019150072484,0.23834592202639815,0.8781261921110861
1684782933530318,0.39716182192721483,0.23663691157396816,0.8900892652780961
1684782933546320,0.39618524452582626,0.23675898374914173,0.8961928740367746
1684782933562321,0.39618524452582626,0.23736934462500958,0.8915541313801789
1684782933578323,0.4022888532845048,0.24371709773403527,0.8878919661249718
1684782933594325,0.3993591210803391,0.2377355611505303,0.8827649347676818
1684782933610326,0.4005798428320748,0.2368810559243153,0.8771496147096975
1684782933626328,0.40424200808728195,0.23749141680018315,0.8837415121690704
1684782933642334,0.4015564202334634,0.24725719081406883,0.8844739452201118
1684782933658335,0.3972838941023884,0.2385900663767453,0.8809338521400782
1684782933674337,0.3989929045548184,0.23639276722362101,0.8880140383001454
1684782933690339,0.4015564202334634,0.23578240634775316,0.882154573891814
1684782933706340,0.39996948195620696,0.24750133516441597,0.8856946669718475
1684782933722342,0.397405966277562,0.23846799420157172,0.8806897077897311
1684782933738344,0.3977721828030827,0.23443961242084388,0.8872816052491039
1684782933754346,0.39911497672999197,0.23883421072709243,0.8880140383001454
1684782933770347,0.40167849240863696,0.24139772640573742,0.8815442130159461
1684782933786349,0.3998474097810334,0.238101777676051,0.8772716868848711
1684782933802351,0.40204470893415767,0.22833600366216533,0.8780041199359125
1684782933818352,0.39789425497825626,0.24029907682917528,0.8948500801098653
1684782933834354,0.4015564202334634,0.23212024109254603,0.8806897077897311
1684782933850356,0.3993591210803391,0.24200808728160528,0.8841077286945911
1684782933866357,0.394842450598917,0.23761348897535672,0.8964370183871218
1684782933882359,0.3955748836499584,0.2453040360112917,0.8864271000228889
1684782933898361,0.39838254367895054,0.2394445716029603,0.8841077286945911
1684782933914363,0.395696955825132,0.23822384985122458,0.8848401617456325
1684782933930364,0.3938658731975284,0.24493781948577098,0.879591058213169
1684782933946366,0.3947203784237434,0.23651483939879459,0.8878919661249718
1684782933962402,0.3964293888761734,0.24310673685816742,0.8931410696574353
1684782933978404,0.39252307927061914,0.24469367513542384,0.8867933165484096
1684782933994405,0.3926451514457927,0.23761348897535672,0.8882581826504925
1684782934010407,0.3977721828030827,0.2330968184939346,0.879591058213169
1684782934026409,0.39423208972304913,0.24249637598229956,0.8932631418326089
1684782934042410,0.39252307927061914,0.2410315098802167,0.8810559243152518
1684782934058412,0.3927672236209663,0.23504997329671173,0.8858167391470211
1684782934074414,0.39166857404440414,0.23627069504844744,0.881300068665599
1684782934090416,0.39533073929961127,0.23736934462500958,0.897779812314031
1684782934106417,0.38702983138780844,0.2418860151064317,0.8866712443732361
1684782934122419,0.38995956359197415,0.23712520027466244,0.8936293583581296
1684782934138421,0.394842450598917,0.23797970550087744,0.849439230945296
1684782934154422,0.3926451514457927,0.23212024109254603,0.8947280079346918
1684782934170424,0.38202487220569203,0.24029907682917528,0.892652780956741
1684782934186426,0.392278934920272,0.2305333028152896,0.880445563439384
1684782934202427,0.39044785229266843,0.23260852979324032,0.8959487296864275
1684782934218429,0.38739604791332916,0.23590447852292673,0.8921644922560468
1684782934234431,0.38617532616159345,0.2368810559243153,0.8914320592050053
1684782934250433,0.39581902800030555,0.22369726100556964,0.8817883573662932
1684782934266434,0.3822690165560392,0.24115358205539028,0.9036392767223624
1684782934282440,0.3831235217822542,0.238956282902266,0.8910658426794846
1684782934298442,0.3892271305409327,0.23163195239185175,0.8906996261539639
1684782934314443,0.38873884184023844,0.2343175402456703,0.8875257495994511
1684782934330445,0.38483253223468417,0.23614862287327387,0.8896009765774018
1684782934346447,0.38739604791332916,0.22992294193942175,0.8966811627374689
1684782934362448,0.38287937743190703,0.2334630350194553,0.8927748531319146
1684782934378450,0.39252307927061914,0.23089951934081032,0.8842298008697647
1684782934394452,0.388860914015412,0.237247272449836,0.8859388113221947
1684782934410453,0.3816586556801713,0.23334096284428174,0.8949721522850389
1684782934426455,0.3875181200885027,0.2330968184939346,0.8911879148546582
1684782934442457,0.38825055313954415,0.22796978713664462,0.8920424200808732
1684782934458459,0.3843442435339899,0.23321889066910817,0.8942397192339975
1684782934474460,0.38104829480430347,0.23370717936980245,0.9002212558175025
1684782934490462,0.3892271305409327,0.22711528191042962,0.8936293583581296
1684782934506464,0.38446631570916345,0.23175402456702532,0.8908216983291375
1684782934522465,0.38947127489127986,0.23553826199740602,0.8611581597619589
1684782934538467,0.38654154268711416,0.22662699320973534,0.8949721522850389
1684782934554469,0.387151903562982,0.23212024109254603,0.8944838635843446
1684782934570470,0.3816586556801713,0.2310215915159839,0.8959487296864275
1684782934586472,0.38153658350499775,0.22333104448004892,0.9000991836423289
1684782934602478,0.38361181048294846,0.22711528191042962,0.8948500801098653
1684782934618479,0.38483253223468417,0.22662699320973534,0.8885023270008396
1684782934634481,0.3825131609063863,0.2318760967421989,0.8963149462119482
1684782934650483,0.3838559548332956,0.2267490653849089,0.8913099870298318
1684782934666484,0.3834897383077749,0.22796978713664462,0.8964370183871218
1684782934682486,0.38287937743190703,0.22699320973525605,0.8971694514381632
1684782934698488,0.3808041504539563,0.2305333028152896,0.8915541313801789
1684782934714490,0.3830014496070806,0.22027924010070965,0.8893568322270546
1684782934730491,0.38019378957808847,0.22491798275730535,0.894361791409171
1684782934746493,0.38239108873121275,0.22613870450904106,0.894361791409171
1684782934762495,0.383733882658122,0.2243076218814375,0.8941176470588239
1684782934778496,0.38202487220569203,0.2258945601586939,0.9047379262989246
1684782934794498,0.37994964522774133,0.22858014801251247,0.8941176470588239
1684782934810500,0.3793392843518735,0.2318760967421989,0.9016861219195853
1684782934826501,0.3757991912718399,0.22784771496147105,0.8996108949416346
1684782934842503,0.3816586556801713,0.22455176623178463,0.8949721522850389
1684782934858505,0.3793392843518735,0.2246738384069582,0.8903334096284432
1684782934874507,0.37982757305256776,0.2322423132677196,0.8963149462119482
1684782934890508,0.38361181048294846,0.22333104448004892,0.8982681010147253
1684782934906510,0.3792172121766999,0.2330968184939346,0.8947280079346918
1684782934922515,0.38031586175326204,0.22577248798352034,0.9007095445181967
1684782934938517,0.3822690165560392,0.2255283436331732,0.8928969253070882
1684782934954519,0.3779964904249642,0.2318760967421989,0.8976577401388575
1684782934970521,0.3805600061036092,0.2267490653849089,0.8982681010147253
1684782934986522,0.3797055008773942,0.2289463645380332,0.899488822766461
1684782935002524,0.38031586175326204,0.22943465323872747,0.8948500801098653
1684782935018526,0.38117036697947704,0.2313878080415046,0.8928969253070882
1684782935034527,0.3800717174029149,0.2305333028152896,0.8947280079346918
1684782935050529,0.37640955214770777,0.22748149843595034,0.9065690089265281
1684782935066531,0.38068207827878275,0.22882429236285962,0.8968032349126425
1684782935082533,0.3817807278553449,0.22870222018768604,0.8925307087815675
1684782935098534,0.37726405737392277,0.22919050888838033,0.8975356679636839
1684782935114536,0.38031586175326204,0.22906843671320676,0.899488822766461
1684782935130538,0.38361181048294846,0.2289463645380332,0.8946059357595182
1684782935146539,0.3831235217822542,0.22333104448004892,0.8893568322270546
1684782935162541,0.3767757686732285,0.23199816891737246,0.8965590905622953
1684782935178543,0.38446631570916345,0.23382925154497602,0.8886243991760132
1684782935194544,0.3834897383077749,0.22955672541390104,0.8889906157015339
1684782935210546,0.3787289234760056,0.23114366369115746,0.8958266575112539
1684782935226548,0.3816586556801713,0.23212024109254603,0.8971694514381632
1684782935242553,0.38190280003051846,0.22491798275730535,0.9002212558175025
1684782935258555,0.3733577477683676,0.23785763332570387,0.8997329671168082
1684782935274557,0.3778744182497906,0.23285267414358746,0.8920424200808732
1684782935290558,0.38446631570916345,0.2289463645380332,0.8889906157015339
1684782935306560,0.3805600061036092,0.23443961242084388,0.8920424200808732
1684782935322562,0.3838559548332956,0.23028915846494247,0.8968032349126425
1684782935338564,0.38031586175326204,0.2208896009765775,0.8957045853360803
1684782935354565,0.37946135652704704,0.23541618982223245,0.8976577401388575
1684782935370567,0.3822690165560392,0.2334630350194553,0.8908216983291375
1684782935386569,0.3775082017242699,0.23212024109254603,0.8972915236133368
1684782935402570,0.3784847791256585,0.23150988021667818,0.8957045853360803
1684782935418572,0.3831235217822542,0.2289463645380332,0.8894789044022282
1684782935434574,0.38153658350499775,0.23114366369115746,0.9008316166933703
1684782935450575,0.3788509956511792,0.23126573586633103,0.8979018844892046
1684782935466577,0.38104829480430347,0.23028915846494247,0.8971694514381632
1684782935482579,0.3814145113298242,0.2280918593118182,0.8930189974822618
1684782935498581,0.3750667582207985,0.22479591058213177,0.9014419775692382
1684782935514582,0.3750667582207985,0.23199816891737246,0.9098649576562146
1684782935530584,0.3797055008773942,0.23285267414358746,0.8928969253070882
1684782935546586,0.3805600061036092,0.2310215915159839,0.8915541313801789
1684782935562622,0.3757991912718399,0.23065537499046318,0.8996108949416346
1684782935578624,0.3759212634470135,0.23041123064011604,0.9008316166933703
1684782935594626,0.3784847791256585,0.22748149843595034,0.9016861219195853
1684782935610628,0.3766536964980549,0.23248645761806674,0.896925307087816
1684782935626630,0.3817807278553449,0.22955672541390104,0.8927748531319146
1684782935642633,0.3788509956511792,0.23114366369115746,0.8980239566643782
1684782935658635,0.38031586175326204,0.23028915846494247,0.893507286182956
1684782935674637,0.37994964522774133,0.22955672541390104,0.8965590905622953
1684782935690639,0.3783627069504849,0.23212024109254603,0.8963149462119482
1684782935706641,0.37653162432288134,0.23443961242084388,0.897779812314031
1684782935722643,0.3814145113298242,0.22858014801251247,0.8949721522850389
1684782935738646,0.3816586556801713,0.2322423132677196,0.8938735027084768
1684782935754648,0.3787289234760056,0.23126573586633103,0.8961928740367746
1684782935770650,0.3767757686732285,0.23407339589532317,0.896925307087816
1684782935786652,0.38239108873121275,0.23077744716563675,0.8941176470588239
1684782935802654,0.3812924391546506,0.23248645761806674,0.8925307087815675
1684782935818657,0.3800717174029149,0.23443961242084388,0.8947280079346918
1684782935834659,0.38190280003051846,0.2310215915159839,0.8955825131609068
1684782935850661,0.3793392843518735,0.23382925154497602,0.892652780956741
1684782935866663,0.3793392843518735,0.2318760967421989,0.8946059357595182
1684782935882660,0.38117036697947704,0.22870222018768604,0.8988784618905932
1684782935898662,0.37567711909666635,0.23541618982223245,0.9016861219195853
1684782935914664,0.38068207827878275,0.23163195239185175,0.895216296635386
1684782935930666,0.3783627069504849,0.23443961242084388,0.8886243991760132
1684782935946668,0.3792172121766999,0.2348058289463646,0.8988784618905932
1684782935962670,0.37946135652704704,0.23126573586633103,0.8968032349126425
1684782935978673,0.37994964522774133,0.2313878080415046,0.8937514305333032
1684782935994675,0.37946135652704704,0.22870222018768604,0.8932631418326089
1684782936010677,0.37860685130083205,0.2296787975890746,0.8908216983291375
1684782936026679,0.3804379339284356,0.23370717936980245,0.9035172045471889
1684782936042681,0.3817807278553449,0.23041123064011604,0.8883802548256661
1684782936058683,0.3779964904249642,0.23456168459601745,0.8900892652780961
1684782936074686,0.3825131609063863,0.23114366369115746,0.8948500801098653
1684782936090688,0.37811856260013776,0.2348058289463646,0.8975356679636839
1684782936106690,0.3779964904249642,0.2322423132677196,0.8959487296864275
1684782936122692,0.37994964522774133,0.23175402456702532,0.893507286182956
1684782936138694,0.3800717174029149,0.23297474631876103,0.8953383688105596
1684782936154697,0.38202487220569203,0.23504997329671173,0.8949721522850389
1684782936170699,0.3792172121766999,0.2322423132677196,0.8949721522850389
1684782936186701,0.3762874799725342,0.23285267414358746,0.8959487296864275
1684782936202697,0.3795834287022206,0.2296787975890746,0.9000991836423289
1684782936218700,0.3770199130235756,0.23541618982223245,0.8985122453650725
1684782936234702,0.38068207827878275,0.23285267414358746,0.8925307087815675
1684782936250704,0.3808041504539563,0.2318760967421989,0.8942397192339975
1684782936266706,0.3778744182497906,0.23260852979324032,0.8983901731898989
1684782936282708,0.37994964522774133,0.23456168459601745,0.892652780956741
1684782936298710,0.38031586175326204,0.23334096284428174,0.8898451209277489
1684782936314713,0.3787289234760056,0.2334630350194553,0.8906996261539639
1684782936330715,0.3797055008773942,0.23382925154497602,0.8959487296864275
1684782936346717,0.3793392843518735,0.2305333028152896,0.897779812314031
1684782936362719,0.3771419851987492,0.23419546807049674,0.8953383688105596
1684782936378721,0.3808041504539563,0.2305333028152896,0.8939955748836503
1684782936394724,0.3784847791256585,0.23443961242084388,0.8906996261539639
1684782936410726,0.37982757305256776,0.23212024109254603,0.8971694514381632
1684782936426728,0.3792172121766999,0.23468375677119102,0.8947280079346918
1684782936442730,0.37824063477531134,0.23114366369115746,0.898634317540246
1684782936458732,0.3783627069504849,0.23041123064011604,0.8946059357595182
1684782936474734,0.3787289234760056,0.23321889066910817,0.8950942244602125
1684782936490737,0.37824063477531134,0.23285267414358746,0.896070801861601
1684782936506739,0.37775234607461705,0.2334630350194553,0.8959487296864275
1684782936522735,0.37811856260013776,0.23028915846494247,0.8953383688105596
1684782936538737,0.37726405737392277,0.23321889066910817,0.8990005340657667
1684782936554740,0.38068207827878275,0.23443961242084388,0.8941176470588239
1684782936570742,0.37738612954909634,0.23419546807049674,0.8947280079346918
1684782936586744,0.38019378957808847,0.23028915846494247,0.8931410696574353
1684782936602746,0.3804379339284356,0.23248645761806674,0.8947280079346918
1684782936618748,0.37775234607461705,0.23529411764705888,0.8983901731898989
1684782936634750,0.37616540779736063,0.22650492103456177,0.8855725947966739
1684782936650753,0.37982757305256776,0.23004501411459533,0.9014419775692382
1684782936666755,0.38068207827878275,0.23114366369115746,0.8982681010147253
1684782936682757,0.3757991912718399,0.23370717936980245,0.8979018844892046
1684782936698759,0.3770199130235756,0.23114366369115746,0.8982681010147253
1684782936714761,0.3812924391546506,0.23089951934081032,0.8905775539787903
1684782936730764,0.38031586175326204,0.2356603341725796,0.8959487296864275
1684782936746766,0.3793392843518735,0.23334096284428174,0.893507286182956
1684782936762768,0.37824063477531134,0.2289463645380332,0.8937514305333032
1684782936778770,0.3771419851987492,0.23285267414358746,0.8947280079346918
1684782936794772,0.3797055008773942,0.23614862287327387,0.898634317540246
1684782936810774,0.3817807278553449,0.2330968184939346,0.8903334096284432
1684782936826777,0.3793392843518735,0.23273060196841389,0.8955825131609068
1684782936842804,0.3793392843518735,0.2310215915159839,0.8954604409857332
1684782936858806,0.38019378957808847,0.23065537499046318,0.8985122453650725
1684782936874808,0.37640955214770777,0.23443961242084388,0.8972915236133368
1684782936890810,0.3784847791256585,0.22919050888838033,0.8937514305333032
1684782936906812,0.3778744182497906,0.23541618982223245,0.8966811627374689
1684782936922814,0.3814145113298242,0.23077744716563675,0.8947280079346918
1684782936938817,0.3766536964980549,0.2339513237201496,0.8947280079346918
1684782936954819,0.38153658350499775,0.22735942626077676,0.8946059357595182
1684782936970821,0.37738612954909634,0.23504997329671173,0.8949721522850389
1684782936986823,0.37909514000152633,0.23212024109254603,0.8955825131609068
1684782937002825,0.37689784084840205,0.23163195239185175,0.896925307087816
1684782937018828,0.37445639734492975,0.2339513237201496,0.8991226062409403
1684782937034830,0.3787289234760056,0.23041123064011604,0.8946059357595182
1684782937050832,0.37726405737392277,0.23297474631876103,0.895216296635386
1684782937066834,0.37860685130083205,0.2322423132677196,0.8957045853360803
1684782937082836,0.37689784084840205,0.23248645761806674,0.893507286182956
1684782937098838,0.3787289234760056,0.23321889066910817,0.8922865644312203
1684782937114841,0.37860685130083205,0.23492790112153816,0.896070801861601
1684782937130843,0.37518883039597206,0.2322423132677196,0.8976577401388575
1684782937146845,0.3762874799725342,0.23004501411459533,0.8980239566643782
1684782937162841,0.3792172121766999,0.22980086976424818,0.8966811627374689
1684782937178844,0.3757991912718399,0.23285267414358746,0.898634317540246
1684782937194846,0.3762874799725342,0.23529411764705888,0.8972915236133368
1684782937210848,0.37604333562218706,0.2360265506981003,0.8947280079346918
1684782937226850,0.37824063477531134,0.23163195239185175,0.8949721522850389
1684782937242852,0.3776302738994435,0.23199816891737246,0.8966811627374689
1684782937258854,0.37616540779736063,0.23334096284428174,0.8958266575112539
1684782937274857,0.3788509956511792,0.23199816891737246,0.8950942244602125
1684782937290859,0.3775082017242699,0.23248645761806674,0.8957045853360803
1684782937306861,0.37567711909666635,0.22882429236285962,0.8993667505912875
1684782937322863,0.37640955214770777,0.23199816891737246,0.9018081940947589
1684782937338865,0.3783627069504849,0.23456168459601745,0.8961928740367746
1684782937354868,0.3770199130235756,0.23504997329671173,0.8930189974822618
1684782937370870,0.38117036697947704,0.2276035706111239,0.8937514305333032
1684782937386872,0.3757991912718399,0.23028915846494247,0.8947280079346918
1684782937402874,0.3778744182497906,0.2313878080415046,0.9013199053940646
1684782937418876,0.3770199130235756,0.23212024109254603,0.8924086366063939
1684782937434878,0.37811856260013776,0.23358510719462888,0.8948500801098653
1684782937450881,0.37824063477531134,0.2343175402456703,0.8941176470588239
1684782937466883,0.37604333562218706,0.23627069504844744,0.8947280079346918
1684782937482879,0.38068207827878275,0.2305333028152896,0.8919203479056996
1684782937498881,0.3767757686732285,0.2356603341725796,0.8944838635843446
1684782937514884,0.3745784695201033,0.23590447852292673,0.8980239566643782
1684782937530886,0.38031586175326204,0.2272373540856032,0.8947280079346918
1684782937546888,0.3767757686732285,0.2296787975890746,0.8999771114671553
1684782937562890,0.3812924391546506,0.22992294193942175,0.9009536888685439
1684782937578892,0.37860685130083205,0.23443961242084388,0.8942397192339975
1684782937594895,0.37689784084840205,0.23614862287327387,0.8957045853360803
1684782937610897,0.3779964904249642,0.23443961242084388,0.8936293583581296
1684782937626899,0.37616540779736063,0.2296787975890746,0.8869153887235832
1684782937642901,0.3812924391546506,0.23260852979324032,0.8979018844892046
1684782937658903,0.37994964522774133,0.2356603341725796,0.895216296635386
1684782937674905,0.38031586175326204,0.23260852979324032,0.8896009765774018
1684782937690908,0.38275730525673346,0.23736934462500958,0.8915541313801789
1684782937706910,0.38153658350499775,0.23614862287327387,0.8946059357595182
1684782937722912,0.3767757686732285,0.238956282902266,0.8985122453650725
1684782937738914,0.3793392843518735,0.23199816891737246,0.8965590905622953
1684782937754916,0.3816586556801713,0.2334630350194553,0.8915541313801789
1684782937770918,0.3779964904249642,0.23736934462500958,0.8939955748836503
1684782937786921,0.3800717174029149,0.23150988021667818,0.8938735027084768
1684782937802917,0.38117036697947704,0.23419546807049674,0.8922865644312203
1684782937818919,0.3826352330815599,0.23407339589532317,0.8921644922560468
1684782937834921,0.3808041504539563,0.23846799420157172,0.8954604409857332
1684782937850924,0.3805600061036092,0.23651483939879459,0.8927748531319146
1684782937866926,0.3812924391546506,0.23273060196841389,0.8932631418326089
1684782937882928,0.3787289234760056,0.23468375677119102,0.8979018844892046
1684782937898930,0.3795834287022206,0.2356603341725796,0.8964370183871218
1684782937914932,0.38104829480430347,0.23285267414358746,0.8925307087815675
1684782937930935,0.37994964522774133,0.2356603341725796,0.8947280079346918
1684782937946937,0.3804379339284356,0.23504997329671173,0.893507286182956
1684782937962939,0.38031586175326204,0.23468375677119102,0.8939955748836503
1684782937978941,0.38068207827878275,0.23248645761806674,0.8932631418326089
1684782937994943,0.3805600061036092,0.23236438544289317,0.8932631418326089
1684782938010945,0.37994964522774133,0.23590447852292673,0.8972915236133368
1684782938026948,0.3783627069504849,0.2368810559243153,0.8931410696574353
1684782938042950,0.37616540779736063,0.23492790112153816,0.8954604409857332
1684782938058952,0.3771419851987492,0.23456168459601745,0.8953383688105596
1684782938074954,0.3808041504539563,0.23273060196841389,0.8966811627374689
1684782938090956,0.3795834287022206,0.23578240634775316,0.896925307087816
1684782938106958,0.3783627069504849,0.2351720454718853,0.8930189974822618
1684782938122985,0.3787289234760056,0.23273060196841389,0.8922865644312203
1684782938138988,0.3778744182497906,0.23553826199740602,0.8981460288395517
1684782938154990,0.3778744182497906,0.23590447852292673,0.8971694514381632
1684782938170992,0.37616540779736063,0.23492790112153816,0.8954604409857332
1684782938186994,0.3771419851987492,0.23199816891737246,0.896925307087816
1684782938202996,0.37726405737392277,0.23260852979324032,0.902052338445106
1684782938218999,0.37775234607461705,0.2360265506981003,0.8947280079346918
1684782938235001,0.3784847791256585,0.238101777676051,0.8922865644312203
1684782938251003,0.37994964522774133,0.23334096284428174,0.8933852140077825
1684782938267005,0.3770199130235756,0.23407339589532317,0.894361791409171
1684782938283007,0.3793392843518735,0.23419546807049674,0.8987563897154196
1684782938299009,0.3788509956511792,0.23468375677119102,0.8961928740367746
1684782938315012,0.37616540779736063,0.23553826199740602,0.8933852140077825
1684782938331014,0.3787289234760056,0.23468375677119102,0.8928969253070882
1684782938347016,0.3792172121766999,0.23797970550087744,0.8958266575112539
1684782938363018,0.3793392843518735,0.23321889066910817,0.8959487296864275
1684782938379020,0.37909514000152633,0.23358510719462888,0.8970473792629896
1684782938395022,0.37775234607461705,0.2351720454718853,0.8949721522850389
1684782938411025,0.3788509956511792,0.23663691157396816,0.8987563897154196
1684782938427027,0.3779964904249642,0.23761348897535672,0.894361791409171
1684782938443023,0.3797055008773942,0.23590447852292673,0.8931410696574353
1684782938459025,0.37775234607461705,0.23675898374914173,0.8957045853360803
1684782938475028,0.3830014496070806,0.2343175402456703,0.8924086366063939
1684782938491030,0.38117036697947704,0.23993286030365457,0.8883802548256661
1684782938507032,0.38202487220569203,0.23749141680018315,0.8893568322270546
1684782938523034,0.3787289234760056,0.23846799420157172,0.8932631418326089
1684782938539036,0.38019378957808847,0.23846799420157172,0.8927748531319146
1684782938555039,0.3771419851987492,0.2401770046540017,0.8961928740367746
1684782938571041,0.3771419851987492,0.23846799420157172,0.8957045853360803
1684782938587043,0.3826352330815599,0.23749141680018315,0.8904554818036168
1684782938603045,0.38019378957808847,0.23761348897535672,0.8937514305333032
1684782938619047,0.3784847791256585,0.2410315098802167,0.8942397192339975
1684782938635049,0.37653162432288134,0.24042114900434886,0.8971694514381632
1684782938651052,0.38287937743190703,0.2356603341725796,0.8909437705043111
1684782938667054,0.3816586556801713,0.23932249942778672,0.8944838635843446
1684782938683056,0.3808041504539563,0.24005493247882814,0.8924086366063939
1684782938699058,0.38117036697947704,0.23736934462500958,0.8892347600518811
1684782938715060,0.38287937743190703,0.23712520027466244,0.8942397192339975
1684782938731063,0.3814145113298242,0.24005493247882814,0.8942397192339975
1684782938747065,0.37567711909666635,0.2356603341725796,0.883009079118029
1684782938763061,0.383733882658122,0.23712520027466244,0.8894789044022282
1684782938779063,0.38580910963607273,0.23834592202639815,0.8887464713511868
1684782938795066,0.38446631570916345,0.237247272449836,0.8872816052491039
1684782938811068,0.3792172121766999,0.23822384985122458,0.8942397192339975
1684782938827070,0.3800717174029149,0.23370717936980245,0.8953383688105596
1684782938843072,0.3808041504539563,0.23749141680018315,0.8928969253070882
1684782938859074,0.38397802700846917,0.24005493247882814,0.8899671931029225
1684782938875076,0.37775234607461705,0.24493781948577098,0.8922865644312203
1684782938891079,0.3793392843518735,0.24176394293125814,0.8933852140077825
1684782938907081,0.3792172121766999,0.23651483939879459,0.898634317540246
1684782938923083,0.3770199130235756,0.24261844815747313,0.8961928740367746
1684782938939085,0.38397802700846917,0.23920042725261315,0.894361791409171
1684782938955087,0.3831235217822542,0.241519798580911,0.8866712443732361
1684782938971089,0.38239108873121275,0.24213015945677885,0.8886243991760132
1684782938987092,0.38068207827878275,0.24127565423056385,0.8939955748836503
1684782939003094,0.37946135652704704,0.24347295338368813,0.8916762035553525
1684782939019096,0.3797055008773942,0.2444495307850767,0.8919203479056996
1684782939035098,0.3834897383077749,0.23907835507743957,0.8903334096284432
1684782939051100,0.38275730525673346,0.24432745860990313,0.8904554818036168
1684782939067103,0.38275730525673346,0.24286259250782027,0.8916762035553525
1684782939083099,0.38397802700846917,0.238956282902266,0.8887464713511868
1684782939099101,0.3793392843518735,0.24554818036163883,0.8949721522850389
1684782939115103,0.3867856870374613,0.24225223163195242,0.8899671931029225
1684782939131106,0.38690775921263487,0.24603646906233312,0.8864271000228889
1684782939147108,0.38483253223468417,0.2518959334706645,0.8898451209277489
1684782939163110,0.38568703746089916,0.242374303807126,0.8848401617456325
1684782939179112,0.38532082093537845,0.24139772640573742,0.8983901731898989
1684782939195114,0.38617532616159345,0.2561684596017395,0.820141908903639
1684782939211116,0.3834897383077749,0.24798962386511025,0.9115739681086446
1684782939227119,0.38287937743190703,0.24750133516441597,0.896925307087816
1684782939243121,0.3843442435339899,0.24408331425955598,0.893507286182956
1684782939259123,0.3838559548332956,0.24762340733958954,0.8886243991760132
1684782939275125,0.38568703746089916,0.2503089951934081,0.8845960173952854
1684782939291127,0.3850766765850313,0.24725719081406883,0.8863050278477154
1684782939307129,0.385442893110552,0.2453040360112917,0.8898451209277489
1684782939323132,0.38287937743190703,0.2477454795147631,0.8897230487525754
1684782939339134,0.38153658350499775,0.24457160296025027,0.8917982757305261
1684782939355136,0.38190280003051846,0.2494544899671931,0.8892347600518811
1684782939371138,0.38654154268711416,0.24933241779201953,0.8877698939497982
1684782939387140,0.383733882658122,0.2525062943465324,0.8860608834973682
1684782939403167,0.3855649652857256,0.25091935606927596,0.8827649347676818
1684782939419170,0.3881284809643706,0.2477454795147631,0.8872816052491039
1684782939435172,0.384588387884337,0.24579232471198598,0.8911879148546582
1684782939451174,0.38446631570916345,0.24762340733958954,0.8885023270008396
1684782939467176,0.3834897383077749,0.24982070649271382,0.8881361104753189
1684782939483178,0.385442893110552,0.24933241779201953,0.8828870069428554
1684782939499180,0.388006408789197,0.2465247577630274,0.8854505226215004
1684782939515183,0.38153658350499775,0.2575112535286488,0.8927748531319146
1684782939531185,0.38397802700846917,0.25018692301823453,0.8872816052491039
1684782939547187,0.3867856870374613,0.24603646906233312,0.8874036774242775
1684782939563189,0.38410009918364274,0.24896620126649882,0.8877698939497982
1684782939579191,0.385442893110552,0.24982070649271382,0.8913099870298318
1684782939595193,0.38483253223468417,0.24786755168993668,0.8910658426794846
1684782939611196,0.3851987487602049,0.24884412909132525,0.8899671931029225
1684782939627198,0.38947127489127986,0.24835584039063097,0.883863584344244
1684782939643200,0.388006408789197,0.24921034561684596,0.8815442130159461
1684782939659202,0.38483253223468417,0.24896620126649882,0.8832532234683761
1684782939675204,0.38654154268711416,0.24872205691615168,0.8887464713511868
1684782939691207,0.38580910963607273,0.2499427786678874,0.8874036774242775
1684782939707209,0.3860532539864199,0.2477454795147631,0.8896009765774018
1684782939723205,0.38397802700846917,0.25140764476997024,0.8870374608987568
1684782939739207,0.3850766765850313,0.2510414282444495,0.8861829556725418
1684782939755210,0.38532082093537845,0.24933241779201953,0.8876478217746246
1684782939771212,0.38324559395742774,0.2510414282444495,0.8896009765774018
1684782939787214,0.3842221713588163,0.2482337682154574,0.8900892652780961
1684782939803216,0.3851987487602049,0.2494544899671931,0.8877698939497982
1684782939819218,0.38495460440985774,0.24676890211337454,0.8864271000228889
1684782939835220,0.38275730525673346,0.25140764476997024,0.8944838635843446
1684782939851223,0.38397802700846917,0.24969863431754025,0.8843518730449382
1684782939867225,0.3855649652857256,0.24640268558785383,0.8900892652780961
1684782939883227,0.384588387884337,0.2499427786678874,0.8913099870298318
1684782939899229,0.38324559395742774,0.2465247577630274,0.8916762035553525
1684782939915231,0.3834897383077749,0.2511635004196231,0.8871595330739304
1684782939931234,0.3847104600595106,0.2515297169451438,0.8906996261539639
1684782939947236,0.38568703746089916,0.25055313954375524,0.8887464713511868
1684782939963238,0.3842221713588163,0.24921034561684596,0.8887464713511868
1684782939979240,0.3860532539864199,0.24713511863889526,0.8900892652780961
1684782939995242,0.38776226443884987,0.2507972838941024,0.8858167391470211
1684782940011244,0.38580910963607273,0.25018692301823453,0.8878919661249718
1684782940027247,0.3851987487602049,0.2515297169451438,0.8865491721980625
1684782940043274,0.38568703746089916,0.24957656214236668,0.8842298008697647
1684782940059276,0.3860532539864199,0.2504310673685817,0.8865491721980625
1684782940075278,0.38580910963607273,0.2504310673685817,0.8886243991760132
1684782940091280,0.38483253223468417,0.24957656214236668,0.8880140383001454
1684782940107282,0.3884946974898913,0.24249637598229956,0.8856946669718475
1684782940123284,0.3831235217822542,0.2532387273975738,0.8898451209277489
1684782940139287,0.38397802700846917,0.2516517891203174,0.8902113374532696
1684782940155289,0.38568703746089916,0.24835584039063097,0.8903334096284432
1684782940171291,0.38397802700846917,0.2465247577630274,0.8915541313801789
1684782940187293,0.3843442435339899,0.25177386129549095,0.8877698939497982
1684782940203295,0.38495460440985774,0.24921034561684596,0.8909437705043111
1684782940219298,0.38776226443884987,0.2490882734416724,0.8859388113221947
1684782940235300,0.387151903562982,0.24786755168993668,0.8860608834973682
1684782940251302,0.38397802700846917,0.2506752117189288,0.8856946669718475
1684782940267304,0.38532082093537845,0.24664682993820097,0.8922865644312203
1684782940283306,0.38202487220569203,0.2528725108720531,0.8889906157015339
1684782940299308,0.3855649652857256,0.24957656214236668,0.8908216983291375
1684782940315311,0.38410009918364274,0.24969863431754025,0.8864271000228889
1684782940331313,0.3847104600595106,0.2485999847409781,0.8880140383001454
1684782940347315,0.38495460440985774,0.25128557259479667,0.8877698939497982
1684782940363311,0.38495460440985774,0.24640268558785383,0.8874036774242775
1684782940379314,0.385442893110552,0.2494544899671931,0.8869153887235832
1684782940395316,0.3847104600595106,0.24884412909132525,0.8898451209277489
1684782940411318,0.391424429694057,0.23956664377813386,0.8913099870298318
1684782940427320,0.37982757305256776,0.25006485084306096,0.894361791409171
1684782940443322,0.387151903562982,0.25140764476997024,0.893507286182956
1684782940459324,0.384588387884337,0.2515297169451438,0.8919203479056996
1684782940475327,0.38483253223468417,0.2490882734416724,0.8931410696574353
1684782940491329,0.3816586556801713,0.2504310673685817,0.8887464713511868
1684782940507331,0.3872739757381556,0.24518196383611812,0.8913099870298318
1684782940523333,0.38776226443884987,0.24628061341268026,0.8871595330739304
1684782940539335,0.388860914015412,0.24969863431754025,0.8876478217746246
1684782940555338,0.38654154268711416,0.2510414282444495,0.8874036774242775
1684782940571340,0.386297398336767,0.24957656214236668,0.8839856565194175
1684782940587342,0.3876401922636763,0.24591439688715955,0.8870374608987568
1684782940603344,0.385442893110552,0.2507972838941024,0.8875257495994511
1684782940619346,0.3850766765850313,0.2485999847409781,0.8909437705043111
1684782940635348,0.384588387884337,0.24884412909132525,0.8889906157015339
1684782940651351,0.3864194705119406,0.24725719081406883,0.8922865644312203
1684782940667353,0.386297398336767,0.24725719081406883,0.8903334096284432
1684782940683349,0.38446631570916345,0.2504310673685817,0.8900892652780961
1684782940699351,0.384588387884337,0.24664682993820097,0.8854505226215004
1684782940715354,0.386297398336767,0.2439612420843824,0.8915541313801789
1684782940731356,0.3833676661326013,0.2490882734416724,0.895216296635386
1684782940747358,0.38825055313954415,0.2477454795147631,0.8910658426794846
1684782940763360,0.3850766765850313,0.25091935606927596,0.8899671931029225
1684782940779362,0.3851987487602049,0.25140764476997024,0.8864271000228889
1684782940795364,0.3902037079423213,0.2453040360112917,0.8883802548256661
1684782940811367,0.3855649652857256,0.2485999847409781,0.8902113374532696
1684782940827369,0.38666361486228773,0.2461585412375067,0.8874036774242775
1684782940843371,0.39032578011749486,0.2465247577630274,0.8847180895704589
1684782940859373,0.38568703746089916,0.25177386129549095,0.8911879148546582
1684782940875375,0.3851987487602049,0.2520180056458381,0.8933852140077825
1684782940891378,0.38690775921263487,0.24847791256580454,0.8855725947966739
1684782940907380,0.4052185854886705,0.2258945601586939,0.8747081712062252
1684782940923382,0.3850766765850313,0.23956664377813386,0.8856946669718475
1684782940939384,0.3847104600595106,0.25519188220035094,0.9000991836423289
1684782940955386,0.38959334706645343,0.24957656214236668,0.8908216983291375
1684782940971388,0.394842450598917,0.24310673685816742,0.894361791409171
1684782940987391,0.383733882658122,0.25177386129549095,0.9073014419775696
1684782941003387,0.3930113679713134,0.2360265506981003,0.8966811627374689
1684782941019389,0.39960326543068625,0.21576256961928753,0.873365377279316
1684782941035391,0.38446631570916345,0.24750133516441597,0.883009079118029
1684782941051394,0.3766536964980549,0.2630045014114595,0.8405279621576254
1684782941067396,0.39874876020447125,0.2789959563591973,0.9409933623254751
1684782941083398,0.3654230563820855,0.28461127641718154,0.908033875028611
1684782941099400,0.3847104600595106,0.27154955367360945,0.8385748073548482
1684782941115402,0.40717174029144765,0.20013733119707044,0.9180437933928438
1684782941131405,0.3582207980468448,0.3002365148393986,0.8740978103303574
1684782941147407,0.341374837872892,0.32745860990310494,0.913160906385901
1684782941163409,0.35724422064545625,0.2860761425192644,0.9141374837872895
1684782941179411,0.3342946517128249,0.3571221484702827,0.8670176241702903
1684782941195413,0.3548027771419848,0.2427405203326467,0.9010757610437174
1684782941211415,0.37946135652704704,0.2477454795147631,0.8620126649881739
1684782941227418,0.3554131380178527,0.2876630807965208,0.9019302662699324
1684782941243420,0.3583428702220184,0.2938887617303729,0.904615854123751
1684782941259422,0.3506523231860834,0.28241397726405726,0.9221942473487452
1684782941275424,0.3574883649958034,0.2852216372930494,0.906324864576181
1684782941291426,0.34503700312809915,0.2973067826352329,0.9130388342107274
1684782941307428,0.31390859845883856,0.3410086213473713,0.8649423971923396
1684782941323425,0.34930952925917413,0.3831235217822542,0.9104753185320824
1684782941339427,0.3766536964980549,0.2792401007095444,0.8811779964904254
1684782941355429,0.3876401922636763,0.2766765850308994,0.8609140154116117
1684782941371431,0.3881284809643706,0.25128557259479667,0.8229495689326312
1684782941387434,0.39252307927061914,0.27655451285572585,0.9153582055390252
1684782941403436,0.3657892729076062,0.2318760967421989,0.9324483100633252
1684782941419438,0.3457694361791406,0.3595635919737541,0.9069352254520489
1684782941435440,0.3645685511558705,0.3423514152742806,0.9796902418554971
1684782941451442,0.38776226443884987,0.3124437323567557,0.9945830472266728
1684782941467445,0.43231860837720326,0.32269779507133567,0.9468528267338066
1684782941483447,0.45636682688639674,0.2360265506981003,0.9532005798428322
1684782941499449,0.5178912031738765,0.17621118486305054,0.7169909208819716
1684782941515451,0.6344701304646376,0.08258182650492074,0.6077363241016247
1684782941531453,0.7112535286488137,0.004333562218661768,0.5440146486610207
1684782941547455,0.6295872434576948,0.16937514305333057,0.582345311665522
1684782941563458,0.5862516212710762,0.28705271992065295,0.7617914091706721
1684782941579460,0.4589303425650417,0.26483558403906304,0.6673075455863282
1684782941595462,0.4863965819790952,0.20257877470054186,0.7450675211718929
1684782941611464,0.5510948348210878,0.2948653391317615,0.9889677271686885
1684782941627466,0.5238727397573815,0.3201342793926907,0.9245136186770431
1684782941643493,0.5130083161669337,0.2890058747234301,0.6774395361257346
1684782941659495,0.5181353475242236,0.2630045014114595,0.6814679179064624
1684782941675498,0.5315632867933164,0.1751125352864884,0.9323262378881516
1684782941691500,0.4707713435568781,0.26642252231631947,0.903761348897536
1684782941707502,0.4431830319676511,0.37518883039597206,0.7195544365606166
1684782941723504,0.44672312504768463,0.38617532616159345,0.8722667277027538
1684782941739506,0.4771190966659038,0.29718471046005934,0.8729991607537952
1684782941755509,0.5000686655985351,0.24957656214236668,0.7808346684977492
1684782941771511,0.4826123445487145,0.27606622415503157,0.8256351567864497
1684782941787513,0.4791943236438545,0.29755092698558006,0.8401617456321047
1684782941803515,0.4712596322575724,0.2886396581979094,0.8677500572213317
1684782941819517,0.45636682688639674,0.2991378652628365,0.8383306630045011
1684782941835519,0.4540474555580989,0.31940184634164925,0.8435797665369646
1684782941851522,0.4531929503318839,0.34454871442740487,0.872510872053101
1684782941867524,0.4686961165789274,0.30475318532082074,0.8296635385671776
1684782941883526,0.48114747844663164,0.31012436102845786,0.8136720836194398
1684782941899528,0.48822766460669875,0.2789959563591973,0.8246585793850612
1684782941915530,0.48859388113221947,0.2713054093232623,0.8112306401159683
1684782941931532,0.4741893644617381,0.27704280155642014,0.814160372320134
1684782941947535,0.46210421911955457,0.3272144655527578,0.8396734569314104
1684782941963531,0.45758754863813245,0.3225757228961621,0.856275272755016
1684782941979533,0.4821240558480202,0.2981612878614479,0.8260013733119704
1684782941995535,0.5196002136263065,0.23077744716563675,0.7927977416647591
1684782942011538,0.5094682230869001,0.23065537499046318,0.7947508964675363
1684782942027540,0.47138170443274596,0.3049973296711679,0.8433356221866175
1684782942043542,0.47357900358587024,0.3125658045319293,0.8607919432364382
1684782942059544,0.4956740672922866,0.2518959334706645,0.8172121766994733
1684782942075546,0.4951857785915923,0.26056305790798806,0.8058594644083312
1684782942091549,0.4851758602273595,0.2936446173800258,0.8428473334859232
1684782942107551,0.48273441672388806,0.28754100862134724,0.8340581368734261
1684782942123553,0.48737315938048376,0.27277027542534515,0.8093995574883648
1684782942139555,0.49445334554055087,0.2730144197756923,0.8206301976043333
1684782942155557,0.48615243762874805,0.2885175860227358,0.829541466392004
1684782942171559,0.4845654993514916,0.2923018234531165,0.8292973220416568
1684782942187562,0.4977492942702373,0.2766765850308994,0.8240482185091933
1684782942203564,0.4956740672922866,0.272526131074998,0.8123292896925305
1684782942219566,0.4829785610742352,0.2886396581979094,0.8250247959105819
1684782942235568,0.4910353246356909,0.2637369344625009,0.8191653315022505
1684782942251570,0.49872587167162585,0.26556801709010447,0.8089112687876705
1684782942267573,0.4707713435568781,0.31561760891126855,0.8500495918211639
1684782942283569,0.46210421911955457,0.3104905775539786,0.8620126649881739
1684782942299571,0.4822461280231938,0.2847333485923551,0.8137941557946133
1684782942315573,0.49201190203707945,0.26398107881284805,0.8112306401159683
1684782942331575,0.47943846799420164,0.28119325551232155,0.8422369726100554
1684782942347578,0.4719920653086138,0.31024643320363143,0.8220950637064162
1684782942363580,0.48908216983291375,0.275089646753643,0.816723887998779
1684782942379582,0.49164568551155874,0.26813153276874946,0.8366216525520711
1684782942395584,0.4766308079652095,0.29340047302967864,0.8191653315022505
1684782942411586,0.4729686427100024,0.2962081330586708,0.8373540856031125
1684782942427589,0.4812695506218052,0.28290226596475154,0.8467536430914775
1684782942443591,0.48273441672388806,0.2814373998626687,0.8140383001449605
1684782942459593,0.47772945754177165,0.2910811017013808,0.8418707560845347
1684782942475595,0.48114747844663164,0.2969405661097122,0.8404058899824518
1684782942491597,0.4863965819790952,0.2804608224612801,0.7997558556496527
1684782942507599,0.4893263141832609,0.2675211718928816,0.8054932478828105
1684782942523602,0.47943846799420164,0.2909590295262072,0.8401617456321047
1684782942539604,0.47443350881208524,0.30084687571526647,0.8446784161135268
1684782942555606,0.48236820019836735,0.29217975127794293,0.8246585793850612
1684782942571608,0.4831006332494088,0.26691081101701375,0.8394293125810632
1684782942587610,0.4750438696879531,0.29840543221179505,0.8095216296635384
1684782942603637,0.48786144808117804,0.2755779354543373,0.8318608377203018
1684782942619639,0.4860303654535745,0.29047074082551294,0.8325932707713433
1684782942635642,0.47638666361486237,0.2881513694972151,0.8074464026855876
1684782942651644,0.48017090104524307,0.2835126268406194,0.8347905699244675
1684782942667646,0.4809033340962845,0.29462119478141435,0.8374761577782861
1684782942683648,0.4728465705348288,0.2931563286793315,0.8256351567864497
1684782942699650,0.4702830548561838,0.28741893644617367,0.8366216525520711
1684782942715653,0.4678416113527124,0.29925993743801005,0.8478522926680396
1684782942731655,0.47138170443274596,0.3012130922407872,0.8267338063630119
1684782942747657,0.4711375600823988,0.27106126497291516,0.824414435034714
1684782942763659,0.495551995117113,0.2915693904020751,0.8383306630045011
1684782942779661,0.46344701304646385,0.31061264972915215,0.8345464255741204
1684782942795663,0.47772945754177165,0.2747234302281223,0.8208743419546805
1684782942811666,0.4922560463874266,0.269108110170138,0.8217288471808954
1684782942827668,0.48358892195010306,0.2944991226062408,0.8054932478828105
1684782942843670,0.4702830548561838,0.2915693904020751,0.8347905699244675
1684782942859672,0.46930647745479526,0.29413290608072007,0.8477302204928661
1684782942875674,0.4774853131914245,0.29498741130693507,0.8258793011367969
1684782942891677,0.4724803540093081,0.28204776073853655,0.8198977645532919
1684782942907679,0.4711375600823988,0.29925993743801005,0.8394293125810632
1684782942923675,0.4817578393224995,0.2831464103150987,0.837232013427939
1684782942939677,0.4738231479362174,0.2902265964751658,0.821850919356069
1684782942955680,0.4691844052796217,0.30890363927672215,0.8410162508583197
1684782942971682,0.47431143663691167,0.29510948348210864,0.8316166933699547
1684782942987684,0.47614251926451523,0.2805828946364537,0.8246585793850612
1684782943003686,0.4707713435568781,0.2991378652628365,0.832104982070649
1684782943019688,0.47858396276798665,0.28534370946822296,0.8280766002899211
1684782943035690,0.4812695506218052,0.2943770504310672,0.8197756923781183
1684782943051693,0.4738231479362174,0.281071183337148,0.8357671473258561
1684782943067695,0.48285648889906163,0.29596398870832363,0.8300297550926983
1684782943083697,0.4716258487830931,0.28619821469443796,0.8313725490196076
1684782943099699,0.46894026092927454,0.3023117418173493,0.8340581368734261
1684782943115701,0.4712596322575724,0.2981612878614479,0.8385748073548482
1684782943131703,0.47614251926451523,0.2859540703440908,0.8368657969024182
1684782943147706,0.4741893644617381,0.2923018234531165,0.822705424582284
1684782943163708,0.48187991149767306,0.2764324406805523,0.8281986724650947
1684782943179710,0.47943846799420164,0.3002365148393986,0.8137941557946133
1684782943195712,0.4695506218051424,0.3036545357442586,0.8179446097505148
1684782943211714,0.4694285496299688,0.2998702983138779,0.8390630960555425
1684782943227717,0.4758983749141681,0.2826581216144044,0.8319829098954754
1684782943243713,0.47272449835965524,0.29633020523384435,0.832104982070649
1684782943259715,0.46771953917753883,0.3079270618753336,0.8468757152666511
1684782943275717,0.47150377660791953,0.30389868009460574,0.8263675898374911
1684782943291720,0.46894026092927454,0.3015793087663079,0.8231937132829783
1684782943307722,0.47736324101625094,0.30267795834287003,0.8448004882887004
1684782943323724,0.4728465705348288,0.2955977721828029,0.8291752498664833
1684782943339726,0.47736324101625094,0.30096894789044004,0.8238040741588462
1684782943355728,0.47101548790722525,0.31647211413748355,0.8318608377203018
1684782943371730,0.4664988174258031,0.30939192797741644,0.8422369726100554
1684782943387733,0.46015106431677744,0.31903562981612854,0.849439230945296
1684782943403735,0.4586861982146946,0.2857099259937437,0.8809338521400782
1684782943419737,0.4514839398794539,0.3305104142824442,0.873365377279316
1684782943435739,0.5022659647516594,0.2775310902571144,0.8194094758525976
1684782943451741,0.5164263370717936,0.2743572137026016,0.8145265888456548
1684782943467743,0.48236820019836735,0.3449149309529256,0.8308842603189133
1684782943483746,0.4783398184176395,0.3637140459296555,0.857984283207446
1684782943499748,0.49713893339436943,0.35883115892271267,0.8594491493095289
1684782943515750,0.48859388113221947,0.3523613336385134,0.8424811169604025
1684782943531752,0.5137407492179751,0.2641031509880216,0.7449454489967193
1684782943547754,0.5611047531853206,0.20379949645227757,0.7691157396810864
1684782943563781,0.5745326924544134,0.11566338597695847,0.8257572289616233
1684782943579784,0.537666895551995,0.42267490653849116,0.7680170901045242
1684782943595786,0.5894254978255891,0.31354238193331785,0.8264896620126647
1684782943611788,0.6019989318684669,0.27911802853437084,0.7967040512703134
1684782943627790,0.6375219348439769,0.17730983443961268,0.7157701991302359
1684782943643792,0.6885481040665296,0.14703593499656709,0.6563210498207068
1684782943659794,0.7196765087357901,0.13885709925993783,0.6192111085679404
1684782943675797,0.7097886625467309,0.14728007934691423,0.6010223544670783
1684782943691799,0.7121080338750287,0.16852063782711557,0.6475318532082097
1684782943707801,0.7029526207370109,0.25299458304722666,0.6775616083009082
1684782943723803,0.6936751354238195,0.2927901121538108,0.7128404669260702
1684782943739805,0.7001449607080188,0.2813153276874951,0.6719462882429239
1684782943755808,0.6720683604180975,0.28168154421301583,0.6260471503776612
1684782943771810,0.7166247043564509,0.1680323491264213,0.6201876859693289
1684782943787812,0.7484855420767529,0.2590981918059052,0.48480964370183877
1684782943803814,0.7342030975814451,0.281925688563363,0.44953078507667676
1684782943819816,0.7443350881208515,0.2797283894102387,0.5120317387655451
1684782943835818,0.7676508735790035,0.3452811474784463,0.6354467078660262
1684782943851821,0.7680170901045242,0.42731364919508685,0.792553597314412
1684782943867823,0.7498283360036622,0.43781185626001395,0.9052262149996189
1684782943883819,0.8417486839093611,0.12249942778667844,0.8771496147096975
1684782943899821,0.8025635156786448,-0.0963759822995347,0.9502708476386665
1684782943915824,0.7669184405279621,-0.16913099870298298,1.2797436484321354
1684782943931826,0.8583504997329667,-0.41913481345845716,1.1468070496681166
1684782943947828,0.4796826123445488,-0.501533531700618,1.1962462806134129
1684782943963830,0.45050736247806533,-0.5847867551689938,0.7447013046463722
1684782943979832,0.468818188754101,-0.4286564431219957,1.0428015564202333
1684782943995834,0.3943541618982227,-0.3324635690852218,0.7156481269550623
1684782944011837,0.25018692301823453,-0.39142442969405655,0.49701686121919586
1684782944027839,0.17621118486305054,-0.43903257801174966,0.35638971541924125
1684782944043841,0.1389791714351114,-0.27789730678263513,0.32269779507133567
1684782944059843,0.05474937056534657,-0.2158846417944611,0.41522850385290333
1684782944075845,0.01739528496223386,-0.17694361791409152,0.5241168841077286
1684782944091848,0.14728007934691423,-0.3297779812314032,0.5890592813000683
1684782944107850,0.2948653391317615,-0.4749217975127795,0.4863965819790952
1684782944123852,0.4426947432669568,-0.5121538109407187,0.42853437094682256
1684782944139854,0.4664988174258031,-0.670359349965667,0.5717250324254213
1684782944155856,0.5563439383535513,-0.6323949034866865,0.4397650110627911
1684782944171858,0.8595712214847024,-0.7527580682078279,0.6785381857022967
1684782944187861,1.0381628137636376,-0.7355458915083544,0.6415503166247047
1684782944203857,1.1028610666056302,-0.7403067063401236,0.8069581139848934
1684782944219859,0.8817883573662932,-0.6457007705806057,0.6508278019378961
1684782944235861,0.6046845197222854,-0.7802243076218813,0.5560997940032042
1684782944251864,0.6786602578774703,-0.7952391851682306,0.98286411841001
1684782944267866,0.4511177233539332,-0.579903868162051,0.9582055390249486
1684782944283868,0.44037537193865894,-0.8183108262760359,0.39252307927061914
1684782944299870,0.3759212634470135,-0.907057297627222,0.34833295185778557
1684782944315872,0.3397878995956356,-0.8574959945067522,0.34381628137636344
1684782944331874,-0.05096513313496587,-0.5991912718394752,0.6605935759517818
1684782944347877,0.22919050888838033,-0.8906996261539635,1.2813305867093918
1684782944363879,0.30548561837186217,-1.0374303807125962,1.1693904020752273
1684782944379881,0.34296177615014845,-0.8695811398489357,0.8130617227435719
1684782944395883,0.20721751735713756,-1.0242465857938505,0.5757534142061491
1684782944411885,0.3368581673914699,-1.2090638590066378,0.8013427939269091
1684782944427888,0.20404364080262472,-1.188555733577478,0.8612802319371324
1684782944443890,0.27399099717708086,-1.1071335927367056,1.0287632562752727
1684782944459892,0.2981612878614479,-1.0586709391927975,0.6205539024948497
1684782944475894,0.4070496681162741,-1.0756389715419243,0.5320515754940107
1684782944491896,0.5226520180056458,-1.0412146181429769,0.6962386511024645
1684782944507898,0.4934767681391623,-0.8922865644312199,0.7243152513923858
1684782944523895,0.4401312275883118,-0.7772945754177156,0.656565194171054
1684782944539897,0.31696040283817783,-0.6162813763637751,0.6089570458533604
1684782944555899,0.17352559700923198,-0.458564126039521,0.6498512245365076
1684782944571901,0.238956282902266,-0.14203097581445023,0.6370336461432826
1684782944587904,0.3743343251697562,-0.3371023117418175,0.47821774624246594
1684782944603906,0.42767986572060757,-0.37006179903868164,0.42401770046540044
1684782944619908,0.44403753719386607,-0.5305867093919279,0.04388494697489875
1684782944635910,0.4979934386205844,-0.6774395361257342,-0.07354848554207694
1684782944651912,0.5557335774776835,-0.6843976501106277,0.02532997634851597
1684782944667914,0.5828336003662162,-0.5784390020599681,0.2225986114290075
1684782944683917,0.5254596780346379,-0.48944838635843446,0.2255283436331732
1684782944699919,0.557564660105287,-0.5576867322804606,0.2095368886854354
1684782944715921,0.5822232394903484,-0.5381551842526893,0.08416876478217716
1684782944731923,0.6547341115434504,-0.6619363698786906,0.057190814068817986
1684782944747925,0.7725337605859464,-0.8363775082017244,-0.14105439841306167
1684782944763928,0.8173342488746469,-0.9055924315251391,-0.19549858854047475
1684782944779930,0.7790035858701456,-0.8542000457770658,-0.16791027695124727
1684782944795932,0.6326390478370341,-0.596383611810483,-0.033875028610665936
1684782944811934,0.7260242618448158,-0.7459220263981079,0.25934233615625235
1684782944827936,0.6155489433127332,-0.5492637521934842,0.2766765850308994
1684782944843963,0.6604715037766082,-0.48859388113221947,0.3557793545433734
1684782944859965,0.7335927367055772,-0.4633249408712903,0.5062943465323873
1684782944875968,0.8347905699244675,-0.6759746700236513,0.18255893797207623
1684782944891970,0.8523689631494618,-0.862378881513695,-0.08148317692835905
1684782944907972,0.7426260776684215,-0.9425803006027316,-0.24127565423056385
1684782944923974,0.6770733196002139,-0.9306172274357212,-0.1981841763942933
1684782944939976,0.5569542992294192,-0.7407949950408179,0.05914396887159512
1684782944955978,0.6537575341420618,-0.6629129472800792,0.3134203097581443
1684782944971981,0.6914778362706953,-0.6433813992523079,0.44122987716487394
1684782944987983,0.714305333028153,-0.6276340886549172,0.4204776073853669
1684782945003985,0.6644998855573361,-0.6531471732661935,0.31232166018158214
1684782945019987,0.5548790722514685,-0.5600061036087585,0.18243686579690266
1684782945035989,0.5307087815671014,-0.5414511329823757,0.09930571450369996
1684782945051992,0.6409399557488369,-0.7423819333180743,-0.06500343327992697
1684782945067994,0.7416495002670329,-0.7685053788052185,-0.001037613488975353
1684782945083996,0.8706797894254974,-0.8836194399938964,0.27203784237430373
1684782945099998,0.8874036774242775,-0.9676050965133136,0.2804608224612801
1684782945116000,0.7760738536659799,-0.9218280308232241,0.10809491111619707
1684782945132002,0.6624246585793854,-0.897657740138857,0.13373006790264785
1684782945148005,0.5088578622110322,-0.6732890821698327,0.28033875028610655
1684782945164001,0.5608606088349735,-0.708323796444648,0.3419851987487599
1684782945180003,0.603952086671244,-0.7852292668039977,0.2876630807965208
1684782945196005,0.6253147173266198,-0.7741206988632028,0.14178683146410354
1684782945212008,0.5335164415960936,-0.6196993972686351,0.3985046158541241
1684782945228010,0.49286640726329445,-0.573922331578546,0.5265583276112
1684782945244012,0.5382772564278628,-0.6041962310215916,0.530830853742275
1684782945260014,0.642038605325399,-0.7348134584573129,0.5620813305867092
1684782945276016,0.6597390707255668,-0.8574959945067522,0.4846875715266652
1684782945292019,0.6027313649195083,-0.7550774395361257,0.3671320668345155
1684782945308021,0.5128862439917601,-0.7583733882658121,0.32147707331959996
1684782945324023,0.4951857785915923,-0.6786602578774699,0.3091477836270693
1684782945340025,0.5651331349660484,-0.7182116426337073,0.5687953002212556
1684782945356027,0.6045624475471119,-0.8186770428015566,0.4935988403143359
1684782945372029,0.5663538567177842,-0.8678721293965057,0.21649500267032895
1684782945388032,0.5614709697108413,-0.86323338673991,0.24933241779201953
1684782945404034,0.5509727626459142,-0.7730220492866406,0.4358587014572368
1684782945420036,0.510933089188983,-0.7963378347447927,0.3859311818112463
1684782945436038,0.5690394445716027,-0.7545891508354314,0.39923704890516554
1684782945452040,0.5593957427328906,-0.7739986266880292,0.4216983291371026
1684782945468042,0.5628137636377506,-0.7114976729991609,0.4589303425650417
1684782945484039,0.5388876173037307,-0.6956282902265967,0.4303654535744261
1684782945500041,0.5311970702677957,-0.6751201647974363,0.39288929579613985
1684782945516043,0.5281452658884564,-0.6756084534981306,0.4112001220721755
1684782945532045,0.5382772564278628,-0.6974593728542002,0.3838559548332956
1684782945548048,0.5492637521934842,-0.6945296406500345,0.3377126726176849
1684782945564050,0.5742885481040663,-0.7173571374074923,0.34845502403295914
1684782945580052,0.6044403753719383,-0.8593270771343557,0.34088654917219774
1684782945596054,0.6348363469901583,-0.7990234225986113,0.3279468986037992
1684782945612056,0.612497138933394,-0.6469214923323414,0.3959411001754791
1684782945628059,0.6032196536202026,-0.8384527351796751,0.33868925001907346
1684782945644061,0.5905241474021512,-0.8109864957656212,0.31305409323262356
1684782945660063,0.5927214465552755,-0.8086671244373234,0.2276035706111239
1684782945676065,0.581490806439307,-0.8040283817807277,0.26825360494392303
1684782945692067,0.5750209811551077,-0.788281071183337,0.2573891813534752
1684782945708069,0.5557335774776835,-0.7367666132600901,0.24249637598229956
1684782945724072,0.5471885252155335,-0.7423819333180743,0.35675593194476196
1684782945740074,0.5502403295948728,-0.720286869611658,0.342229343099107
1684782945756076,0.609933623254749,-0.7229724574654766,0.5136186770428015
1684782945772078,0.5741664759288927,-0.7119859616998552,0.47272449835965524
1684782945788080,0.5836881055924312,-0.766674296177615,0.27020675974670016
1684782945804107,0.5498741130693521,-0.7608148317692836,0.18414587624933265
1684782945820109,0.5757534142061491,-0.6756084534981306,0.16559090562294987
1684782945836112,0.5902800030518041,-0.7078355077439538,0.2831464103150987
1684782945852114,0.6530251010910204,-0.7457999542229343,0.3666437781338212
1684782945868116,0.6669413290608075,-0.6765850308995192,0.4807812619211109
1684782945884118,0.6513160906385904,-0.7155260547798887,0.40473029678797623
1684782945900120,0.6544899671931033,-0.6911116197451745,0.35773250934615053
1684782945916123,0.7306630045014115,-0.8274662394140537,0.32538338292515423
1684782945932125,0.7022201876859695,-0.721995880064088,0.1456931410696578
1684782945948127,0.7191882200350959,-0.6878156710154881,0.18976119630731692
1684782945964129,0.6970931563286795,-0.5794155794613567,0.3201342793926907
1684782945980131,0.7150377660791944,-0.5742885481040667,0.44794384679942034
1684782945996133,0.7007553215838866,-0.5039749752040894,0.5540245670252535
1684782946012136,0.726268406195163,-0.5180132753490501,0.6249485008010982
1684782946028138,0.6680399786373696,-0.5873502708476388,0.5221637293049515
1684782946044140,0.6707255664911882,-0.6343480582894636,0.30426489662012646
1684782946060142,0.7627679865720607,-0.7892576485847256,0.2977950713359272
1684782946076144,0.7725337605859464,-0.7982909895475698,0.123476005188067
1684782946092146,0.7739986266880292,-0.7566643778133821,0.23956664377813386
1684782946108149,0.7028305485618374,-0.6068818188754102,0.36054016937514266
1684782946124145,0.6012664988174254,-0.615182726787213,0.30475318532082074
1684782946140147,0.5340047302967879,-0.6566872663462271,0.4347600518806747
1684782946156149,0.6375219348439769,-0.5907682917524988,0.4354924849317161
1684782946172152,0.6415503166247047,-0.7102769512474252,0.36517891203173836
1684782946188154,0.7082017242694745,-0.605783169298848,0.3037766079194322
1684782946204156,0.7731441214618142,-0.7765621423666742,0.4556343938353553
1684782946220158,0.6800030518043796,-0.6264133669031815,0.4169375143053333
1684782946236160,0.6214084077210646,-0.5137407492179751,0.4317082475013354
1684782946252163,0.5969939726863505,-0.49286640726329445,0.5924773022049283
1684782946268165,0.6215304798962382,-0.5526817730983442,0.4778515297169452
1684782946284167,0.7000228885328452,-0.6327611200122072,0.4070496681162741
1684782946300169,0.7489738307774472,-0.7737544823376821,0.2628824292362859
1684782946316171,0.7509269855802243,-0.6767071030746927,0.3037766079194322
1684782946332173,0.7280994888227665,-0.6283665217059586,0.3670099946593419
1684782946348176,0.6804913405050739,-0.5329060807202257,0.44293888761730393
1684782946364178,0.642038605325399,-0.5513389791714349,0.4616159304188603
1684782946380180,0.6148165102616918,-0.5919890135042345,0.47614251926451523
1684782946396182,0.6225070572976268,-0.5415732051575493,0.41351949340047334
1684782946412184,0.6533913176165411,-0.6046845197222859,0.32025635156786425
1684782946428187,0.6624246585793854,-0.7267566948958573,0.3352712291142135
1684782946444183,0.710032806897078,-0.7559319447623407,0.3091477836270693
1684782946460185,0.641184100099184,-0.7295643549248494,0.3184252689402607
1684782946476187,0.6273899443045705,-0.7196765087357901,0.4174258030060276
1684782946492190,0.5640344853894863,-0.6330052643625543,0.5235065232318608
1684782946508192,0.49164568551155874,-0.6365453574425879,0.46723125047684455
1684782946524194,0.5498741130693521,-0.6804913405050734,0.5266803997863736
1684782946540196,0.5482871747920957,-0.7035629816128788,0.4824902723735409
1684782946556198,0.5056839856565194,-0.818554970626383,0.39545281147478484
1684782946572200,0.504951552605478,-0.6657206073090713,0.4845654993514916
1684782946588203,0.5011673151750973,-0.8565194171053636,0.15838864728770918
1684782946604205,0.5394979781795985,-0.8592050049591822,0.19464408331425975
1684782946620207,0.5845426108186462,-0.8257572289616237,0.28754100862134724
1684782946636209,0.6928206301976045,-0.8103761348897534,0.4359807736324104
1684782946652211,0.6527809567406733,-0.731395437552453,0.3390554665445942
1684782946668213,0.7162584878309302,-0.8093995574883648,0.24542610818646526
1684782946684216,0.6024872205691612,-0.6770733196002134,0.2313878080415046
1684782946700218,0.5817349507896541,-0.5855191882200352,0.4035095750362405
1684782946716220,0.5932097352559698,-0.6394750896467536,0.36432440680552336
1684782946732222,0.6284885938811327,-0.6963607232776381,0.29254596780346365
1684782946748224,0.6006561379415576,-0.6583962767986571,0.32196536202029424
1684782946764251,0.5796597238117034,-0.6687724116884106,0.2953536278324558
1684782946780254,0.5839322499427784,-0.7338368810559244,0.15777828641184133
1684782946796256,0.6350804913405055,-0.8280766002899216,0.14874494544899708
1684782946812258,0.6670634012359811,-0.9105973907072555,0.06866559853513365
1684782946828260,0.6337376974135962,-0.9248798352025633,0.11114671549553634
1684782946844262,0.579781795986877,-0.853833829251545,0.18292515449759694
1684782946860264,0.5258258945601586,-0.8133058670939195,0.2771648737315937
1684782946876267,0.47345693141069667,-0.732249942778668,0.3134203097581443
1684782946892269,0.44159609369039465,-0.7503166247043564,0.306950484473945
1684782946908271,0.4733348592355231,-0.8048828870069427,0.13714808880750784
1684782946924273,0.5188677805752651,-0.8513923857480736,0.17059586480506628
1684782946940275,0.5346150911726557,-0.9101091020065613,0.09039444571602928
1684782946956277,0.6024872205691612,-0.9855497062638285,0.2229648279545282
1684782946972280,0.5828336003662162,-0.9661402304112308,0.28241397726405726
1684782946988282,0.5166704814221408,-0.8517586022735943,0.25555809872587165
1684782947004284,0.45209430075532175,-0.7989013504234377,0.37067215991454905
1684782947020286,0.4358587014572368,-0.8089112687876705,0.2313878080415046
1684782947036288,0.4358587014572368,-0.7682612344548714,0.32062256809338496
1684782947052291,0.40460822461280266,-0.8368657969024187,0.25592431525139236
1684782947068293,0.3993591210803391,-0.8577401388570993,0.20807202258335256
1684782947084289,0.42108796826123474,-0.8935072861829556,0.23492790112153816
1684782947100291,0.45416952773327246,-0.9174334325169755,0.22491798275730535
1684782947116294,0.499824521248188,-0.9280537117570762,0.35394827191576983
1684782947132296,0.4531929503318839,-0.8488288700694286,0.4041199359121084
1684782947148298,0.4122987716487376,-0.8139162279697874,0.3205004959182114
1684782947164300,0.42475013351644186,-0.830518043793393,0.23651483939879459
1684782947180302,0.45722133211261173,-0.8659189745937286,0.2583657587548638
1684782947196304,0.48395513847562377,-0.8662851911192493,0.22064545662623036
1684782947212307,0.4834668497749295,-0.8147707331960024,0.3087815671015486
1684782947228309,0.5097123674372472,-0.7895017929350727,0.34918745708400056
1684782947244311,0.4951857785915923,-0.7935301747158006,0.3981383993286034
1684782947260313,0.49542992294193944,-0.8198977645532923,0.34930952925917413
1684782947276315,0.4809033340962845,-0.820263981078813,0.393133440146487
1684782947292317,0.5137407492179751,-0.9292744335088119,0.21319905394064254
1684782947308320,0.5175249866483558,-0.933791103990234,0.08746471351186358
1684782947324322,0.5259479667353322,-0.8806897077897307,0.22821393148699176
1684782947340324,0.493842984664683,-0.803662165255207,0.23907835507743957
1684782947356326,0.4845654993514916,-0.7764400701915006,0.22882429236285962
1684782947372328,0.5122758831158922,-0.7121080338750287,0.40338750286106695
1684782947388331,0.5164263370717936,-0.7346913862821394,0.340520332646677
1684782947404327,0.5357137407492178,-0.7656977187762264,0.40045777065690125
1684782947420329,0.5300984206912336,-0.7595941100175478,0.39118028534370985
1684782947436331,0.5153276874952315,-0.6867170214389255,0.24371709773403527
1684782947452334,0.4640573739223317,-0.8258793011367973,0.35761043717097696
1684782947468336,0.4787060349431602,-0.8443121995880065,0.24811169604028382
1684782947484338,0.48273441672388806,-0.8645761806668193,0.31012436102845786
1684782947500340,0.4737010757610438,-0.8714122224765393,0.279362172884718
1684782947516342,0.464545662623026,-0.8291752498664837,0.387151903562982
1684782947532344,0.4566109712367439,-0.8400396734569315,0.3926451514457927
1684782947548347,0.45050736247806533,-0.8485847257190815,0.31891355764095497
1684782947564349,0.456855115587091,-0.8125734340428781,0.347356374456397
1684782947580351,0.4719920653086138,-0.7986572060730905,0.40631723506523265
1684782947596353,0.5187457084000915,-0.8059815365835048,0.39581902800030555
1684782947612355,0.5525597009231706,-0.8711680781261921,0.3220874341954678
1684782947628358,0.4948195620660716,-0.9945830472266728,0.2348058289463646
1684782947644360,0.44281681544213036,-0.9110856794079498,0.3562676432440677
1684782947660362,0.4112001220721755,-0.7879148546578163,0.5025101091020066
1684782947676364,0.33405050736247777,-0.8781261921110857,0.6421606775005726
1684782947692366,0.4196231021591519,-0.8355230029755094,0.6848859388113224
1684782947708368,0.429266803997864,-0.8574959945067522,0.5910124361028455
1684782947724395,0.4356145571068897,-0.8363775082017244,0.5807583733882655
1684782947740398,0.42731364919508685,-0.7775387197680628,0.5690394445716027
1684782947756400,0.40546272983901765,-0.6719462882429235,0.6049286640726326
1684782947772402,0.30939192797741644,-0.4826123445487145,0.6753643091477839
1684782947788404,0.28827344167238866,-0.4527046616311896,0.5882047760738534
1684782947804406,0.3037766079194322,-0.4173037308308536,0.5425497825589378
1684782947820408,0.3759212634470135,-0.4956740672922866,0.5354695963988707
1684782947836411,0.49713893339436943,-0.5987029831387809,0.4490424963759825
1684782947852413,0.5171587701228351,-0.6065156023498894,0.4490424963759825
1684782947868415,0.5758754863813227,-0.6681620508125428,0.3977721828030827
1684782947884417,0.5224078736552986,-0.6936751354238195,0.18670939192797764
1684782947900419,0.4994583047226673,-0.6685282673380635,0.31610589761196284
1684782947916422,0.6422827496757462,-0.7420157167925536,0.46210421911955457
1684782947932424,0.5418173495078964,-0.616037232013428,0.22040131227588322
1684782947948426,0.5363241016250857,-0.5665980010681317,0.29584191653315006
1684782947964428,0.6792706187533382,-0.5664759288929582,0.4334172579537654
1684782947980430,0.5530479896238649,-0.5347371633478293,0.09857328145265853
1684782947996432,0.5111772335393301,-0.6981918059052417,-0.10418860151064324
1684782948012435,0.6575417715724425,-1.0203402761882963,-0.1316548409246967
1684782948028437,0.7769283588921949,-1.4302586404211488,-0.20099183642328544
1684782948044433,0.8084229800869762,-1.463340199893187,0.09796292057679068
1684782948060435,0.8179446097505148,-1.393514915693904,0.26947432669565874
1684782948076438,0.5825894560158691,-1.1648737315938047,0.04254215304798947
1684782948092440,0.21783779659723823,-0.8429694056610972,-0.031311512932020946
1684782948108442,0.005676356145571049,-0.7013656824597545,0.07916380560006075
1684782948124444,0.1117570763714042,-0.598947127489128,0.2510414282444495
1684782948140446,0.22113374532692465,-0.8394293125810637,0.33368429083695705
1684782948156448,0.21771572442206466,-0.9617456321049822,0.2771648737315937
1684782948172451,0.4380560006103611,-1.148027771419852,0.2590981918059052
1684782948188453,0.38495460440985774,-1.1288624399176013,0.08075074387731718
1684782948204455,0.18500038147554765,-1.0133821622034027,0.07891966124971361
1684782948220457,0.37067215991454905,-1.055985351338979,0.2890058747234301
1684782948236459,0.6260471503776612,-1.2393377584496834,0.1928130006866562
1684782948252462,0.3566338597695884,-1.0884565499351493,-0.026184481574730967
1684782948268464,0.3037766079194322,-0.877759975585565,0.0831921873807886
1684782948284466,0.3049973296711679,-0.8223392080567637,0.13153276874952358
1684782948300468,0.3757991912718399,-0.898512245365072,0.03802548256656735
1684782948316470,0.2653238727397573,-0.8897230487525749,-0.10235751888303968
1684782948332472,0.2620279240100709,-0.8645761806668193,-0.023620965896085977
1684782948348475,0.2833905546654458,-0.8164797436484323,0.01495384145876244
1684782948364502,0.2991378652628365,-0.8278324559395744,0.11432059205004919
1684782948380504,0.23089951934081032,-0.6529030289158464,0.003112840466926059
1684782948396506,0.15863279163805633,-0.7989013504234377,-0.1455710688944838
1684782948412508,0.18451209277485336,-0.9464866102082858,-0.2638590066376745
1684782948428510,0.2549477378500038,-0.973464560921645,-0.39056992446784156
1684782948444512,0.2973067826352329,-1.0163118944075684,-0.24640268558785383
1684782948460515,0.28705271992065295,-0.7816891737239642,-0.12628366521705958
1684782948476517,0.23553826199740602,-0.6736552986953535,-0.20294499122606258
1684782948492519,0.3230640115968564,-1.0543984130617226,-0.5718471046005953
1684782948508521,0.4539253833829253,-1.2303044174868392,-0.5276569771877622
1684782948524523,0.45380331120775175,-1.168169680323491,-0.48480964370183877
1684782948540526,0.29803921568627434,-0.9892118715190357,-0.36871900511177236
1684782948556528,0.14251926451514496,-1.0951705195696957,-0.5363241016250857
1684782948572530,0.2208896009765775,-1.2260318913557642,-0.22015716792553608
1684782948588532,0.5906462195773248,-0.5211871519035629,-0.3268482490272375
1684782948604534,0.3919127183947513,-0.5134966048676279,-0.38727397573815514
1684782948620536,0.3029221026932172,-1.0868696116578929,-0.426581216144045
1684782948636539,0.3423514152742806,-0.7804684519722285,-0.622018768596933
1684782948652541,0.3549248493171584,-0.7539787899595636,-0.46601052872510884
1684782948668543,0.33868925001907346,-0.778027008468757,-0.4758983749141681
1684782948684539,0.35211718928816627,-0.7978027008468755,-0.46845197222858026
1684782948700542,0.2465247577630274,-0.8408941786831465,-0.6338597695887693
1684782948716544,0.25140764476997024,-0.8864271000228885,-0.6643778133821621
1684782948732546,0.3196459906919964,-0.9832303349355307,-0.5641565575646603
1684782948748548,0.41925688563363117,-1.119829098954757,-0.6354467078660258
1684782948764550,0.3036545357442586,-0.7295643549248494,-0.5973601892118716
1684782948780552,0.2788738841840237,-0.7204089417868316,-0.6297093156328679
1684782948796555,0.27313649195086587,-0.63422598611429,-0.5288776989394979
1684782948812557,0.2709391927977416,-0.652170595864805,-0.49201190203707945
1684782948828559,0.3153734645609214,-0.666941329060807,-0.4784618905928131
1684782948844561,0.38702983138780844,-0.6983138780804152,-0.4632028686961167
1684782948860563,0.4153505760280769,-0.7471427481498436,-0.5844205386434731
1684782948876566,0.4090028229190512,-0.744457160296025,-0.7190661478599223
1684782948892568,0.39032578011749486,-0.74360265506981,-0.7739986266880292
1684782948908570,0.36102845807583694,-0.7503166247043564,-0.7970702677958341
1684782948924572,0.37518883039597206,-0.7316395819028001,-0.7068589303425652
1684782948940574,0.43231860837720326,-0.7385976958876936,-0.6491187914854657
1684782948956576,0.42731364919508685,-0.7009994659342338,-0.5965056839856566
1684782948972579,0.4119325551232169,-0.6330052643625543,-0.5944304570077059
1684782948988581,0.4036316472114141,-0.6214084077210651,-0.6087129015030137
1684782949004577,0.423285267414359,-0.6349584191653315,-0.6369115739681086
1684782949020579,0.4409857328145268,-0.6845197222858013,-0.6388647287708857
1684782949036582,0.45294880598153675,-0.8004882887006941,-0.7199206530861373
1684782949052584,0.4451361867704282,-0.729686427100023,-0.7775387197680628
1684782949068586,0.4259708552681776,-0.635080491340505,-0.6714579995422292
1684782949084588,0.500679026474403,-0.694407568474861,-0.5373006790264743
1684782949100590,0.4704051270313574,-0.5717250324254217,-0.6822003509575034
1684782949116593,0.48773937590600447,-0.7063706416418709,-0.6630350194552528
1684782949132595,0.46845197222858026,-0.7165026321812773,-0.7508049134050507
1684782949148597,0.4455024032959489,-0.6455786984054321,-0.7340810254062715
1684782949164599,0.47602044708934166,-0.6237277790493629,-0.6516823071641107
1684782949180601,0.5449912260624092,-0.5814908064393074,-0.5691615167467767
1684782949196603,0.5545128557259478,-0.607492179751278,-0.645334554055085
1684782949212606,0.6021210040436404,-0.6430151827267871,-0.6085908293278401
1684782949228608,0.506660563057908,-0.6919661249713895,-0.8303959716182194
1684782949244610,0.5354695963988707,-0.6765850308995192,-0.7633783474479285
1684782949260612,0.5850308995193405,-0.6280003051804379,-0.6869611657892727
1684782949276614,0.5893034256504155,-0.6039520866712444,-0.5974822613870452
1684782949292616,0.6153047989623861,-0.7082017242694745,-0.6558327611200121
1684782949308619,0.6151827267872125,-0.7682612344548714,-0.6989242389562831
1684782949324646,0.541084916456855,-0.683176928358892,-0.6946517128252081
1684782949340648,0.5840543221179519,-0.7395742732890822,-0.6438696879530021
1684782949356650,0.568673228046082,-0.7357900358587015,-0.5692835889219503
1684782949372652,0.605661097123674,-0.7926756694895856,-0.6113984893568323
1684782949388654,0.613351644159609,-0.8418707560845351,-0.7118638895246816
1684782949404657,0.6192111085679404,-0.8858167391470206,-0.789990081635767
1684782949420659,0.5747768368047605,-0.8241702906843673,-0.7639887083237964
1684782949436661,0.5696498054474706,-0.8314946211947816,-0.7537346456092164
1684782949452663,0.5320515754940107,-0.8217288471808959,-0.7739986266880292
1684782949468665,0.4728465705348288,-0.8014648661020827,-0.8180666819256888
1684782949484667,0.44489204242008107,-0.7718013275349049,-0.761547264820325
1684782949500670,0.4892042420080873,-0.8090333409628441,-0.7660639353017471
1684782949516672,0.4807812619211109,-0.7186999313344016,-0.7152819104295416
1684782949532674,0.43073167009994684,-0.6000457770656902,-0.6260471503776608
1684782949548676,0.3602960250247955,-0.5952849622339209,-0.5668421454184789
1684782949564678,0.3419851987487599,-0.6371557183184557,-0.586739909971771
1684782949580680,0.40375371938658766,-0.6437476157778286,-0.6232394903486687
1684782949596683,0.4581979095140003,-0.5543907835507742,-0.647043564507515
1684782949612685,0.5458457312886242,-0.46686503395132384,-0.6558327611200121
1684782949628687,0.679880979629206,-0.416327153429465,-0.7171129930571452
1684782949644683,0.7660639353017471,-0.24493781948577098,-0.7277332722972458
1684782949660686,0.7597161821927214,-0.2553139543755245,-0.8168459601739531
1684782949676688,0.7455558098725872,-0.1450827801937895,-0.784008545052262
1684782949692690,0.6823224231326774,-0.04596017395284946,-0.7570305943389029
1684782949708692,0.6735332265201803,-0.0289921416037231,-0.7824216067750056
1684782949724694,0.6801251239795532,-0.0575570305943387,-0.8101319905394062
1684782949740697,0.7016098268101016,-0.08831921873807902,-0.7582513160906386
1684782949756699,0.718577859159228,-0.15106431677729448,-0.6707255664911878
1684782949772701,0.7830319676508735,-0.22858014801251247,-0.5822232394903488
1684782949788703,0.817578393224994,-0.2993820096131836,-0.49835965514610514
1684782949804705,0.7802243076218813,-0.45831998168917387,-0.49201190203707945
1684782949820707,0.7691157396810864,-0.4771190966659038,-0.37384603646906234
1684782949836710,1.021805142290379,-0.3344167238879989,0.1620508125429163
1684782949852712,0.39069199664301557,-0.41461814297703503,-0.2267490653849089
1684782949868714,0.7212634470130466,-0.7448233768215458,-0.2924238956282901
1684782949884716,0.5581750209811549,-0.8489509422446022,-0.3941100175478751
1684782949900718,0.6610818646524761,-0.8411383230334937,-0.31708247501335185
1684782949916720,0.8476081483176925,-0.8856946669718471,-0.4779736018921188
1684782949932723,0.8471198596169982,-0.9345235370412754,-0.5729457541771574
1684782949948725,0.721141374837873,-1.2111390859845885,-0.5698939497978182
1684782949964721,0.5172808422980086,-0.7473868925001907,-0.6289768825818265
1684782949980723,0.39838254367895054,-0.7738765545128556,-0.4030212863355458
1684782949996726,0.40045777065690125,-0.7716792553597314,-0.39520866712443725
1684782950012728,0.37604333562218706,-0.7149156939040209,-0.34320592050049603
1684782950028730,0.3640802624551762,-0.692698558022431,-0.29681849393453863
1684782950044732,0.39411001754787556,-0.7001449607080188,-0.23285267414358746
1684782950060734,0.5126420996414129,-0.7259021896696423,-0.20404364080262472
1684782950076737,0.6373998626688033,-0.7406729228656443,-0.1990386816205083
1684782950092739,0.6572976272220954,-0.6931868467231252,-0.19208056763561476
1684782950108741,0.6594949263752197,-0.6636453803311206,-0.2465247577630274
1684782950124743,0.6837872892347603,-0.6701152056153199,-0.3285572594796675
1684782950140745,0.6989242389562831,-0.6837872892347598,-0.39728389410238796
1684782950156747,0.7156481269550623,-0.5775844968337531,-0.39349965667200726
1684782950172750,0.7207751583123523,-0.578194857709621,-0.31915770199130256
1684782950188752,0.7577630273899443,-0.5383993286030364,-0.2544594491493095
1684782950204754,0.7360341802090486,-0.5133745326924544,-0.24127565423056385
1684782950220756,0.7130846112764173,-0.48493171587701234,-0.2439612420843824
1684782950236758,0.6990463111314567,-0.47479972533760595,-0.26605630579079875
1684782950252761,0.6854962996871903,-0.42426184481574714,-0.2935225452048522
1684782950268763,0.7016098268101016,-0.39740596627756153,-0.2763103685053787
1684782950284790,0.7755855649652856,-0.37128252079041735,-0.2869306477454794
1684782950300792,0.8345464255741204,-0.4096131837949186,-0.37543297474631876
1684782950316794,0.868238345922026,-0.4122987716487372,-0.4434271763179982
1684782950332796,0.835523002975509,-0.4177920195315479,-0.5029983978027008
1684782950348798,0.8007324330510412,-0.3894712748912794,-0.5175249866483558
1684782950364801,0.7812008850232699,-0.35065232318608386,-0.5067826352330815
1684782950380803,0.8023193713282977,-0.32880140383001466,-0.47052719920653097
1684782950396805,0.7520256351567864,-0.30951400015259,-0.4686961165789274
1684782950412807,0.7339589532310979,-0.3104905775539786,-0.4855420767528802
1684782950428809,0.7619134813458457,-0.3096360723277636,-0.53168535896849
1684782950444811,0.7843747615777827,-0.2894941634241244,-0.5330281528953993
1684782950460814,0.8091554131380176,-0.2623941405355916,-0.5285114824139772
1684782950476816,0.8288090333409626,-0.26153963530937663,-0.5602502479591056
1684782950492818,0.8136720836194398,-0.2609292744335088,-0.595529106584268
1684782950508820,0.7686274509803921,-0.27118333714808873,-0.64106202792401
1684782950524822,0.7661860074769207,-0.2848554207675287,-0.6449683375295643
1684782950540825,0.7852292668039977,-0.2936446173800258,-0.6212863355458915
1684782950556827,0.798535133897917,-0.3032883192187379,-0.5873502708476388
1684782950572829,0.8122072175173569,-0.3240405889982454,-0.5530479896238649
1684782950588831,0.8128175783932248,-0.3428397039749753,-0.53681239032578
1684782950604828,0.7410391393911651,-0.384466315709163,-0.5539024948500799
1684782950620830,0.6569314106965747,-0.4286564431219957,-0.65131609063859
1684782950636832,0.6618142977035175,-0.4566109712367439,-0.6295872434576943
1684782950652834,0.7025864042114902,-0.4357366292820628,-0.5557335774776835
1684782950668836,0.717723353933013,-0.39020370794232084,-0.46845197222858026
1684782950684838,0.6769512474250403,-0.3462577248798353,-0.42670328831921855
1684782950700841,0.6741435873960482,-0.3412527656977189,-0.4376897840848404
1684782950716843,0.6905012588693067,-0.32928969253070894,-0.49457541771572444
1684782950732845,0.7049057755397881,-0.3617608911268788,-0.5723353933012896
1684782950748847,0.74531166552224,-0.3798275730525673,-0.6431372549019607
1684782950764849,0.7439688715953308,-0.36957351033798735,-0.7095445181963838
1684782950780851,0.7514152742809186,-0.3245288776989397,-0.7119859616998552
1684782950796854,0.7659418631265735,-0.33344014648661036,-0.7178454261081866
1684782950812856,0.7691157396810864,-0.3261158159761961,-0.6906233310444803
1684782950828858,0.7543450064850843,-0.31537346456092186,-0.6924544136720838
1684782950844860,0.7320057984283208,-0.30939192797741644,-0.679758907454032
1684782950860862,0.7252918287937744,-0.3209887846189061,-0.6492408636606393
1684782950876865,0.7251697566186008,-0.3131761654077976,-0.6166475928892958
1684782950892867,0.747875181200885,-0.28839551384756223,-0.5476768139162278
1684782950908869,0.7499504081788357,-0.2638590066376745,-0.5067826352330815
1684782950924865,0.7317616540779737,-0.21698329137102323,-0.46222629129472814
1684782950940868,0.7113756008239873,-0.1829251544975965,-0.4539253833829253
1684782950956870,0.7416495002670329,-0.19769588769359903,-0.4874952315556573
1684782950972872,0.7705806057831692,-0.20184634164950044,-0.5165484092469672
1684782950988874,0.789990081635767,-0.2167391470206761,-0.504951552605478
1684782951004876,0.76240177004654,-0.22198825055313964,-0.5509727626459142
1684782951020878,0.7439688715953308,-0.2243076218814375,-0.5557335774776835
1684782951036881,0.7248035400930801,-0.21051346608682397,-0.5354695963988707
1684782951052883,0.7280994888227665,-0.19415579461356547,-0.4749217975127795
1684782951068885,0.7335927367055772,-0.19244678416113548,-0.42169832913710215
1684782951084887,0.7088120851453423,-0.20428778515297186,-0.40863660639353006
1684782951100889,0.6776836804760817,-0.21783779659723823,-0.4307316700999464
1684782951116891,0.6544899671931033,-0.2394445716029603,-0.4348821240558478
1684782951132894,0.6284885938811327,-0.2503089951934081,-0.4315861753261614
1684782951148896,0.6306858930342569,-0.25397116044861523,-0.41242084382391075
1684782951164898,0.6284885938811327,-0.2700846875715266,-0.3820248722056916
1684782951180900,0.6444800488288704,-0.3302662699320975,-0.45294880598153675
1684782951196902,0.6175020981155104,-0.38556496528572515,-0.5623254749370563
1684782951212905,0.5886930647745476,-0.4329289692530707,-0.5971160448615245
1684782951228907,0.6148165102616918,-0.47052719920653097,-0.6626688029297321
1684782951244934,0.6955062180514231,-0.5383993286030364,-0.6332494087129015
1684782951260936,0.7099107347219045,-0.6139620050354773,-0.6535133897917142
1684782951276938,0.6854962996871903,-0.6680399786373692,-0.7724116884107728
1684782951292940,0.6786602578774703,-0.7243152513923858,-0.8161135271229116
1684782951308942,0.6693827725642789,-0.7895017929350727,-0.7787594415197985
1684782951324945,0.6525368123903261,-0.8018310826276034,-0.7184557869840544
1684782951340947,0.645456626230259,-0.7895017929350727,-0.609201190203708
1684782951356949,0.6341039139391169,-0.7776607919432363,-0.529121843289845
1684782951372951,0.6290989547570005,-0.7914549477378499,-0.5545128557259478
1684782951388953,0.6168917372396425,-0.7650873579003585,-0.5873502708476388
1684782951404955,0.6260471503776612,-0.7116197451743345,-0.5397421225299457
1684782951420958,0.655710688944839,-0.6338597695887693,-0.4738231479362174
1684782951436960,0.6725566491187918,-0.5810025177386131,-0.44745555809872606
1684782951452962,0.6588845654993518,-0.5465781643396657,-0.5012893873502708
1684782951468964,0.6168917372396425,-0.5062943465323873,-0.5613488975356677
1684782951484966,0.6276340886549177,-0.4813916227969788,-0.5476768139162278
1684782951500969,0.6389868009460598,-0.4664988174258031,-0.5770962081330588
1684782951516971,0.6243381399252304,-0.44745555809872606,-0.6336156252384222
1684782951532973,0.6424048218509197,-0.4463569085221639,-0.6796368352788584
1684782951548975,0.6605935759517818,-0.459418631265736,-0.7291981383993287
1684782951564972,0.6594949263752197,-0.45673304341191745,-0.7320057984283208
1684782951580974,0.6558327611200125,-0.4724803540093081,-0.7619134813458457
1684782951596976,0.6551003280689711,-0.49530785076676587,-0.7757076371404592
1684782951612978,0.6432593270771347,-0.5073929961089494,-0.7713130388342107
1684782951628980,0.6309300373846041,-0.5076371404592965,-0.7293202105745022
1684782951644982,0.6447241931792176,-0.5125200274662394,-0.6822003509575034
1684782951660985,0.6511940184634168,-0.5272907606622415,-0.6452124818799114
1684782951676987,0.6481422140840776,-0.5373006790264743,-0.5927214465552759
1684782951692989,0.6577859159227897,-0.5460898756389714,-0.5761196307316703
1684782951708991,0.7002670328831924,-0.54706645304036,-0.5846646829938202
1684782951724993,0.6883039597161824,-0.5452353704127564,-0.5849088273441674
1684782951740996,0.6478980697337304,-0.5513389791714349,-0.5593957427328906
1684782951756998,0.6254367895017934,-0.5921110856794081,-0.6060273136491952
1684782951773000,0.6218966964217589,-0.6662088960097656,-0.6673075455863278
1684782951789002,0.6344701304646376,-0.7217517357137408,-0.7154039826047152
1684782951805004,0.6671854734111546,-0.7554436560616464,-0.7373769741359579
1684782951821006,0.682444495307851,-0.7658197909514,-0.7415274280918593
1684782951837009,0.6898908979934388,-0.789135576409552,-0.7578850995651178
1684782951853011,0.6864728770885788,-0.8101319905394062,-0.7906004425116349
1684782951869013,0.6843976501106281,-0.8477302204928665,-0.76069275959411
1684782951885040,0.6929427023727781,-0.8864271000228885,-0.7028305485618374
1684782951901043,0.6999008163576717,-0.907911802853437,-0.6446021210040436
1684782951917045,0.6731670099946596,-0.8938735027084763,-0.5882047760738538
1684782951933048,0.6204318303196761,-0.8855725947966735,-0.5535362783245592
1684782951949051,0.5702601663233384,-0.8944838635843442,-0.5311970702677957
1684782951965053,0.5160601205462729,-0.8909437705043106,-0.5396200503547721
1684782951981056,0.4845654993514916,-0.8587167162584879,-0.47809567406729236
