Timestamp (microseconds),Gyro X (°/s),Gyro Y (°/s),Gyro Z (°/s)
1684782926601501,476.37140459296575,-564.4464789806973,130.84611276417172
1684782926617501,137.62111848630502,-808.0109864957656,24.36865796902407
1684782926633502,-431.7540245670252,-335.25597009231706,-97.73403524834055
1684782926649502,167.98657206073108,-184.13061722743578,-162.5848783093004
1684782926665502,269.8252841992828,162.40177004654015,-116.65522240024416
1684782926681502,218.34134431982898,29.526207370107386,-78.66025787747014
1684782926697503,168.32227054245823,45.94491493095302,-68.13153276874948
1684782926713503,97.27626459143971,-42.801556420233396,-51.6517891203174
1684782926729503,37.91866941329067,-16.311894407568502,-28.274967574578454
1684782926745504,59.95269703212034,44.08331425955612,-7.339589532310924
1684782926761504,73.59426260776672,123.85748073548484,6.515602349889377
1684782926777504,98.95475700007637,112.19958800640893,12.314030670633997
1684782926793504,85.67940794995025,66.39200427252604,3.463797970550104
1684782926809505,96.51331349660495,51.83489738307776,9.29274433508806
1684782926825505,92.48493171587688,71.91577019913029,7.125963225757232
1684782926841505,79.20958266575099,48.63050278477158,-12.222476539253762
1684782926857505,39.29198138399329,-30.289158464942375,-8.834973678187225
1684782926873506,82.38345922026383,77.56160830090789,-7.461661707484495
1684782926889506,101.79293507286184,161.5777828641185,-12.710765239948046
1684782926905506,148.66865033951308,294.60593575951793,-6.485084306095928
1684782926921508,106.30960555428396,317.4334325169757,7.675288014038301
1684782926937509,85.77096208133048,356.95429922941935,5.569542992294146
1684782926953509,41.82497901884494,456.3515678644999,0.5340657663844013
1684782926969509,9.506370641641865,455.40550850690465,-34.01235980773629
1684782926985509,-18.417639429312658,408.28564888990627,-25.864042114900485
1684782927001510,-32.82215609979403,322.6520180056459,-4.86762798504617
1684782927017510,77.25642786297385,243.1219958800641,45.02937361715112
1684782927033510,128.86243991760125,151.56786449988545,27.725642786297385
1684782927049511,116.25848783093011,115.46501869230178,2.2430762188143945
1684782927065511,33.24940871290164,86.44235904478523,16.067750057221247
1684782927081511,-23.08690012970169,-65.04921034561687,31.754024567025454
1684782927097511,-78.90440222781729,-287.76989394979785,38.406958113984956
1684782927113512,-102.37277790493624,-443.5950255588616,52.9945830472268
1684782927129512,-104.66163118944075,-463.40123598077366,45.3650720988785
1684782927145512,-115.86175326161595,-486.01510643167774,40.54322117952256
1684782927161512,-174.24277103837653,-515.8007171740292,28.183413443198106
1684782927177513,-154.28397039749757,-481.1322194247348,21.774624246585745
1684782927193513,-150.49973296711687,-432.7916380560006,15.396353093766606
1684782927209513,-231.25047684443427,-259.23552300297547,-10.75761043717091
1684782927225514,-126.20737010757614,-167.10154879072252,-30.35019455252916
1684782927241516,-94.04135194934008,-23.971923399710136,-42.64896620126649
1684782927257516,-91.99664301518271,2.853437094682249,-28.36652170595869
1684782927273516,-74.17410543984124,-1.937895780880467,-14.724956130311966
1684782927289517,28.85481040665286,55.710688944838694,-18.265049210345637
1684782927305517,34.10391393911664,247.33348592355242,-35.568780041199375
1684782927321517,21.71358815899896,348.16510261692224,-48.142214084077295
1684782927337517,94.22446021210044,326.77195391775376,-51.255054551003354
1684782927353518,96.60486762798519,227.9850461585413,-32.70008392462046
1684782927369518,85.83199816891738,-115.83123521782261,-44.75471122301053
1684782927385518,61.905851834897476,-566.1554894331273,-0.9613183794918996
1684782927401518,-46.1585412375066,23.422598611428953,23.880369268329787
1684782927417519,52.53681239032585,306.99626153963527,-23.270008392462046
1684782927433519,67.3685816739146,61.11238269626915,-16.433966582742073
1684782927449519,53.23872739757394,-24.063477531090257,-4.928664072632955
1684782927465520,49.179827573052535,-34.866865033951285,2.7924010070954637
1684782927481520,39.93286030365471,4.409857328145222,10.482948043030433
1684782927497520,22.598611429007292,25.223163195239067,20.279240100709444
1684782927513520,25.101091020065496,94.0413519493402,25.925078202487157
1684782927529521,62.85191119249248,133.65377279316385,45.975432974746354
1684782927545521,96.72693980315876,156.26764324406827,43.80865186541541
1684782927561554,97.61196307316709,197.74166475928882,20.737010757610392
1684782927577554,71.51903562981602,83.84832532234668,11.734187838559478
1684782927593554,19.089036392767184,-4.409857328145222,29.80086976424809
1684782927609554,-62.63828488593879,-37.49141680018306,35.47722590981925
1684782927625555,-67.33806363012127,-90.40970473792629,39.749752040894236
1684782927641555,-61.11238269626915,-210.3456168459602,34.439612420844014
1684782927657555,-85.9845883878844,-129.50331883726255,9.44533455405508
1684782927673555,-206.04257267109188,-251.1787594415198,-27.725642786297385
1684782927689556,-77.43953612573432,-272.5108720531015,-31.631952391851655
1684782927705556,5.264362554360218,-99.96185244525827,-36.42328526741437
1684782927721556,93.15632867933164,-126.72617685206376,-37.88815136949722
1684782927737557,30.869001297016666,-145.92202639810796,-90.6233310444801
1684782927753557,-4.287785152971651,-190.9971770809491,-107.31670099946587
1684782927769557,4.745555809872599,-179.8580910963608,-99.35149156939042
1684782927785557,95.07896543831544,-17.56313420309766,-65.84267948424508
1684782927801558,125.26131074998102,77.68368047608146,-56.41260395208667
1684782927817558,161.76089112687896,159.4415197985811,-59.52544441901273
1684782927833558,170.18387121385535,144.97596704051261,-20.462348363469914
1684782927849558,145.40321965362023,148.11932555123212,13.35164415960935
1684782927865559,77.19539177538718,64.31677729457533,9.44533455405508
1684782927881591,48.661020828564915,-3.5248340581368893,-6.759746700236519
1684782927897592,53.42183566033418,45.21248187991159,0.5951018539711868
1684782927913592,31.60143434805832,114.09170672159917,12.80231937132828
1684782927929592,9.56740672922865,96.45227740901828,0.41199359121083035
1684782927945593,-24.277103837644063,54.093232623788936,8.22461280231937
1684782927961593,-50.73624780651562,16.98329137102303,12.161440451666977
1684782927977593,-46.40268558785374,6.2714579995422355,-1.7853055619134466
1684782927993593,-15.060654612039343,14.877546349278987,-21.19478141451134
1684782928009594,30.9605554283969,71.1528191042953,-30.014496070801897
1684782928025594,73.89944304570076,96.48279545281162,-23.666742961776208
1684782928041594,95.78088044556353,73.74685282673386,-11.215381094071859
1684782928057594,47.10460059510183,-25.741969939726914,23.69726100556943
1684782928073595,-10.75761043717091,-36.789501792935084,49.75967040512705
1684782928089595,-6.912336919203426,49.69863431754038,47.10460059510183
1684782928105595,-39.444571602960195,76.58503089951932,44.78522926680398
1684782928121595,-97.30678263523305,27.420462348363344,49.942778667887524
1684782928137596,-124.52887769893948,-64.25574120698866,61.23445487144272
1684782928153596,-78.78233005264372,-81.58999008163585,68.03997863736936
1684782928169596,-7.431143663691159,-48.020141908903724,49.02723735408563
1684782928185597,46.03646906233325,-11.154345006485073,35.35515373464568
1684782928201660,71.70214389257649,16.800183108262672,42.22171358815899
1684782928217661,62.91294728007938,70.17624170290674,34.8668650339514
1684782928233661,57.08400091554131,140.18463416495,15.2437628747997
1684782928249662,25.101091020065496,218.52445258258945,0.8087281605248791
1684782928265663,33.0052643625545,241.53505760280768,-1.2054627298390415
1684782928281664,76.58503089951932,238.30014496070817,17.441062027923977
1684782928297664,80.09460593575955,201.0070954451819,18.265049210345524
1684782928313665,50.1564049744411,121.81277180132747,0.3204394598305953
1684782928329666,-3.006027313649156,63.15709163042652,-7.522697795071281
1684782928345667,14.602883955138395,68.31464103150984,0.41199359121083035
1684782928361667,37.857633325704,75.60845349813076,8.74341954680699
1684782928377668,17.624170290684333,33.157854581521406,24.42969405661097
1684782928393669,-13.138017853055544,-38.28488593881127,34.439612420844014
1684782928409670,-47.592889295796226,-145.70840009155415,39.44457160296042
1684782928425670,-69.47432669565876,-239.79552910658435,44.2969405661097
1684782928441671,-111.74181734950798,-287.86144808117797,30.991073472190237
1684782928457672,-171.28252079041727,-244.86152437628755,8.377203021286277
1684782928473672,-84.55024032959489,-100.6942854962997,2.090485999847374
1684782928489673,27.176317998016202,-15.640497444113862,13.90096894789042
1684782928505674,121.78225375753414,85.4352635996031,8.865491721980561
1684782928521698,174.09018081940962,165.66720073243323,4.776073853665935
1684782928537698,195.02555886167693,188.37262531471742,-6.9733730067902115
1684782928553699,186.05325398641958,185.41237506675816,-22.171358815899907
1684782928569700,177.7218280308232,177.75234607461675,-13.748378728923399
1684782928585701,165.14839398794538,112.68787670710321,4.135194934004744
1684782928601701,13.565270466163042,-78.11093308918896,-6.301976043335571
1684782928617702,-12.314030670633997,-155.2300297550927,-23.08690012970169
1684782928633703,6.118867780575215,-84.27557793545441,2.7924010070954637
1684782928649704,18.539711604486115,22.842755779354434,34.8668650339514
1684782928665704,36.118104829480444,72.83131151293196,60.22735942626082
1684782928681705,45.578698405432306,38.803692683299005,62.48569466697177
1684782928697706,73.47219043259315,-2.5177386129548722,32.97474631876116
1684782928713707,82.32242313267716,-27.93926909285119,21.13374532692444
1684782928729707,73.01441977569243,-60.502021820401296,25.223163195239067
1684782928745708,67.06340123598079,-85.43526359960333,22.50705729762717
1684782928761709,57.114518959334646,-107.6218814373998,25.253681239032403
1684782928777710,47.10460059510183,-113.72549019607845,40.54322117952256
1684782928793710,27.542534523536915,-138.7502861066605,29.739833676661192
1684782928809711,13.717860685130063,-154.28397039749757,14.633401998931845
1684782928825712,24.2465857938505,-132.95185778591588,1.3580529488059483
1684782928841735,36.45380331120782,-99.74822613870447,-11.154345006485073
1684782928857736,79.42320897230479,-79.45372701609836,0.7476920729380936
1684782928873737,112.59632257572298,-66.02578774700544,-18.08194094758528
1684782928889738,159.62462806134135,-70.05416952773328,-17.898832684824924
1684782928905738,128.22156099794006,-124.01007095445186,-10.727092393377575
1684782928921739,104.35645075150683,-90.83695735103379,-22.4460212100405
1684782928937740,100.99946593423374,-79.17906462195776,-28.030823224231312
1684782928953741,112.19958800640893,-80.36926832990014,-42.46585793850613
1684782928969741,157.8545815213247,-80.73548485542085,-55.89379720759905
1684782928985742,225.63515678645012,-132.4635690852216,-81.83413443198299
1684782929001743,253.3150225070574,-198.96238651102465,-119.2492561226826
1684782929017744,90.1350423437857,-195.88006408789192,-88.76173037308308
1684782929033744,92.9121843289845,-90.07400625619903,-68.89448386358436
1684782929049745,94.34653238727401,-35.50774395361259,-84.97749294270238
1684782929065746,78.17196917677575,-18.020904859998495,-109.91073472190442
1684782929081747,71.39696345464245,5.325398641947004,-110.3990234225987
1684782929097747,95.99450675211733,20.37079423208968,-105.30251010910195
1684782929113748,119.73754482337677,52.26214999618537,-126.26840619516292
1684782929129749,110.76523994811942,61.32600900282296,-98.89372091248947
1684782929145750,79.97253376058597,37.55245288776996,-62.66880292973224
1684782929161773,31.84557869840546,4.928664072632955,-33.03578240634772
1684782929177774,32.88319218738093,1.937895780880467,-5.1117723353933116
1684782929193775,23.72777904936288,-10.208285648889841,14.908064393072323
1684782929209776,26.626993209735247,-7.583733882658066,34.0123598077364
1684782929225776,25.680933852140015,-3.768978408484031,32.02868696116593
1684782929241777,19.54680704966802,19.302662699320877,15.36583504997327
1684782929257778,12.558175020981139,56.41260395208678,-19.150072480354083
1684782929273779,24.032959487296694,75.39482719157695,-22.995345998321568
1684782929289779,41.94705119401851,88.059815365835,-14.145113298237561
1684782929305780,40.39063096055543,98.16128786144827,-2.0294499122605885
1684782929321781,34.8668650339514,97.00160219729923,11.825741969939713
1684782929337782,21.347371633478247,64.10315098802175,27.420462348363344
1684782929353782,-0.045777065690117524,19.485770962081233,40.024414435034714
1684782929369783,-11.490043488212336,0.7171740291447577,38.62058442053876
1684782929385784,-4.592965590905578,3.555352101930225,44.5716029602504
1684782929401785,5.874723430228073,20.279240100709444,49.240863660639434
1684782929417785,8.987563897154132,34.04287785152974,49.301899748226106
1684782929433786,-0.5340657663844013,37.064164187075676,52.689402609292756
1684782929449787,-8.407721065079727,36.63691157396829,56.29053177691321
1684782929465788,-8.133058670939135,38.43747615777829,59.18974593728535
1684782929481811,-7.797360189211872,40.970473792629946,55.22240024414441
1684782929497812,-6.790264744029855,38.19333180743115,45.82284275577945
1684782929513814,-12.863355458915066,32.48645761806688,39.383535515373524
1684782929529815,-15.457389181353392,19.94354161898218,32.88319218738093
1684782929545816,-13.473716334782921,9.140154116121153,27.389944304570008
1684782929561817,-9.29274433508806,5.9357595178148586,26.749065384908818
1684782929577818,-6.088349736781879,6.515602349889377,26.596475165941683
1684782929593820,-3.219653620202962,11.97833218890662,25.65041580834668
1684782929609821,-0.38147554741738077,21.59151598382539,22.873273823147883
1684782929625822,0.5035477225909517,36.39276722362115,17.593652246890883
1684782929641823,-1.266498817425827,45.273517967498265,15.793087663080769
1684782929657825,-6.424048218509142,39.749752040894236,17.868314641031475
1684782929673826,-13.565270466163042,28.45807583733881,21.01167315175087
1684782929689827,-13.168535896848994,28.000305180437863,24.704356450751447
1684782929705828,-6.393530174715806,44.02227817196922,19.91302357518873
1684782929721830,1.3275349050126124,61.69222552834367,14.69443808651863
1684782929737831,5.50850690470736,70.93919279774173,9.384298466468294
1684782929753832,3.891050583657602,73.16700999465934,8.1025406271458
1684782929769833,-2.6703288319218927,64.92713817044319,10.025177386129485
1684782929785834,1.3580529488059483,60.776684214541774,12.924391546501852
1684782929801849,19.333180743114326,71.97680628671696,12.252994583047212
1684782929817850,41.672388799878036,93.33943694209188,7.736324101625087
1684782929833851,58.36575875486392,107.74395361257348,6.240939955748786
1684782929849853,57.51125352864892,93.61409933623236,11.703669794766142
1684782929865854,48.32532234683754,65.3543907835508,14.145113298237561
1684782929881855,31.0215915159838,36.45380331120782,12.344548714427333
1684782929897856,19.058518348973735,21.59151598382539,13.962005035477205
1684782929913858,7.888914320591994,9.079118028534367,15.21324483100625
1684782929929859,-1.4801251239795192,8.316166933699492,14.02304112306399
1684782929945860,-10.269321736476627,12.100404364080191,12.80231937132828
1684782929961861,-17.99038681620516,8.1025406271458,14.938582436865772
1684782929977862,-22.354467078660264,3.799496452277367,16.342412451361838
1684782929993864,-27.389944304570122,-0.16784924086368846,16.250858319981603
1684782930009865,-31.784542610818676,-5.569542992294146,11.886778057526499
1684782930025866,-39.68871595330734,-18.417639429312658,1.052872510872021
1684782930041867,-40.05493247882805,-22.598611429007406,-7.431143663691159
1684782930057869,-32.12024109254594,-18.966964217593727,-5.447470817120575
1684782930073870,-31.387808041504513,-21.011673151750983,-6.912336919203426
1684782930089871,-32.70008392462046,-24.795910582131683,-8.1025406271458
1684782930105872,-32.12024109254594,-19.97405966277563,-10.818646524757696
1684782930121856,-17.654688334477783,-4.501411459525457,-15.274280918593035
1684782930137858,-2.7008468757152286,-5.416952773327239,-22.079804684519786
1684782930153859,13.19905394064233,-0.1373311970702389,-20.035095750362416
1684782930169860,19.54680704966802,1.3275349050126124,-26.19974059662775
1684782930185861,16.098268101014696,4.776073853665935,-27.206836041809765
1684782930201862,3.0365453574426056,2.4567025253680868,-34.04287785152974
1684782930217864,-0.8392462043183286,-6.942854962996876,-48.569466697184794
1684782930233865,0.5035477225909517,-5.752651255054502,-47.25719081406885
1684782930249866,10.08621347371627,7.980468451972229,-56.74830243381405
1684782930265867,32.30334935530641,9.781033035782343,-65.84267948424508
1684782930281869,44.66315709163041,12.619211108567924,-74.81498435950255
1684782930297870,35.660334172579724,4.715037766079149,-76.52399481193254
1684782930313871,31.66247043564522,3.006027313649156,-59.12870984969868
1684782930329872,30.991073472190237,-2.761882963302014,-43.503471427481486
1684782930345873,25.19264515144573,-17.654688334477783,-38.223849851224486
1684782930361875,28.27496757457834,-16.76966506446945,-42.25223163195233
1684782930377876,30.624856946669524,-13.260090028229115,-37.64400701915008
1684782930393877,20.706492713816942,-3.1586175326161765,-36.48432135500116
1684782930409878,9.231708247501274,19.66887922484159,-37.308308537422704
1684782930425880,10.238803692683291,23.910887312123236,-31.540398260471534
1684782930441925,3.4332799267566543,0.5035477225909517,-15.304798962386485
1684782930457926,-1.6937514305333252,-14.69443808651863,-0.22888532845047393
1684782930473927,-5.600061036087595,-38.37644007019151,7.034409094376997
1684782930489928,0.6256198977645226,-47.25719081406885,10.543984130617218
1684782930505930,10.299839780270077,-38.07125963225758,7.766842145418423
1684782930521931,17.34950789654374,-21.286335545891575,-0.1373311970702389
1684782930537932,26.443884946974777,2.97550926985582,-7.431143663691159
1684782930553933,31.0215915159838,38.681620508125434,-14.084077210650776
1684782930569934,20.279240100709444,56.22949568932631,-21.10322728313122
1684782930585936,11.184863050278409,51.25505455100324,-22.934309910734783
1684782930601937,2.426184481574751,43.04570077058065,-20.00457770656908
1684782930617938,-2.212558175020945,40.42114900434899,-12.558175020981139
1684782930633939,-4.226749065384865,32.211795223926174,-17.074845502403377
1684782930649941,-5.874723430228073,32.02868696116593,-2.883955138475585
1684782930665942,-2.5177386129548722,51.13298237582967,-5.355916685740453
1684782930681943,3.891050583657602,75.30327306019672,-9.41481651026163
1684782930697944,-0.9002822919051141,70.90867475394816,-6.698710612649734
1684782930713945,-8.560311284046634,51.865415426871095,-0.5035477225909517
1684782930729947,-11.093308918898288,34.83634699015806,3.8300144960708167
1684782930745948,-8.77393759060044,23.910887312123236,10.75761043717091
1684782930761963,-5.386434729533789,15.060654612039343,13.412680247196135
1684782930777964,-11.551079575799122,1.0833905546654705,13.748378728923399
1684782930793965,-25.89456015869382,19.69939726863504,-11.520561532005786
1684782930809966,-53.665980010681324,55.954833295185836,-59.40337224383916
1684782930825967,-85.25215533684297,138.35355153734645,-87.93774319066154
1684782930841969,-69.74898908979935,192.40100709544527,-102.1286335545891
1684782930857970,-53.20820935378049,211.74944686045615,-95.01792935072865
1684782930873971,-60.532539864194746,192.40100709544527,-90.44022278171974
1684782930889972,-44.14435034714268,160.05188067444897,-89.31105516136415
1684782930905974,26.260776684214534,145.28114747844666,-37.79659723811699
1684782930921975,54.7951476310368,110.76523994811942,3.4332799267566543
1684782930937976,64.13366903181509,102.37277790493636,8.590829327840083
1684782930953977,49.75967040512705,81.95620660715645,7.156481269550568
1684782930969978,44.235904478523025,59.342336156252486,7.858396276798658
1684782930985980,42.28274967574589,38.43747615777829,8.77393759060044
1684782931001981,58.518348973830825,31.174181734950707,5.600061036087595
1684782931017982,101.15205615320065,56.07690547035941,-6.179903868162
1684782931033983,149.43160143434807,94.28549629968734,-24.093995574883706
1684782931049985,165.48409246967276,100.60273136491969,-48.20325017166408
1684782931065986,157.33577477683684,70.45090409704744,-60.13580529488058
1684782931082000,148.57709620813307,6.027313649195094,-72.2209506370641
1684782931098002,142.5345235370412,-41.5197985809109,-67.33806363012127
1684782931114003,164.81269550621823,-39.10887312123293,-77.2869459067673
1684782931130004,171.92339971007868,-16.61707484550243,-63.95056076905473
1684782931146005,159.34996566720088,-14.328221560997918,-70.63401235980768
1684782931162006,140.42877851529715,-48.08117799649051,-72.19043259327077
1684782931178008,141.6800183108262,-62.24155031662474,-45.48714427405196
1684782931194009,131.1818112458991,-47.25719081406885,-41.03150988021662
1684782931210010,135.75951781490812,6.332494087129021,-53.5744258793012
1684782931226011,145.4642557412069,34.22598611429021,-55.52758068207834
1684782931242013,112.68787670710321,26.901655603875724,-43.83916990920875
1684782931258014,100.87739375906017,24.002441443503358,-23.453116655222402
1684782931274015,94.8958571755552,24.67383840695811,-31.631952391851655
1684782931290016,106.98100251773872,42.09964141298542,-52.29266803997871
1684782931306018,119.58495460440986,58.76249332417797,-76.40192263675897
1684782931322019,114.9767299916075,63.4927901121539,-87.63256275272761
1684782931338020,98.19180590524161,63.27916380560009,-79.17906462195776
1684782931354021,87.20531013962,62.6382848859389,-74.75394827191576
1684782931370022,108.69001297016871,70.51194018463411,-85.92355230029762
1684782931386024,148.1803616388188,85.77096208133048,-97.4898908979934
1684782931402038,158.55649652857255,75.91363393606457,-87.60204470893416
1684782931418040,138.8113221942474,40.024414435034714,-61.26497291523617
1684782931434042,168.07812619211109,33.18837262531474,-48.38635843442444
1684782931450043,139.51323720149526,-0.6561379415579722,-24.826428625925132
1684782931466045,170.61112382696274,-25.314717326619416,-26.413366903181554
1684782931482047,205.7984283207445,-26.779583428702267,-54.062714579995486
1684782931498048,143.48058289463643,0.015259021896667946,-57.48073548485547
1684782931514050,93.61409933623236,20.279240100709444,-29.404135194934042
1684782931530052,69.50484473945221,15.36583504997327,-19.42473487449456
1684782931546054,85.3437094682231,10.421911955443647,-12.497138933394353
1684782931562055,111.89440756847489,19.27214465552754,-27.14579995422298
1684782931578057,222.03402761882967,206.43930724040592,-82.32242313267727
1684782931594059,165.60616464484633,138.5366598001067,-77.86678873884182
1684782931610060,45.73128862439921,-17.31898985275052,-57.846952010376185
1684782931626062,47.501335164416105,-8.926527809567347,-16.464484626535523
1684782931642064,49.11879148546586,-0.3509575036240449,15.487907225146841
1684782931658065,37.705043106736866,4.3183031967651,33.46303501945545
1684782931674067,51.285572594796804,-5.0202182040130765,28.45807583733881
1684782931690069,76.43244068055242,-45.05989166094446,4.287785152971651
1684782931706071,56.7177843900206,-43.503471427481486,-13.3211261158159
1684782931722076,26.382848859388105,-16.89173723964302,-12.252994583047212
1684782931738078,17.410543984130527,-18.997482261387063,-1.3885709925993979
1684782931754079,19.0280003051804,-19.638361181048367,5.600061036087595
1684782931770081,21.68307011520551,-6.424048218509142,6.942854962996876
1684782931786083,25.375753414205974,0.4730296787976158,9.109636072327703
1684782931802085,20.187685969329323,-1.937895780880467,10.421911955443647
1684782931818086,1.1139085984588064,-15.335317006179821,6.515602349889377
1684782931834088,-1.7242694743266611,-17.135881589990163,12.52765697718769
1684782931850090,-27.26787212939655,-31.754024567025226,11.398489356832215
1684782931866091,-38.132295719844365,-47.53185320820944,27.847714961470956
1684782931882093,-26.19974059662775,-33.89028763256272,18.265049210345524
1684782931898095,-13.626306553749828,-10.208285648889841,11.886778057526499
1684782931914096,-33.524071107042005,2.4872205691615363,11.276417181658644
1684782931930098,-72.4956130312047,-23.36156252384228,23.14793621728836
1684782931946100,-81.74258030060275,-61.84481574731058,28.39703974975191
1684782931962102,-77.77523460746158,-75.48638132295719,25.741969939726687
1684782931978103,-41.12306401159685,-56.19897764553298,25.131609063858832
1684782931994105,-22.079804684519786,-32.974746318760936,16.31189440756839
1684782932010107,-9.811551079575793,-15.487907225146841,6.027313649195094
1684782932026108,-11.184863050278409,-3.5248340581368893,-4.135194934004744
1684782932042114,-17.044327458609928,3.341725795376533,-4.715037766079149
1684782932058116,-12.52765697718769,1.1749446860455919,-1.1749446860455919
1684782932074117,-7.919432364385443,5.355916685740453,1.8158236057068962
1684782932090119,-4.440375371938671,11.886778057526499,-0.2899214160372594
1684782932106121,5.172808422980097,16.617074845502316,-3.9520866712443876
1684782932122122,13.778896772716848,14.57236591134506,-5.050736247806526
1684782932138124,17.196917677576835,14.755474174105416,-4.440375371938671
1684782932154126,12.13092240787364,16.922255283436243,-5.0202182040130765
1684782932170127,5.996795605401644,17.471580071717312,-5.783169298847952
1684782932186129,3.372243839169869,18.99748226138695,-5.142290379186647
1684782932202131,0.9613183794918996,14.816510261692201,-3.128099488822727
1684782932218133,1.3580529488059483,8.712901503013654,-0.22888532845047393
1684782932234134,3.5248340581368893,3.921568627450938,1.8158236057068962
1684782932250136,4.623483634699028,2.212558175020945,2.2735942626077303
1684782932266138,5.783169298847952,4.470893415732007,0.5951018539711868
1684782932282139,6.790264744029855,6.454566262302592,-0.8392462043183286
1684782932298141,7.583733882658066,7.0954451819637825,-0.5340657663844013
1684782932314143,7.0954451819637825,5.2338445105668825,1.1749446860455919
1684782932330145,4.959182116426291,4.074158846417959,4.440375371938671
1684782932346146,7.003891050583661,4.043640802624509,3.097581445029391
1684782932362182,5.50850690470736,8.194094758525921,-0.106813153276903
1684782932378184,2.7924010070954637,12.832837415121617,-3.7079423208972457
1684782932394186,0.93080033569845,12.924391546501852,-4.715037766079149
1684782932410187,0.9002822919051141,10.696574349584125,-4.470893415732007
1684782932426189,-0.44251163500416624,7.736324101625087,-3.921568627450938
1684782932442191,-0.8392462043183286,8.682383459220205,-4.135194934004744
1684782932458192,-0.9918364232852355,11.062790875104838,-5.447470817120575
1684782932474194,-0.4730296787976158,13.90096894789042,-6.576638437476163
1684782932490196,0.6561379415579722,13.99252307927054,-6.851300831616641
1684782932506198,0.6561379415579722,10.66605630579079,-4.989700160219741
1684782932522199,1.2970168612191628,9.811551079575793,-4.440375371938671
1684782932538201,0.7171740291447577,10.360875867856862,-5.1117723353933116
1684782932554203,-0.3509575036240449,8.1025406271458,-4.654001678492364
1684782932570204,-0.6561379415579722,4.83710994125272,-2.0294499122605885
1684782932586206,0.106813153276903,4.83710994125272,0.07629510948345342
1684782932602208,1.5411612115663047,6.2714579995422355,0.106813153276903
1684782932618209,3.4027618829633184,4.287785152971651,-0.1373311970702389
1684782932634211,3.585870145723675,1.266498817425827,0.5951018539711868
1684782932650213,3.555352101930225,-1.6021972991530902,1.7547875181201107
1684782932666215,2.1515220874341594,-2.6703288319218927,2.1515220874341594
1684782932682220,0.9613183794918996,-2.5177386129548722,2.2735942626077303
1684782932698222,0.9613183794918996,-1.5716792553597543,1.8158236057068962
1684782932714223,1.3275349050126124,0.8697642481116645,0.7476920729380936
1684782932730225,2.059967956054038,3.219653620202962,-0.9918364232852355
1684782932746227,2.426184481574751,2.4872205691615363,-1.1749446860455919
1684782932762229,2.3956664377813013,1.4190890363927338,-0.6561379415579722
1684782932778230,2.731364919508678,4.074158846417959,-1.3580529488059483
1684782932794232,2.548256656748322,6.2714579995422355,-2.4872205691615363
1684782932810234,2.30411230640118,5.874723430228073,-1.7242694743266611
1684782932826235,2.426184481574751,6.363012130922357,-1.2359807736323773
1684782932842237,3.4027618829633184,8.77393759060044,-1.8158236057068962
1684782932858239,2.7924010070954637,7.644769970244852,-2.3956664377813013
1684782932874241,2.334630350194516,5.203326466773433,-1.5411612115663047
1684782932890242,1.6021972991530902,4.440375371938671,-1.5716792553597543
1684782932906244,1.266498817425827,5.203326466773433,-1.8768596932936816
1684782932922246,0.6866559853513081,5.142290379186647,-1.6021972991530902
1684782932938247,0.8392462043183286,5.752651255054502,-1.4190890363927338
1684782932954249,0.3509575036240449,6.0578316929884295,-1.8158236057068962
1684782932970251,0.7476920729380936,5.874723430228073,-1.937895780880467
1684782932986252,0.5951018539711868,3.6469062333104603,-1.4801251239795192
1684782933002258,0.7171740291447577,2.3651483939879654,-1.1139085984588064
1684782933018260,1.2970168612191628,3.128099488822727,-0.6561379415579722
1684782933034261,1.3275349050126124,3.8300144960708167,-1.1749446860455919
1684782933050263,1.5716792553597543,3.799496452277367,-1.5716792553597543
1684782933066265,1.052872510872021,2.97550926985582,-1.6937514305333252
1684782933082266,1.1749446860455919,2.761882963302014,-1.9073777370870175
1684782933098268,1.2054627298390415,2.731364919508678,-1.846341649500232
1684782933114270,0.7782101167315432,2.30411230640118,-1.2970168612191628
1684782933130272,0.93080033569845,2.7008468757152286,-1.266498817425827
1684782933146273,1.1139085984588064,2.6703288319218927,-0.7171740291447577
1684782933162275,-1.5716792553597543,5.691615167467717,0.3509575036240449
1684782933178277,-0.106813153276903,5.966277561608308,0.93080033569845
1684782933194278,-30.441748683909395,8.712901503013654,11.33745326924543
1684782933210280,-0.22888532845047393,5.142290379186647,1.2054627298390415
1684782933226282,0.6866559853513081,-0.045777065690117524,-1.266498817425827
1684782933242283,-28.21393148699167,18.936446173800164,5.905241474021523
1684782933258285,-1.7242694743266611,12.375066758220783,0.7171740291447577
1684782933274287,-1.937895780880467,-5.294880598153668,0.7782101167315432
1684782933290289,-5.661097123674381,-1.5716792553597543,3.219653620202962
1684782933306290,-17.41054398413064,-3.128099488822727,4.501411459525457
1684782933322296,-15.548943312733627,-1.6937514305333252,1.6327153429465397
1684782933338297,-9.201190203707938,3.0365453574426056,0.6561379415579722
1684782933354299,-5.0202182040130765,2.30411230640118,-0.9002822919051141
1684782933370301,-0.9918364232852355,2.761882963302014,0.4730296787976158
1684782933386303,2.548256656748322,-0.19836728465702436,1.3885709925993979
1684782933402304,4.440375371938671,-1.1139085984588064,1.4190890363927338
1684782933418306,5.172808422980097,-1.4190890363927338,1.2054627298390415
1684782933434308,5.1117723353933116,-1.266498817425827,1.2970168612191628
1684782933450309,4.013122758831173,0.19836728465702436,0.4730296787976158
1684782933466311,2.9449912260623705,0.9918364232852355,-0.2899214160372594
1684782933482313,3.250171663996298,1.3275349050126124,-0.2594033722438098
1684782933498314,3.128099488822727,1.144426642252256,-0.1373311970702389
1684782933514316,3.006027313649156,0.7782101167315432,0.22888532845047393
1684782933530318,3.0365453574426056,1.5106431677729688,0.2594033722438098
1684782933546320,3.4943160143434397,1.1139085984588064,0.3204394598305953
1684782933562321,3.8605325398641526,-0.41199359121083035,0.6866559853513081
1684782933578323,3.585870145723675,-0.8087281605248791,0.9002822919051141
1684782933594325,3.6163881895170107,-0.5035477225909517,0.5645838101777372
1684782933610326,3.3112077515830833,-1.052872510872021,0.3509575036240449
1684782933626328,2.7924010070954637,-0.07629510948345342,0.2899214160372594
1684782933642334,1.4190890363927338,0.44251163500416624,0.16784924086368846
1684782933658335,0.93080033569845,0.5035477225909517,0.3204394598305953
1684782933674337,0.8087281605248791,0.015259021896667946,0.2899214160372594
1684782933690339,0.5340657663844013,0.22888532845047393,-0.19836728465702436
1684782933706340,0.6866559853513081,0.9002822919051141,-0.6866559853513081
1684782933722342,0.7782101167315432,0.4730296787976158,-0.38147554741738077
1684782933738344,1.0833905546654705,0.44251163500416624,-0.22888532845047393
1684782933754346,1.7547875181201107,0.015259021896667946,-0.19836728465702436
1684782933770347,2.1210040436408235,-0.16784924086368846,0.015259021896667946
1684782933786349,2.1515220874341594,0.5035477225909517,0.2594033722438098
1684782933802351,2.090485999847374,1.144426642252256,0.41199359121083035
1684782933818352,2.4567025253680868,1.9073777370870175,-0.015259021896667946
1684782933834354,2.1210040436408235,1.5411612115663047,-0.015259021896667946
1684782933850356,1.7853055619134466,2.334630350194516,-0.7782101167315432
1684782933866357,1.937895780880467,1.9989318684672526,-0.5645838101777372
1684782933882359,2.059967956054038,0.7171740291447577,-0.44251163500416624
1684782933898361,1.9989318684672526,0.38147554741738077,0.015259021896667946
1684782933914363,1.6937514305333252,0.93080033569845,0.07629510948345342
1684782933930364,1.3275349050126124,0.9002822919051141,-0.1373311970702389
1684782933946366,1.7242694743266611,1.4190890363927338,-0.1373311970702389
1684782933962402,1.5716792553597543,1.5411612115663047,-0.3204394598305953
1684782933978404,1.3580529488059483,1.6021972991530902,-0.41199359121083035
1684782933994405,1.2054627298390415,0.9613183794918996,-0.19836728465702436
1684782934010407,1.052872510872021,0.44251163500416624,-0.07629510948345342
1684782934026409,1.1139085984588064,0.9918364232852355,-0.41199359121083035
1684782934042410,0.8697642481116645,0.7171740291447577,-0.3204394598305953
1684782934058412,0.9613183794918996,1.266498817425827,-0.22888532845047393
1684782934074414,0.9918364232852355,1.5716792553597543,-0.2899214160372594
1684782934090416,0.7782101167315432,2.2735942626077303,-0.5340657663844013
1684782934106417,0.2899214160372594,2.1515220874341594,-1.1139085984588064
1684782934122419,-0.6561379415579722,1.4801251239795192,-1.022354467078685
1684782934138421,-1.6327153429465397,2.3651483939879654,-0.8087281605248791
1684782934154422,-2.426184481574751,4.715037766079149,-0.3509575036240449
1684782934170424,-0.41199359121083035,1.266498817425827,-1.144426642252256
1684782934186426,0.07629510948345342,-0.2594033722438098,-0.2899214160372594
1684782934202427,0.6866559853513081,0.8087281605248791,-0.5340657663844013
1684782934218429,1.2054627298390415,1.022354467078685,-0.5645838101777372
1684782934234431,1.2054627298390415,0.5645838101777372,-0.5340657663844013
1684782934250433,0.7476920729380936,0.19836728465702436,-0.2594033722438098
1684782934266434,0.5645838101777372,1.3275349050126124,-0.9613183794918996
1684782934282440,0.5951018539711868,0.106813153276903,-0.4730296787976158
1684782934298442,0.9613183794918996,-0.16784924086368846,0.045777065690117524
1684782934314443,0.6561379415579722,0.2899214160372594,-0.16784924086368846
1684782934330445,0.2899214160372594,0.4730296787976158,-0.2899214160372594
1684782934346447,0.38147554741738077,0.38147554741738077,-0.3204394598305953
1684782934362448,0.8087281605248791,0.07629510948345342,-0.4730296787976158
1684782934378450,1.3885709925993979,-0.045777065690117524,-0.1373311970702389
1684782934394452,0.41199359121083035,0.6561379415579722,-0.6561379415579722
1684782934410453,0.19836728465702436,1.5411612115663047,-0.9002822919051141
1684782934426455,-0.2594033722438098,0.4730296787976158,-0.6561379415579722
1684782934442457,-0.5951018539711868,0.5645838101777372,-0.7476920729380936
1684782934458459,-0.8392462043183286,0.7476920729380936,-1.0833905546654705
1684782934474460,-0.22888532845047393,0.5951018539711868,-0.8697642481116645
1684782934490462,0.07629510948345342,0.106813153276903,-0.3509575036240449
1684782934506464,0.6866559853513081,0.7476920729380936,-0.5035477225909517
1684782934522465,-0.015259021896667946,1.5716792553597543,-0.1373311970702389
1684782934538467,-1.1139085984588064,3.2806897077897474,0.3204394598305953
1684782934554469,0.41199359121083035,0.6866559853513081,-0.3509575036240449
1684782934570470,0.6866559853513081,0.7782101167315432,-0.41199359121083035
1684782934586472,1.144426642252256,0.6256198977645226,-0.1373311970702389
1684782934602478,1.3885709925993979,-0.106813153276903,-0.19836728465702436
1684782934618479,1.3275349050126124,-0.3204394598305953,-0.16784924086368846
1684782934634481,1.1749446860455919,0.2899214160372594,-0.2594033722438098
1684782934650483,1.6021972991530902,0.4730296787976158,-0.045777065690117524
1684782934666484,1.6327153429465397,0.5645838101777372,-0.16784924086368846
1684782934682486,1.7242694743266611,0.4730296787976158,-0.19836728465702436
1684782934698488,1.4190890363927338,0.41199359121083035,-0.38147554741738077
1684782934714490,1.0833905546654705,0.5340657663844013,-0.2594033722438098
1684782934730491,1.022354467078685,1.2359807736323773,-0.5951018539711868
1684782934746493,0.9002822919051141,0.9613183794918996,-0.5645838101777372
1684782934762495,1.1749446860455919,1.4496070801861833,-0.5340657663844013
1684782934778496,1.2054627298390415,1.7547875181201107,-0.9002822919051141
1684782934794498,1.2970168612191628,1.052872510872021,-1.1749446860455919
1684782934810500,1.5411612115663047,0.8392462043183286,-0.8697642481116645
1684782934826501,1.5716792553597543,0.3204394598305953,-0.5645838101777372
1684782934842503,1.5716792553597543,-0.44251163500416624,-0.22888532845047393
1684782934858505,1.5106431677729688,-0.07629510948345342,-0.38147554741738077
1684782934874507,1.7547875181201107,0.07629510948345342,-0.38147554741738077
1684782934890508,1.5106431677729688,-0.045777065690117524,0.015259021896667946
1684782934906510,1.5716792553597543,0.1373311970702389,-0.41199359121083035
1684782934922515,1.6937514305333252,0.38147554741738077,-0.106813153276903
1684782934938517,1.7547875181201107,0.106813153276903,-0.19836728465702436
1684782934954519,1.7547875181201107,0.22888532845047393,-0.4730296787976158
1684782934970521,1.9073777370870175,-0.045777065690117524,-0.19836728465702436
1684782934986522,2.059967956054038,-0.2899214160372594,-0.16784924086368846
1684782935002524,2.1210040436408235,-0.3509575036240449,-0.1373311970702389
1684782935018526,2.1210040436408235,-0.16784924086368846,-0.22888532845047393
1684782935034527,2.5787747005416577,0.1373311970702389,-0.106813153276903
1684782935050529,2.853437094682249,0.2899214160372594,-0.045777065690117524
1684782935066531,2.4567025253680868,-0.41199359121083035,-0.19836728465702436
1684782935082533,2.090485999847374,-0.5035477225909517,-0.22888532845047393
1684782935098534,2.1515220874341594,-0.19836728465702436,-0.22888532845047393
1684782935114536,2.4567025253680868,-0.41199359121083035,-0.045777065690117524
1684782935130538,3.006027313649156,-0.7171740291447577,0.07629510948345342
1684782935146539,3.2806897077897474,-0.9002822919051141,0.22888532845047393
1684782935162541,3.097581445029391,-0.41199359121083035,-0.045777065690117524
1684782935178543,2.334630350194516,-0.9613183794918996,0.045777065690117524
1684782935194544,1.7853055619134466,-0.1373311970702389,-0.22888532845047393
1684782935210546,1.2054627298390415,0.5645838101777372,-0.7476920729380936
1684782935226548,0.8392462043183286,0.44251163500416624,-0.9002822919051141
1684782935242553,0.3509575036240449,0.22888532845047393,-1.0833905546654705
1684782935258555,0.38147554741738077,0.106813153276903,-1.5716792553597543
1684782935274557,1.3275349050126124,-0.6561379415579722,-0.7476920729380936
1684782935290558,1.846341649500232,-0.5035477225909517,-0.1373311970702389
1684782935306560,1.9989318684672526,0.19836728465702436,-0.045777065690117524
1684782935322562,1.937895780880467,0.3204394598305953,0.3204394598305953
1684782935338564,1.6632333867398756,0.4730296787976158,-0.015259021896667946
1684782935354565,1.2054627298390415,0.5340657663844013,-0.44251163500416624
1684782935370567,1.4496070801861833,0.3509575036240449,-0.16784924086368846
1684782935386569,1.3275349050126124,0.7171740291447577,-0.2899214160372594
1684782935402570,1.266498817425827,0.2899214160372594,-0.106813153276903
1684782935418572,1.3275349050126124,0.22888532845047393,0.16784924086368846
1684782935434574,1.3580529488059483,0.8697642481116645,0.045777065690117524
1684782935450575,1.5411612115663047,0.7782101167315432,0.045777065690117524
1684782935466577,1.6327153429465397,0.5645838101777372,0.015259021896667946
1684782935482579,1.4190890363927338,0.6256198977645226,0.045777065690117524
1684782935498581,1.2970168612191628,1.022354467078685,-0.16784924086368846
1684782935514582,1.4801251239795192,0.8392462043183286,-0.5340657663844013
1684782935530584,2.182040131227609,-0.3204394598305953,-0.16784924086368846
1684782935546586,2.182040131227609,0.22888532845047393,-0.015259021896667946
1684782935562622,1.5716792553597543,0.8392462043183286,-0.106813153276903
1684782935578624,1.3580529488059483,0.16784924086368846,0.015259021896667946
1684782935594626,1.6937514305333252,-0.22888532845047393,-0.045777065690117524
1684782935610628,1.968413824673803,-0.41199359121083035,-0.22888532845047393
1684782935626630,1.9073777370870175,-0.7171740291447577,0.1373311970702389
1684782935642633,1.6937514305333252,-0.38147554741738077,-0.07629510948345342
1684782935658635,1.9073777370870175,-0.44251163500416624,-0.045777065690117524
1684782935674637,2.2735942626077303,-0.41199359121083035,0.2594033722438098
1684782935690639,2.426184481574751,-0.106813153276903,0.3204394598305953
1684782935706641,2.3651483939879654,-0.19836728465702436,0.38147554741738077
1684782935722643,2.2735942626077303,-0.5340657663844013,0.4730296787976158
1684782935738646,2.2430762188143945,-0.3204394598305953,0.16784924086368846
1684782935754648,2.2735942626077303,0.1373311970702389,0.07629510948345342
1684782935770650,2.334630350194516,-0.22888532845047393,0.106813153276903
1684782935786652,2.5787747005416577,-0.6561379415579722,0.5340657663844013
1684782935802654,2.6703288319218927,-0.38147554741738077,0.41199359121083035
1684782935818657,2.7008468757152286,-0.19836728465702436,0.41199359121083035
1684782935834659,2.4872205691615363,0.015259021896667946,0.6256198977645226
1684782935850661,2.2735942626077303,0.41199359121083035,0.5035477225909517
1684782935866663,2.30411230640118,0.6561379415579722,0.5035477225909517
1684782935882660,2.1210040436408235,0.7476920729380936,0.2594033722438098
1684782935898662,1.937895780880467,0.3509575036240449,-0.22888532845047393
1684782935914664,1.937895780880467,-0.44251163500416624,0.106813153276903
1684782935930666,2.1210040436408235,-0.16784924086368846,0.3204394598305953
1684782935946668,2.1515220874341594,0.07629510948345342,0.6561379415579722
1684782935962670,2.3651483939879654,-0.106813153276903,0.9002822919051141
1684782935978673,2.5177386129548722,-0.2899214160372594,0.5951018539711868
1684782935994675,2.4567025253680868,-0.2899214160372594,0.41199359121083035
1684782936010677,2.059967956054038,-0.2899214160372594,0.22888532845047393
1684782936026679,1.5411612115663047,-0.07629510948345342,0.2899214160372594
1684782936042681,1.5716792553597543,-0.1373311970702389,0.2594033722438098
1684782936058683,1.5411612115663047,0.38147554741738077,-0.045777065690117524
1684782936074686,1.4801251239795192,0.22888532845047393,0.07629510948345342
1684782936090688,1.4190890363927338,0.38147554741738077,-0.19836728465702436
1684782936106690,1.4190890363927338,0.07629510948345342,0.045777065690117524
1684782936122692,1.4496070801861833,-0.07629510948345342,0.015259021896667946
1684782936138694,1.5716792553597543,0.015259021896667946,-0.16784924086368846
1684782936154697,1.6021972991530902,0.045777065690117524,-0.106813153276903
1684782936170699,1.6632333867398756,0.44251163500416624,0.1373311970702389
1684782936186701,1.9073777370870175,0.5035477225909517,0.2594033722438098
1684782936202697,1.937895780880467,0.2899214160372594,0.3204394598305953
1684782936218700,1.8158236057068962,0.045777065690117524,0.106813153276903
1684782936234702,1.7547875181201107,-0.38147554741738077,0.07629510948345342
1684782936250704,1.8158236057068962,0.015259021896667946,0.045777065690117524
1684782936266706,2.0294499122605885,0.045777065690117524,-0.015259021896667946
1684782936282708,1.937895780880467,-0.41199359121083035,0.2899214160372594
1684782936298710,1.846341649500232,-0.19836728465702436,0.4730296787976158
1684782936314713,1.8158236057068962,0.3204394598305953,0.41199359121083035
1684782936330715,1.7547875181201107,0.5035477225909517,0.38147554741738077
1684782936346717,1.6021972991530902,0.5340657663844013,0.3204394598305953
1684782936362719,1.4801251239795192,0.41199359121083035,0.015259021896667946
1684782936378721,1.5716792553597543,0.1373311970702389,0.106813153276903
1684782936394724,1.6021972991530902,0.2594033722438098,-0.106813153276903
1684782936410726,1.6021972991530902,0.5035477225909517,-0.015259021896667946
1684782936426728,1.4801251239795192,0.5340657663844013,-0.045777065690117524
1684782936442730,1.3885709925993979,0.5645838101777372,0.015259021896667946
1684782936458732,1.7547875181201107,0.045777065690117524,0.045777065690117524
1684782936474734,1.6937514305333252,0.07629510948345342,-0.1373311970702389
1684782936490737,1.6632333867398756,0.106813153276903,-0.106813153276903
1684782936506739,1.5411612115663047,0.07629510948345342,-0.015259021896667946
1684782936522735,1.6021972991530902,0.015259021896667946,0.19836728465702436
1684782936538737,1.6021972991530902,-0.19836728465702436,0.106813153276903
1684782936554740,1.6937514305333252,-0.22888532845047393,0.2899214160372594
1684782936570742,1.6021972991530902,-0.015259021896667946,0.41199359121083035
1684782936586744,1.7242694743266611,-0.07629510948345342,0.5951018539711868
1684782936602746,1.846341649500232,-0.015259021896667946,0.44251163500416624
1684782936618748,1.937895780880467,0.045777065690117524,0.2594033722438098
1684782936634750,2.059967956054038,-0.106813153276903,0.5035477225909517
1684782936650753,2.212558175020945,0.045777065690117524,0.6256198977645226
1684782936666755,2.2735942626077303,0.045777065690117524,0.44251163500416624
1684782936682757,2.182040131227609,0.41199359121083035,0.19836728465702436
1684782936698759,2.2735942626077303,0.045777065690117524,0.2899214160372594
1684782936714761,2.2430762188143945,-0.3509575036240449,0.19836728465702436
1684782936730764,1.968413824673803,-0.015259021896667946,0.1373311970702389
1684782936746766,1.8158236057068962,0.015259021896667946,0.2899214160372594
1684782936762768,1.6937514305333252,0.106813153276903,0.41199359121083035
1684782936778770,1.5411612115663047,0.07629510948345342,0.1373311970702389
1684782936794772,1.3580529488059483,-0.1373311970702389,0.045777065690117524
1684782936810774,1.3275349050126124,-0.19836728465702436,0.1373311970702389
1684782936826777,1.3275349050126124,0.3509575036240449,0.07629510948345342
1684782936842804,1.3885709925993979,0.4730296787976158,0.16784924086368846
1684782936858806,1.5106431677729688,0.5035477225909517,0.106813153276903
1684782936874808,1.2970168612191628,0.106813153276903,-0.19836728465702436
1684782936890810,1.266498817425827,-0.16784924086368846,-0.1373311970702389
1684782936906812,1.4496070801861833,0.106813153276903,-0.1373311970702389
1684782936922814,1.5106431677729688,-0.106813153276903,0.2899214160372594
1684782936938817,1.5106431677729688,0.16784924086368846,0.07629510948345342
1684782936954819,1.3580529488059483,0.106813153276903,0.07629510948345342
1684782936970821,1.3275349050126124,0.38147554741738077,-0.2594033722438098
1684782936986823,1.4190890363927338,0.2899214160372594,-0.045777065690117524
1684782937002825,1.7242694743266611,0.6256198977645226,-0.106813153276903
1684782937018828,2.059967956054038,0.5035477225909517,-0.045777065690117524
1684782937034830,1.9989318684672526,-0.045777065690117524,0.19836728465702436
1684782937050832,2.2430762188143945,0.045777065690117524,0.045777065690117524
1684782937066834,1.8768596932936816,0.16784924086368846,0.015259021896667946
1684782937082836,1.5106431677729688,0.3204394598305953,-0.07629510948345342
1684782937098838,1.6937514305333252,0.5035477225909517,-0.015259021896667946
1684782937114841,1.846341649500232,0.5951018539711868,0.07629510948345342
1684782937130843,1.937895780880467,0.38147554741738077,0.2594033722438098
1684782937146845,2.059967956054038,-0.015259021896667946,0.106813153276903
1684782937162841,2.3651483939879654,-0.19836728465702436,-0.1373311970702389
1684782937178844,2.5787747005416577,0.07629510948345342,-0.2899214160372594
1684782937194846,2.1515220874341594,0.1373311970702389,-0.1373311970702389
1684782937210848,1.7242694743266611,0.045777065690117524,0.07629510948345342
1684782937226850,1.3885709925993979,-0.045777065690117524,0.045777065690117524
1684782937242852,1.144426642252256,0.015259021896667946,-0.015259021896667946
1684782937258854,1.2359807736323773,-0.106813153276903,-0.045777065690117524
1684782937274857,1.266498817425827,-0.16784924086368846,0.1373311970702389
1684782937290859,1.3275349050126124,0.07629510948345342,0.19836728465702436
1684782937306861,1.6327153429465397,0.3204394598305953,0.22888532845047393
1684782937322863,1.968413824673803,0.2594033722438098,0.16784924086368846
1684782937338865,2.30411230640118,-0.1373311970702389,0.3204394598305953
1684782937354868,2.182040131227609,0.106813153276903,0.4730296787976158
1684782937370870,1.7853055619134466,-0.015259021896667946,0.8087281605248791
1684782937386872,1.937895780880467,0.045777065690117524,0.5951018539711868
1684782937402874,1.9989318684672526,-0.19836728465702436,0.5951018539711868
1684782937418876,2.182040131227609,-0.3509575036240449,0.44251163500416624
1684782937434878,1.8768596932936816,-0.3204394598305953,0.22888532845047393
1684782937450881,1.6327153429465397,0.015259021896667946,0.07629510948345342
1684782937466883,1.6021972991530902,0.1373311970702389,0.015259021896667946
1684782937482879,1.846341649500232,-0.2594033722438098,0.3204394598305953
1684782937498881,2.059967956054038,0.1373311970702389,0.2899214160372594
1684782937514884,2.3651483939879654,0.19836728465702436,0.7171740291447577
1684782937530886,3.006027313649156,0.07629510948345342,1.2359807736323773
1684782937546888,3.219653620202962,0.07629510948345342,0.9002822919051141
1684782937562890,3.219653620202962,-0.8087281605248791,0.6866559853513081
1684782937578892,3.585870145723675,-1.5716792553597543,0.2594033722438098
1684782937594895,2.761882963302014,-0.7782101167315432,-0.015259021896667946
1684782937610897,2.5177386129548722,-0.8087281605248791,0.4730296787976158
1684782937626899,2.5177386129548722,-0.6256198977645226,0.93080033569845
1684782937642901,2.30411230640118,-0.3509575036240449,0.8087281605248791
1684782937658903,2.2430762188143945,-0.3204394598305953,0.22888532845047393
1684782937674905,1.8158236057068962,-0.5035477225909517,-0.045777065690117524
1684782937690908,1.6937514305333252,-0.41199359121083035,-0.106813153276903
1684782937706910,1.6327153429465397,-0.106813153276903,-0.015259021896667946
1684782937722912,1.5716792553597543,-0.19836728465702436,-0.015259021896667946
1684782937738914,1.5106431677729688,-0.7782101167315432,0.22888532845047393
1684782937754916,1.6327153429465397,-0.6256198977645226,0.22888532845047393
1684782937770918,1.6021972991530902,-0.1373311970702389,-0.045777065690117524
1684782937786921,1.6632333867398756,-0.4730296787976158,0.2594033722438098
1684782937802917,1.7547875181201107,-0.5035477225909517,0.106813153276903
1684782937818919,1.7242694743266611,-0.22888532845047393,-0.015259021896667946
1684782937834921,1.6937514305333252,0.19836728465702436,-0.3204394598305953
1684782937850924,1.6937514305333252,0.106813153276903,-0.16784924086368846
1684782937866926,1.5716792553597543,0.07629510948345342,-0.045777065690117524
1684782937882928,1.4496070801861833,0.3204394598305953,0.045777065690117524
1684782937898930,1.6021972991530902,0.015259021896667946,0.106813153276903
1684782937914932,1.7242694743266611,-0.07629510948345342,0.106813153276903
1684782937930935,1.5411612115663047,0.22888532845047393,-0.045777065690117524
1684782937946937,1.3885709925993979,0.07629510948345342,-0.045777065690117524
1684782937962939,1.3885709925993979,0.045777065690117524,-0.015259021896667946
1684782937978941,1.4190890363927338,0.07629510948345342,-0.106813153276903
1684782937994943,1.266498817425827,0.44251163500416624,-0.3204394598305953
1684782938010945,1.1139085984588064,0.6561379415579722,-0.4730296787976158
1684782938026948,1.266498817425827,0.6866559853513081,-0.41199359121083035
1684782938042950,1.3580529488059483,0.5035477225909517,-0.19836728465702436
1684782938058952,1.4801251239795192,0.19836728465702436,-0.07629510948345342
1684782938074954,1.5716792553597543,-0.106813153276903,-0.106813153276903
1684782938090956,1.6937514305333252,-0.045777065690117524,-0.22888532845047393
1684782938106958,1.6937514305333252,0.1373311970702389,-0.2594033722438098
1684782938122985,1.6021972991530902,0.5645838101777372,-0.19836728465702436
1684782938138988,1.4496070801861833,0.7476920729380936,-0.3509575036240449
1684782938154990,1.4190890363927338,0.5951018539711868,-0.3204394598305953
1684782938170992,1.4801251239795192,0.3509575036240449,-0.1373311970702389
1684782938186994,1.6937514305333252,0.106813153276903,-0.015259021896667946
1684782938202996,1.9073777370870175,0.015259021896667946,-0.015259021896667946
1684782938218999,2.090485999847374,-0.19836728465702436,0.015259021896667946
1684782938235001,2.1515220874341594,-0.2594033722438098,0.19836728465702436
1684782938251003,2.212558175020945,-0.015259021896667946,0.4730296787976158
1684782938267005,2.30411230640118,0.2594033722438098,0.41199359121083035
1684782938283007,2.2430762188143945,0.2594033722438098,0.2594033722438098
1684782938299009,2.0294499122605885,0.07629510948345342,-0.1373311970702389
1684782938315012,2.0294499122605885,-0.22888532845047393,-0.3509575036240449
1684782938331014,2.1210040436408235,-0.3204394598305953,-0.19836728465702436
1684782938347016,2.3651483939879654,-0.3509575036240449,0.045777065690117524
1684782938363018,2.883955138475585,-0.5035477225909517,0.3509575036240449
1684782938379020,2.761882963302014,-0.5340657663844013,0.16784924086368846
1684782938395022,2.7924010070954637,-0.5951018539711868,0.19836728465702436
1684782938411025,2.639810788128443,-0.7476920729380936,0.3204394598305953
1684782938427027,2.883955138475585,-0.8087281605248791,0.5645838101777372
1684782938443023,3.0670634012359415,-0.8392462043183286,0.9002822919051141
1684782938459025,3.1891355764095124,-0.6256198977645226,0.9002822919051141
1684782938475028,3.372243839169869,-0.7476920729380936,0.93080033569845
1684782938491030,3.219653620202962,-0.3509575036240449,0.5645838101777372
1684782938507032,2.4872205691615363,0.045777065690117524,0.41199359121083035
1684782938523034,1.8768596932936816,0.22888532845047393,0.16784924086368846
1684782938539036,1.7242694743266611,0.22888532845047393,0.1373311970702389
1684782938555039,1.9073777370870175,0.1373311970702389,0.07629510948345342
1684782938571041,2.059967956054038,-0.2594033722438098,0.22888532845047393
1684782938587043,2.0294499122605885,-0.7782101167315432,0.5035477225909517
1684782938603045,1.8158236057068962,-0.19836728465702436,0.3509575036240449
1684782938619047,1.7242694743266611,0.07629510948345342,0.19836728465702436
1684782938635049,1.9989318684672526,-0.2594033722438098,0.41199359121083035
1684782938651052,2.426184481574751,-0.6866559853513081,0.5951018539711868
1684782938667054,2.761882963302014,-0.2594033722438098,0.3509575036240449
1684782938683056,2.883955138475585,-0.2899214160372594,0.38147554741738077
1684782938699058,2.883955138475585,-0.41199359121083035,0.5035477225909517
1684782938715060,2.6703288319218927,-0.2899214160372594,0.4730296787976158
1684782938731063,2.4567025253680868,-0.2899214160372594,0.41199359121083035
1684782938747065,2.639810788128443,-0.7171740291447577,0.6866559853513081
1684782938763061,2.548256656748322,-0.9918364232852355,1.052872510872021
1684782938779063,1.9073777370870175,-0.6561379415579722,0.6256198977645226
1684782938795066,1.2970168612191628,0.19836728465702436,-0.106813153276903
1684782938811068,1.0833905546654705,0.8392462043183286,-0.5645838101777372
1684782938827070,1.4190890363927338,0.44251163500416624,-0.5645838101777372
1684782938843072,1.5411612115663047,0.07629510948345342,-0.93080033569845
1684782938859074,1.6937514305333252,-0.045777065690117524,-0.9918364232852355
1684782938875076,1.8768596932936816,0.16784924086368846,-1.052872510872021
1684782938891079,2.090485999847374,-0.19836728465702436,-0.41199359121083035
1684782938907081,2.3956664377813013,-0.44251163500416624,0.1373311970702389
1684782938923083,3.097581445029391,-0.5035477225909517,0.16784924086368846
1684782938939085,3.4943160143434397,-1.266498817425827,0.5951018539711868
1684782938955087,3.585870145723675,-1.1749446860455919,0.5035477225909517
1684782938971089,3.1586175326161765,-0.4730296787976158,0.44251163500416624
1684782938987092,2.639810788128443,0.106813153276903,0.38147554741738077
1684782939003094,2.30411230640118,-0.22888532845047393,0.3204394598305953
1684782939019096,2.3956664377813013,-0.7782101167315432,0.2899214160372594
1684782939035098,2.639810788128443,-1.052872510872021,0.41199359121083035
1684782939051100,2.9144731822690346,-0.7171740291447577,0.38147554741738077
1684782939067103,3.128099488822727,-0.6866559853513081,0.7171740291447577
1684782939083099,3.463797970550104,-0.9918364232852355,0.9918364232852355
1684782939099101,3.463797970550104,-0.9613183794918996,0.5340657663844013
1684782939115103,3.4943160143434397,-1.7547875181201107,0.8392462043183286
1684782939131106,3.463797970550104,-1.144426642252256,0.6561379415579722
1684782939147108,2.8229190508887996,-0.6866559853513081,0.8087281605248791
1684782939163110,2.7924010070954637,-0.6866559853513081,0.9918364232852355
1684782939179112,2.853437094682249,-0.44251163500416624,0.6256198977645226
1684782939195114,5.996795605401644,1.4496070801861833,-1.052872510872021
1684782939211116,3.555352101930225,6.424048218509142,-0.6256198977645226
1684782939227119,2.182040131227609,0.7171740291447577,0.8392462043183286
1684782939243121,2.7924010070954637,-0.7171740291447577,0.8697642481116645
1684782939259123,2.9144731822690346,-0.8697642481116645,0.4730296787976158
1684782939275125,2.6703288319218927,-0.8087281605248791,0.4730296787976158
1684782939291127,2.3956664377813013,-0.44251163500416624,0.19836728465702436
1684782939307129,2.334630350194516,-0.2899214160372594,0.2899214160372594
1684782939323132,2.30411230640118,-0.19836728465702436,0.2594033722438098
1684782939339134,2.3651483939879654,-0.3204394598305953,0.1373311970702389
1684782939355136,2.5787747005416577,-0.93080033569845,-0.07629510948345342
1684782939371138,3.0365453574426056,-1.144426642252256,-0.106813153276903
1684782939387140,3.1586175326161765,-0.9002822919051141,0.07629510948345342
1684782939403167,2.8229190508887996,-0.7782101167315432,0.6866559853513081
1684782939419170,2.334630350194516,-0.4730296787976158,0.93080033569845
1684782939435172,1.9989318684672526,-0.19836728465702436,0.5951018539711868
1684782939451174,2.182040131227609,-0.19836728465702436,0.1373311970702389
1684782939467176,2.090485999847374,-0.3204394598305953,-0.1373311970702389
1684782939483178,1.937895780880467,-0.5340657663844013,-0.045777065690117524
1684782939499180,1.7853055619134466,0.1373311970702389,-0.1373311970702389
1684782939515183,1.3275349050126124,0.6866559853513081,-0.4730296787976158
1684782939531185,1.6632333867398756,0.07629510948345342,-0.045777065690117524
1684782939547187,1.8158236057068962,-0.106813153276903,0.22888532845047393
1684782939563189,1.8768596932936816,0.07629510948345342,0.1373311970702389
1684782939579191,1.8768596932936816,-0.07629510948345342,0.1373311970702389
1684782939595193,1.9989318684672526,-0.38147554741738077,0.045777065690117524
1684782939611196,1.968413824673803,-0.6256198977645226,-0.045777065690117524
1684782939627198,1.9989318684672526,-0.6561379415579722,0.106813153276903
1684782939643200,1.968413824673803,-0.045777065690117524,-0.045777065690117524
1684782939659202,1.7242694743266611,0.4730296787976158,-0.07629510948345342
1684782939675204,1.5716792553597543,0.5340657663844013,-0.106813153276903
1684782939691207,1.5411612115663047,0.3509575036240449,-0.07629510948345342
1684782939707209,1.5106431677729688,0.41199359121083035,-0.07629510948345342
1684782939723205,1.6021972991530902,0.2899214160372594,-0.2594033722438098
1684782939739207,1.6021972991530902,0.22888532845047393,-0.1373311970702389
1684782939755210,1.4801251239795192,0.2899214160372594,-0.106813153276903
1684782939771212,1.3275349050126124,0.2899214160372594,-0.19836728465702436
1684782939787214,1.4190890363927338,-0.07629510948345342,-0.19836728465702436
1684782939803216,1.5411612115663047,-0.015259021896667946,-0.2594033722438098
1684782939819218,1.4801251239795192,0.2594033722438098,-0.2899214160372594
1684782939835220,1.052872510872021,0.19836728465702436,-0.2899214160372594
1684782939851223,1.5716792553597543,-0.07629510948345342,0.106813153276903
1684782939867225,1.7853055619134466,0.19836728465702436,0.2594033722438098
1684782939883227,1.937895780880467,0.19836728465702436,0.1373311970702389
1684782939899229,2.1210040436408235,-0.16784924086368846,0.19836728465702436
1684782939915231,2.1210040436408235,-0.4730296787976158,0.1373311970702389
1684782939931234,2.1210040436408235,-0.4730296787976158,0.3509575036240449
1684782939947236,2.2735942626077303,-0.4730296787976158,0.6256198977645226
1684782939963238,2.3956664377813013,-0.3509575036240449,0.6561379415579722
1684782939979240,2.4872205691615363,-0.5645838101777372,0.5645838101777372
1684782939995242,2.182040131227609,-0.4730296787976158,0.19836728465702436
1684782940011244,1.6937514305333252,-0.106813153276903,0.045777065690117524
1684782940027247,1.4801251239795192,0.1373311970702389,-0.16784924086368846
1684782940043274,1.3580529488059483,0.16784924086368846,-0.07629510948345342
1684782940059276,1.3275349050126124,0.2899214160372594,-0.07629510948345342
1684782940075278,1.2054627298390415,0.3509575036240449,-0.1373311970702389
1684782940091280,1.2359807736323773,0.22888532845047393,-0.22888532845047393
1684782940107282,1.1749446860455919,0.015259021896667946,-0.07629510948345342
1684782940123284,1.2970168612191628,0.5035477225909517,-0.16784924086368846
1684782940139287,1.5106431677729688,0.2594033722438098,0.16784924086368846
1684782940155289,1.5716792553597543,0.106813153276903,0.22888532845047393
1684782940171291,1.6937514305333252,-0.1373311970702389,0.2899214160372594
1684782940187293,1.9989318684672526,-0.1373311970702389,-0.015259021896667946
1684782940203295,1.9073777370870175,-0.16784924086368846,0.015259021896667946
1684782940219298,1.8768596932936816,-0.3204394598305953,0.16784924086368846
1684782940235300,1.6937514305333252,-0.015259021896667946,0.19836728465702436
1684782940251302,1.5106431677729688,0.2594033722438098,-0.07629510948345342
1684782940267304,1.4801251239795192,0.41199359121083035,-0.045777065690117524
1684782940283306,1.5411612115663047,0.2594033722438098,-0.3509575036240449
1684782940299308,1.5106431677729688,-0.19836728465702436,-0.015259021896667946
1684782940315311,1.4801251239795192,-0.2594033722438098,-0.16784924086368846
1684782940331313,1.5411612115663047,-0.106813153276903,-0.1373311970702389
1684782940347315,1.4190890363927338,0.045777065690117524,-0.015259021896667946
1684782940363311,1.4801251239795192,-0.015259021896667946,0.19836728465702436
1684782940379314,1.5716792553597543,0.2594033722438098,-0.106813153276903
1684782940395316,1.3885709925993979,0.3509575036240449,-0.19836728465702436
1684782940411318,1.2054627298390415,0.07629510948345342,-0.16784924086368846
1684782940427320,1.052872510872021,0.2594033722438098,-0.5951018539711868
1684782940443322,0.7782101167315432,0.015259021896667946,0.1373311970702389
1684782940459324,1.6632333867398756,-0.3204394598305953,0.2594033722438098
1684782940475327,1.8768596932936816,-0.5951018539711868,0.44251163500416624
1684782940491329,1.9073777370870175,-1.022354467078685,0.5645838101777372
1684782940507331,1.8768596932936816,-1.4190890363927338,0.7171740291447577
1684782940523333,1.6632333867398756,-1.0833905546654705,0.3204394598305953
1684782940539335,1.6021972991530902,-0.5645838101777372,0.045777065690117524
1684782940555338,1.4801251239795192,-0.22888532845047393,0.045777065690117524
1684782940571340,1.3885709925993979,-0.045777065690117524,0.16784924086368846
1684782940587342,1.3885709925993979,0.19836728465702436,0.2594033722438098
1684782940603344,1.0833905546654705,0.38147554741738077,0.045777065690117524
1684782940619346,1.1749446860455919,0.2899214160372594,0.07629510948345342
1684782940635348,1.2970168612191628,0.106813153276903,-0.1373311970702389
1684782940651351,1.4496070801861833,-0.106813153276903,-0.1373311970702389
1684782940667353,1.5411612115663047,-0.106813153276903,-0.106813153276903
1684782940683349,1.5411612115663047,0.2594033722438098,-0.16784924086368846
1684782940699351,1.6021972991530902,0.1373311970702389,-0.045777065690117524
1684782940715354,1.7547875181201107,0.16784924086368846,-0.045777065690117524
1684782940731356,1.9073777370870175,0.045777065690117524,-0.16784924086368846
1684782940747358,2.090485999847374,-0.6561379415579722,0.07629510948345342
1684782940763360,2.182040131227609,-0.7171740291447577,0.38147554741738077
1684782940779362,2.212558175020945,-0.9002822919051141,0.7171740291447577
1684782940795364,2.090485999847374,-1.022354467078685,1.144426642252256
1684782940811367,2.334630350194516,-0.7171740291447577,0.7476920729380936
1684782940827369,2.4872205691615363,-1.144426642252256,0.5951018539711868
1684782940843371,2.639810788128443,-1.0833905546654705,0.4730296787976158
1684782940859373,2.548256656748322,-0.2594033722438098,0.1373311970702389
1684782940875375,2.4872205691615363,-0.7171740291447577,0.3509575036240449
1684782940891378,2.426184481574751,-1.5106431677729688,0.7476920729380936
1684782940907380,1.2359807736323773,-1.5716792553597543,0.015259021896667946
1684782940923382,0.44251163500416624,-0.19836728465702436,-1.846341649500232
1684782940939384,0.4730296787976158,0.6256198977645226,-2.426184481574751
1684782940955386,1.3275349050126124,-0.1373311970702389,-2.212558175020945
1684782940971388,1.2054627298390415,0.3204394598305953,-1.7853055619134466
1684782940987391,2.5787747005416577,0.045777065690117524,-1.5106431677729688
1684782941003387,4.898146028839506,-1.3885709925993979,-1.2054627298390415
1684782941019389,7.644769970244852,-2.090485999847374,-2.639810788128443
1684782941035391,9.262226291294724,-0.19836728465702436,-5.630579079880931
1684782941051394,10.971236743724717,11.947814145113284,-5.081254291599862
1684782941067396,17.410543984130527,24.734874494544783,-1.3275349050126124
1684782941083398,19.607843137254804,8.957045853360796,1.9073777370870175
1684782941099400,16.403448538948624,4.86762798504617,3.1586175326161765
1684782941115402,15.182726787212914,13.87045090409697,1.4801251239795192
1684782941131405,11.062790875104838,5.142290379186647,-3.8300144960708167
1684782941147407,16.55603875791553,14.267185473411132,-4.592965590905578
1684782941163409,11.642633707179357,8.712901503013654,-1.7853055619134466
1684782941179411,13.473716334782921,5.661097123674381,-3.4943160143434397
1684782941195413,3.8300144960708167,11.551079575799122,5.783169298847952
1684782941211415,3.799496452277367,5.813687342641288,3.219653620202962
1684782941227418,4.806591897459384,6.454566262302592,-0.07629510948345342
1684782941243420,0.5340657663844013,-2.639810788128443,2.334630350194516
1684782941259422,5.661097123674381,-2.639810788128443,4.1046768902112944
1684782941275424,7.217517357137353,-4.623483634699028,4.226749065384865
1684782941291426,6.668192568856284,-5.294880598153668,4.745555809872599
1684782941307428,6.637674525062948,-8.407721065079727,8.163576714732585
1684782941323425,4.989700160219741,-5.416952773327239,15.304798962386485
1684782941339427,6.698710612649734,-16.830701152056236,18.783855954833257
1684782941355429,4.83710994125272,-18.265049210345637,18.081940947585167
1684782941371431,7.3090714885175885,-13.656824597543277,17.563134203097547
1684782941387434,7.949950408178779,-9.506370641641865,16.03723201342791
1684782941403436,6.363012130922357,-11.97833218890662,13.107499809262208
1684782941419438,9.201190203707938,-17.99038681620516,13.778896772716848
1684782941435440,5.0202182040130765,-30.25864042114904,27.2373540856031
1684782941451442,-14.358739604791253,-53.116655222400254,34.71427481498449
1684782941467445,-22.507057297627284,-78.47714961470979,40.268558785381856
1684782941483447,-30.716411078049873,-99.50408178835733,47.501335164416105
1684782941499449,-35.90447852292664,-128.6793316548409,44.20538643472969
1684782941515451,-39.53612573434043,-105.08888380254825,30.685893034256424
1684782941531453,-22.29343099107348,-78.47714961470979,11.276417181658644
1684782941547455,11.612115663385907,-62.546730754558666,8.1025406271458
1684782941563458,43.717097734035406,-23.91088731212335,22.415503166246936
1684782941579460,90.04348821240546,40.54322117952256,28.33600366216524
1684782941595462,47.2877088578623,106.4011596856642,4.440375371938671
1684782941611464,55.22240024414441,91.41680018310808,-19.85198748760206
1684782941627466,11.642633707179357,30.869001297016666,-16.983291371023142
1684782941643493,-8.987563897154132,-10.940718699931267,-10.63553826199734
1684782941659495,5.416952773327239,3.6163881895170107,-7.339589532310924
1684782941675498,38.986800946059475,45.73128862439921,-15.609979400320412
1684782941691500,6.393530174715806,25.58937972075978,-31.387808041504513
1684782941707502,-8.651865415426869,-2.0294499122605885,-31.540398260471534
1684782941723504,16.525520714122194,15.487907225146841,-15.854123750667668
1684782941739506,9.506370641641865,11.001754787518053,-1.5716792553597543
1684782941755509,0.7171740291447577,3.2806897077897474,-0.7171740291447577
1684782941771511,1.6937514305333252,7.736324101625087,-5.661097123674381
1684782941787513,4.776073853665935,10.543984130617218,-8.468757152666512
1684782941803515,0.7782101167315432,7.888914320591994,-9.262226291294724
1684782941819517,-3.7079423208972457,2.0294499122605885,-10.696574349584125
1684782941835519,-5.142290379186647,-2.548256656748322,-10.452429999236983
1684782941851522,-3.7079423208972457,-7.3090714885175885,-6.240939955748786
1684782941867524,-4.623483634699028,-11.917296101319835,0.6561379415579722
1684782941883526,-4.440375371938671,-9.719996948195558,3.128099488822727
1684782941899528,1.0833905546654705,-3.799496452277367,5.783169298847952
1684782941915530,1.1749446860455919,-1.7547875181201107,4.348821240558436
1684782941931532,1.6021972991530902,-0.5035477225909517,2.212558175020945
1684782941947535,0.6256198977645226,-1.4190890363927338,2.059967956054038
1684782941963531,3.341725795376533,-2.883955138475585,7.705806057831637
1684782941979533,0.9918364232852355,-7.248035400930803,13.229571984435779
1684782941995535,1.8158236057068962,-5.905241474021523,14.02304112306399
1684782942011538,0.5340657663844013,-1.2970168612191628,5.783169298847952
1684782942027540,1.1749446860455919,2.4872205691615363,-1.3580529488059483
1684782942043542,2.5177386129548722,0.7782101167315432,1.846341649500232
1684782942059544,2.3651483939879654,-2.182040131227609,5.569542992294146
1684782942075546,0.38147554741738077,-2.426184481574751,1.9073777370870175
1684782942091549,2.3956664377813013,0.16784924086368846,-0.7782101167315432
1684782942107551,2.8229190508887996,-0.2594033722438098,0.5645838101777372
1684782942123553,1.4190890363927338,-1.2054627298390415,0.93080033569845
1684782942139555,3.0670634012359415,0.7476920729380936,0.045777065690117524
1684782942155557,2.426184481574751,1.4801251239795192,-1.3275349050126124
1684782942171559,1.9073777370870175,0.93080033569845,-1.022354467078685
1684782942187562,2.1515220874341594,0.38147554741738077,0.106813153276903
1684782942203564,2.059967956054038,1.2970168612191628,-1.2359807736323773
1684782942219566,3.3112077515830833,3.250171663996298,-2.3956664377813013
1684782942235568,4.135194934004744,3.6469062333104603,-1.4801251239795192
1684782942251570,1.1749446860455919,3.7079423208972457,-4.531929503318793
1684782942267573,1.846341649500232,4.592965590905578,-6.424048218509142
1684782942283569,3.9520866712443876,2.7924010070954637,-1.9989318684672526
1684782942299571,1.3580529488059483,-1.5716792553597543,1.6632333867398756
1684782942315573,1.8768596932936816,-1.2970168612191628,1.052872510872021
1684782942331575,2.182040131227609,0.6256198977645226,-1.6937514305333252
1684782942347578,0.5951018539711868,-0.38147554741738077,-1.5106431677729688
1684782942363580,0.9002822919051141,-0.5951018539711868,0.9918364232852355
1684782942379582,1.7242694743266611,0.93080033569845,-0.5340657663844013
1684782942395584,0.8697642481116645,0.9002822919051141,-2.7924010070954637
1684782942411586,2.212558175020945,1.3885709925993979,-1.6021972991530902
1684782942427589,2.1210040436408235,0.16784924086368846,-0.07629510948345342
1684782942443591,-0.2899214160372594,-1.9989318684672526,-0.19836728465702436
1684782942459593,2.6703288319218927,-0.4730296787976158,-0.7476920729380936
1684782942475595,4.86762798504617,-0.19836728465702436,-0.015259021896667946
1684782942491597,0.6256198977645226,-1.9989318684672526,0.6866559853513081
1684782942507599,1.4496070801861833,0.5340657663844013,-0.5035477225909517
1684782942523602,1.1139085984588064,2.30411230640118,-2.761882963302014
1684782942539604,0.9613183794918996,1.5106431677729688,-2.5177386129548722
1684782942555606,1.1139085984588064,0.045777065690117524,-0.8087281605248791
1684782942571608,2.7924010070954637,0.93080033569845,-0.44251163500416624
1684782942587610,0.9613183794918996,-0.015259021896667946,-1.6021972991530902
1684782942603637,2.883955138475585,1.022354467078685,-0.41199359121083035
1684782942619639,1.5716792553597543,0.93080033569845,-1.7853055619134466
1684782942635642,0.5951018539711868,0.93080033569845,-2.4567025253680868
1684782942651644,2.4567025253680868,2.7008468757152286,-2.5177386129548722
1684782942667646,1.5411612115663047,2.548256656748322,-2.883955138475585
1684782942683648,1.4801251239795192,2.059967956054038,-2.5787747005416577
1684782942699650,2.2735942626077303,2.1210040436408235,-2.059967956054038
1684782942715653,2.30411230640118,0.8087281605248791,-1.5411612115663047
1684782942731655,0.7782101167315432,-1.6632333867398756,0.3509575036240449
1684782942747657,1.8768596932936816,-1.2359807736323773,1.6632333867398756
1684782942763659,1.2054627298390415,-0.8392462043183286,0.16784924086368846
1684782942779661,2.0294499122605885,-0.5035477225909517,-0.5645838101777372
1684782942795663,0.6866559853513081,-2.639810788128443,1.937895780880467
1684782942811666,2.334630350194516,-0.19836728465702436,0.9002822919051141
1684782942827668,1.2359807736323773,0.9613183794918996,-2.1515220874341594
1684782942843670,2.5787747005416577,3.4332799267566543,-2.548256656748322
1684782942859672,1.8768596932936816,2.1515220874341594,-2.0294499122605885
1684782942875674,0.5035477225909517,-0.2899214160372594,-1.4496070801861833
1684782942891677,1.2359807736323773,0.16784924086368846,-1.3885709925993979
1684782942907679,1.4496070801861833,0.5645838101777372,-1.7853055619134466
1684782942923675,1.3885709925993979,-0.19836728465702436,-0.7171740291447577
1684782942939677,0.6256198977645226,-0.44251163500416624,-1.6632333867398756
1684782942955680,2.2430762188143945,0.19836728465702436,-1.5411612115663047
1684782942971682,2.212558175020945,-0.5645838101777372,0.5645838101777372
1684782942987684,2.426184481574751,-0.8087281605248791,0.8697642481116645
1684782943003686,2.4872205691615363,-0.19836728465702436,-0.19836728465702436
1684782943019688,2.731364919508678,-0.2594033722438098,0.38147554741738077
1684782943035690,1.7242694743266611,-0.41199359121083035,-0.1373311970702389
1684782943051693,3.219653620202962,0.8697642481116645,-0.44251163500416624
1684782943067695,2.334630350194516,0.22888532845047393,-1.144426642252256
1684782943083697,2.4567025253680868,0.7171740291447577,-1.266498817425827
1684782943099699,2.0294499122605885,0.015259021896667946,-1.9073777370870175
1684782943115701,2.1210040436408235,-0.6561379415579722,-0.8697642481116645
1684782943131703,2.059967956054038,-1.0833905546654705,-0.16784924086368846
1684782943147706,1.5106431677729688,-1.7242694743266611,-1.052872510872021
1684782943163708,2.182040131227609,-1.052872510872021,-1.3580529488059483
1684782943179710,1.2054627298390415,-0.44251163500416624,-2.9144731822690346
1684782943195712,1.4801251239795192,1.052872510872021,-2.7008468757152286
1684782943211714,2.5787747005416577,1.9073777370870175,-1.3885709925993979
1684782943227717,2.5787747005416577,1.6632333867398756,-0.6561379415579722
1684782943243713,2.5787747005416577,1.3275349050126124,-1.846341649500232
1684782943259715,3.7079423208972457,1.0833905546654705,-1.6021972991530902
1684782943275717,-0.22888532845047393,-1.7853055619134466,-0.8392462043183286
1684782943291720,1.937895780880467,-1.6327153429465397,-0.38147554741738077
1684782943307722,2.3651483939879654,-1.9989318684672526,0.41199359121083035
1684782943323724,1.7547875181201107,-2.639810788128443,0.7476920729380936
1684782943339726,1.8158236057068962,-2.30411230640118,0.6256198977645226
1684782943355728,3.2806897077897474,-0.8087281605248791,1.2970168612191628
1684782943371730,4.562447547112242,-0.93080033569845,3.8300144960708167
1684782943387733,3.9520866712443876,-2.97550926985582,6.515602349889377
1684782943403735,4.16571297779808,-6.72922865644307,9.658960860608772
1684782943419737,0.7171740291447577,-14.57236591134506,10.605020218204004
1684782943435739,-1.022354467078685,-19.97405966277563,14.358739604791253
1684782943451741,0.3509575036240449,-18.90592813000694,12.375066758220783
1684782943467743,9.048599984740918,-14.908064393072323,11.215381094071859
1684782943483746,13.534752422369706,-18.11245899137873,20.401312275883015
1684782943499748,15.457389181353392,-26.169222552834412,32.66956588082712
1684782943515750,23.636224917982645,-34.744792858777714,45.30403601129183
1684782943531752,14.145113298237561,-44.846265354390766,52.47577630273895
1684782943547754,14.785992217898752,-49.97329671168086,47.34874494544897
1684782943563781,15.732051575493983,-50.156404974441216,41.06202792401018
1684782943579784,17.89883268482481,-68.16205081254293,27.298390173189773
1684782943595786,32.333867399099745,-59.37285420004582,46.64682993820111
1684782943611788,31.754024567025454,-71.39696345464256,54.58152132448322
1684782943627790,13.19905394064233,-77.16487373159373,55.893797207598936
1684782943643792,0.5645838101777372,-73.22804608224612,45.12092774853136
1684782943659794,-4.898146028839506,-58.60990310521095,30.89951934081023
1684782943675797,-0.015259021896667946,-48.20325017166408,14.755474174105416
1684782943691799,-6.668192568856284,-42.160677500572206,-0.5645838101777372
1684782943707801,-12.832837415121617,-36.85053788052187,-12.52765697718769
1684782943723803,-8.22461280231937,-25.65041580834668,-9.811551079575793
1684782943739805,-5.294880598153668,-30.838483253223444,0.5340657663844013
1684782943755808,-10.238803692683291,-37.552452887769846,4.898146028839506
1684782943771810,-16.76966506446945,-29.922941939421662,6.1493858243686645
1684782943787812,-33.46303501945522,-26.32181277180132,-3.0670634012359415
1684782943803814,-25.070572976272274,-5.50850690470736,0.38147554741738077
1684782943819816,-27.14579995422298,18.509193560692665,4.989700160219741
1684782943835818,-38.132295719844365,37.125200274662575,12.68024719615471
1684782943851821,-28.976882581826544,53.51338979171442,33.340962844281876
1684782943867823,-8.957045853360796,55.16136415655751,73.50270847638672
1684782943883819,17.441062027923977,55.34447241931798,121.23292896925318
1684782943899821,68.74189364461745,85.80148012512382,144.33508812085142
1684782943915824,57.14503700312821,81.83413443198287,181.38399328603032
1684782943931826,-18.966964217593727,21.408407721065032,220.7522697795073
1684782943947828,-58.487830930037376,2.30411230640118,210.55924315251377
1684782943963830,-156.26764324406804,-35.50774395361259,232.16601815823606
1684782943979832,-50.125886930647766,28.183413443198106,209.70473792629878
1684782943995834,-108.14068818188753,-39.71923399710079,222.49179827573062
1684782944011837,-31.754024567025226,-62.33310444800486,231.79980163271534
1684782944027839,52.170595864805136,-23.849851224536565,203.11284046692595
1684782944043841,-110.03280689707799,-20.279240100709558,218.9822232394904
1684782944059843,-70.81712062256804,5.9357595178148586,223.9871824216068
1684782944075845,-25.89456015869382,21.56099794003194,228.2597085526818
1684782944091848,-37.033646143282226,32.70008392462046,255.26817730983453
1684782944107850,-22.079804684519786,28.763256275272624,258.50308995193404
1684782944123852,2.761882963302014,41.39772640573756,250.99565117875954
1684782944139854,51.407644769970375,61.905851834897476,240.6805523765927
1684782944155856,0.1373311970702389,46.921492332341586,191.63805600061028
1684782944171858,19.485770962081233,67.52117189288174,166.91844052796228
1684782944187861,-22.53757534142062,47.98962386511039,140.64240482185096
1684782944203857,-44.8767833981841,-7.827878233005208,129.4728007934691
1684782944219859,-71.2138551918822,-85.25215533684297,130.78507667658505
1684782944235861,-44.99885557335767,-116.8993667505913,134.14206149385814
1684782944251864,45.4261081864654,-34.073395895323074,69.26070038910507
1684782944267866,32.02868696116593,-28.21393148699167,30.685893034256424
1684782944283868,-71.39696345464256,-82.04776073853668,92.45441367208355
1684782944299870,-79.48424505989169,-73.9299610894941,138.9639124132143
1684782944315872,-107.53032730601967,-86.38132295719845,174.02914473182273
1684782944331874,-44.449530785076604,-58.09109636072333,225.5436026550699
1684782944347877,-35.81292439154652,-1.8158236057068962,237.20149538414603
1684782944363879,-73.13649195086589,-19.85198748760206,112.3216601815825
1684782944379881,-133.4706645304036,-6.9733730067902115,-9.597924773021987
1684782944395883,-120.50049591821164,-2.9449912260623705,-39.96337834744793
1684782944411885,-89.31105516136415,25.58937972075978,-58.396276798657254
1684782944427888,-72.83131151293196,22.964827954528005,-81.07118333714811
1684782944443890,-55.252918287937746,45.21248187991159,-86.28976882581833
1684782944459892,-67.09391927977413,26.1081864652474,-91.59990844586866
1684782944475894,-83.75677119096667,39.04783703364615,-101.64034485389482
1684782944491896,-91.53887235828188,52.53681239032585,-140.27618829633013
1684782944507898,-88.18188754100868,60.80720225833534,-190.1426718547341
1684782944523895,-63.34019989318688,84.67231250476834,-236.16388189517056
1684782944539897,-41.367208361943995,97.27626459143971,-268.4519722285802
1684782944555899,-18.997482261387063,100.26703288319231,-270.22201876859697
1684782944571901,-44.26642252231625,61.905851834897476,-237.9644464789808
1684782944587904,-18.051422903791945,48.93568322270539,-184.10009918364233
1684782944603906,-24.277103837644063,32.05920500495927,-132.28046082246124
1684782944619908,-39.597161821927216,3.4027618829633184,-87.81567101548796
1684782944635910,-44.602121004043624,29.068436713206665,-76.64606698710611
1684782944651912,-40.817883573662925,66.88029297322032,-87.96826123445487
1684782944667914,-49.51552605477991,77.53109025711456,-100.96894789044018
1684782944683917,-57.846952010376185,46.86045624475469,-87.96826123445487
1684782944699919,-71.79369802395661,6.698710612649734,-47.74547951476313
1684782944715921,-78.66025787747014,-17.257953765163734,-20.279240100709558
1684782944731923,-64.16418707560842,-22.842755779354547,-0.16784924086368846
1684782944747925,-30.441748683909395,-26.901655603875838,2.3651483939879654
1684782944763928,-32.730601968413794,16.281376363775053,-33.43251697566188
1684782944779930,-41.9470511940184,48.844129091325385,-74.20462348363469
1684782944795932,-52.20111390859847,72.43457694361791,-91.66094453345545
1684782944811934,2.090485999847374,107.16411078049896,-61.96688792248415
1684782944827936,-30.35019455252916,82.3529411764705,-65.96475165941865
1684782944843963,-33.70717936980236,54.70359349965679,-46.463721675440524
1684782944859965,-14.267185473411132,20.126649881742537,-8.834973678187225
1684782944875968,-14.969100480659108,-50.18692301823455,33.49355306324878
1684782944891970,-22.262912947280142,-89.49416342412451,49.97329671168086
1684782944907972,-48.41687647821777,-95.17051956969556,35.69085221637306
1684782944923974,-77.22590981918052,-65.0797283894102,1.7242694743266611
1684782944939976,-90.28763256275272,-31.05210955977725,-24.521248187991205
1684782944955978,-53.48287174792097,-1.4190890363927338,-28.641184100099167
1684782944971981,-30.075532158388683,18.417639429312544,-25.619897764553343
1684782944987983,-4.745555809872599,-2.97550926985582,-8.804455634393776
1684782945003985,16.58655680170898,-35.47722590981914,12.588693064774475
1684782945019987,19.39421683070111,-59.2202639810788,26.047150377660728
1684782945035989,39.47508964675376,-54.489967193102984,45.54818036163897
1684782945051992,54.093232623788936,-38.04074158846413,65.62905317769128
1684782945067994,55.710688944838694,4.531929503318793,56.778820477607496
1684782945083996,71.82421606775006,27.176317998016202,63.30968184939343
1684782945099998,34.561684596017585,-14.908064393072323,75.02861066605624
1684782945116000,-9.506370641641865,-59.43389028763261,67.09391927977413
1684782945132002,-21.560997940032053,-57.572289616235594,51.71282520790419
1684782945148005,-24.093995574883706,-32.63904783703367,30.31967650873571
1684782945164001,21.438925764858368,1.0833905546654705,40.42114900434899
1684782945180003,35.56878004119949,8.499275196459848,32.24231326771974
1684782945196005,20.248722056916108,4.989700160219741,-0.2899214160372594
1684782945212008,32.27283131151307,23.69726100556943,-22.232394903486693
1684782945228010,26.99320973525596,17.01380941481648,-15.701533531700647
1684782945244012,33.52407110704212,9.658960860608772,4.592965590905578
1684782945260014,30.77744716563666,12.497138933394353,21.225299458304676
1684782945276016,28.519111924925483,-1.7547875181201107,16.00671396963446
1684782945292019,27.817196917677393,-13.35164415960935,-0.41199359121083035
1684782945308021,37.582970931563295,-10.147249561303056,0.9002822919051141
1684782945324023,36.27069504844758,-1.4496070801861833,3.128099488822727
1684782945340025,57.755397878996064,21.988250553139437,15.793087663080769
1684782945356027,30.167086289768804,-8.041504539559014,24.582284275577877
1684782945372029,1.968413824673803,-34.25650415808343,22.47653925383372
1684782945388032,15.548943312733627,-3.1586175326161765,5.966277561608308
1684782945404034,22.23239490348658,23.239490348668596,-10.238803692683291
1684782945420036,17.22743572137017,18.173495078965402,-13.015945677881973
1684782945436038,11.184863050278409,17.38002594033719,-12.863355458915066
1684782945452040,13.443198290989471,14.908064393072323,-9.597924773021987
1684782945468042,6.668192568856284,12.771801327534831,-11.154345006485073
1684782945484039,7.644769970244852,7.156481269550568,-9.079118028534367
1684782945500041,10.78812848096436,8.316166933699492,-6.759746700236519
1684782945516043,16.922255283436243,8.377203021286277,-1.7242694743266611
1684782945532045,8.07202258335235,-0.2594033722438098,3.7384603646905816
1684782945548048,-1.8768596932936816,-9.597924773021987,9.384298466468294
1684782945564050,0.5340657663844013,-14.969100480659108,16.495002670328745
1684782945580052,-28.030823224231312,-24.765392538338347,30.289158464942375
1684782945596054,9.170672159914488,-13.015945677881973,27.725642786297385
1684782945612056,5.722133211261166,-13.931486991683755,25.89456015869382
1684782945628059,-8.89600976577401,-25.3757534142062,31.631952391851883
1684782945644061,8.163576714732585,-20.309758144503007,13.229571984435779
1684782945660063,0.9613183794918996,-18.6617837796598,0.5340657663844013
1684782945676065,4.531929503318793,-9.872587167162578,-3.250171663996298
1684782945692067,-8.407721065079727,-10.849164568551146,-6.88181887541009
1684782945708069,-14.084077210650776,-8.407721065079727,-10.818646524757696
1684782945724072,-2.548256656748322,2.2735942626077303,-11.764705882352928
1684782945740074,-7.980468451972229,-0.045777065690117524,-15.060654612039343
1684782945756076,4.440375371938671,0.44251163500416624,-17.105363546196713
1684782945772078,12.13092240787364,-16.311894407568502,-20.370794232089793
1684782945788080,5.50850690470736,-26.077668421454177,-21.19478141451134
1684782945804107,11.490043488212336,-11.154345006485073,-41.76394293125804
1684782945820109,12.283512626840547,0.106813153276903,-51.74334325169764
1684782945836112,25.925078202487157,27.389944304570008,-52.689402609292756
1684782945852114,15.579461356526963,21.04219119554432,-39.0173189898527
1684782945868116,3.6469062333104603,0.44251163500416624,-24.67383840695811
1684782945884118,8.316166933699492,-19.45525291828801,-14.02304112306399
1684782945900120,21.92721446555265,-17.44106202792409,-21.98825055313955
1684782945916123,40.05493247882828,-4.989700160219741,-31.357289997711177
1684782945932125,25.314717326619302,-1.6021972991530902,-54.52048523689632
1684782945948127,20.035095750362302,15.732051575493983,-59.159227893492016
1684782945964129,15.426871137560056,31.052109559777136,-53.665980010681324
1684782945980131,17.959868772411596,42.52689402609303,-28.946364538033095
1684782945996133,10.63553826199734,24.12451361867693,-10.727092393377575
1684782946012136,25.131609063858832,11.184863050278409,7.217517357137353
1684782946028138,26.87113756008239,-13.626306553749828,18.936446173800164
1684782946044140,15.2437628747997,-33.46303501945522,21.68307011520551
1684782946060142,22.140840772106458,-18.2345311665523,12.832837415121617
1684782946076144,0.19836728465702436,-11.917296101319835,-15.21324483100625
1684782946092146,-0.2594033722438098,11.612115663385907,-39.38353551537341
1684782946108149,-4.654001678492364,22.323949034866814,-51.59075303273062
1684782946124145,-8.285648889906156,21.01167315175087,-41.85549706263828
1684782946140147,-13.076981765468759,29.343099107347143,-32.852674143587365
1684782946156149,11.33745326924543,28.183413443198106,-11.85626001373305
1684782946172152,3.7079423208972457,6.179903868162,-12.497138933394353
1684782946188154,-18.722819867246585,13.168535896848994,-20.0961318379492
1684782946204156,13.382162203402686,40.05493247882828,-12.68024719615471
1684782946220158,-21.98825055313955,26.81010147249549,-24.368657969024184
1684782946236160,-26.138704509040963,23.392080567635503,-20.279240100709558
1684782946252163,-4.623483634699028,23.72777904936288,5.447470817120575
1684782946268165,-2.639810788128443,0.16784924086368846,31.84557869840546
1684782946284167,5.661097123674381,-13.076981765468759,41.82497901884494
1684782946300169,4.928664072632955,-11.33745326924543,35.56878004119949
1684782946316171,-3.3112077515830833,7.0954451819637825,7.3090714885175885
1684782946332173,-5.661097123674381,14.389257648584703,-6.9733730067902115
1684782946348176,-4.654001678492364,12.283512626840547,-5.416952773327239
1684782946364178,3.1891355764095124,5.569542992294146,13.046463721675423
1684782946380180,-4.83710994125272,-9.872587167162578,28.488593881132147
1684782946396182,26.260776684214534,-24.124513618677042,37.705043106736866
1684782946412184,19.91302357518873,-24.521248187991205,50.125886930647766
1684782946428187,17.471580071717312,-20.950637064164198,62.14999618524462
1684782946444183,0.2594033722438098,-11.42900740062555,50.1564049744411
1684782946460185,-4.745555809872599,1.7242694743266611,33.82925154497616
1684782946476187,-8.651865415426869,10.727092393377575,22.35446707866015
1684782946492190,-11.032272831311502,5.844205386434737,19.424734874494447
1684782946508192,-8.468757152666512,-8.651865415426869,29.49568932631405
1684782946524194,1.9989318684672526,-8.89600976577401,43.86968795300231
1684782946540196,2.853437094682249,-20.584420538643485,55.771725032425365
1684782946556198,-4.501411459525457,-30.838483253223444,59.18974593728535
1684782946572200,-16.76966506446945,-40.787365529869476,58.67093919279773
1684782946588203,-8.22461280231937,-56.77882047760738,60.59357595178153
1684782946604205,-18.600747692073014,-32.303349355306295,56.992446784161075
1684782946620207,-25.741969939726914,-20.340276188296343,46.921492332341586
1684782946636209,-29.526207370107613,-17.83779659723814,28.824292362859524
1684782946652211,-25.10109102006561,-27.26787212939655,6.912336919203426
1684782946668213,-36.3012130922408,-28.641184100099167,-3.1891355764095124
1684782946684216,-16.525520714122308,-21.683070115205624,-25.589379720759894
1684782946700218,-18.11245899137873,7.064927138170447,-20.64545662623027
1684782946716220,-7.40062561989771,-1.7547875181201107,-2.090485999847374
1684782946732222,-13.565270466163042,-18.448157473105994,16.861219195849458
1684782946748224,-16.89173723964302,-29.67879758907452,27.908751049057628
1684782946764251,-17.105363546196713,-42.34378576333256,40.60425726710923
1684782946780254,-16.739147020676,-47.92858777752349,50.61417563134205
1684782946796256,-6.912336919203426,-36.240177004654015,52.048523689631566
1684782946812258,-7.827878233005208,-24.765392538338347,39.90234225986114
1684782946828260,-7.125963225757232,-1.7853055619134466,17.89883268482481
1684782946844262,-15.060654612039343,16.861219195849458,-4.470893415732007
1684782946860264,-18.20401312275885,25.223163195239067,-11.825741969939713
1684782946876267,-22.049286640726336,17.38002594033719,-2.1515220874341594
1684782946892269,-11.642633707179357,8.957045853360796,24.216067750057164
1684782946908271,-10.75761043717091,1.4801251239795192,42.710002288853275
1684782946924273,5.569542992294146,12.52765697718769,48.3558403906311
1684782946940275,8.163576714732585,14.328221560997918,45.30403601129183
1684782946956277,8.651865415426869,20.92011902037075,35.019455252918306
1684782946972280,1.3275349050126124,17.746242465857904,11.215381094071859
1684782946988282,-5.905241474021523,13.076981765468759,-13.962005035477205
1684782947004284,10.574502174410554,19.54680704966802,-19.88250553139551
1684782947020286,12.436102845807568,11.520561532005786,-16.403448538948737
1684782947036288,24.612802319371212,18.509193560692665,-9.903105210955914
1684782947052291,30.655374990463088,7.55321583886473,4.86762798504617
1684782947068293,25.19264515144573,2.4567025253680868,10.727092393377575
1684782947084289,21.25581750209801,7.675288014038301,11.154345006485073
1684782947100291,8.651865415426869,7.736324101625087,10.696574349584125
1684782947116294,0.6866559853513081,12.191958495460426,5.722133211261166
1684782947132296,-2.853437094682249,6.118867780575215,-2.853437094682249
1684782947148298,4.928664072632955,-0.9918364232852355,-4.806591897459384
1684782947164300,14.236667429617683,-2.212558175020945,1.5106431677729688
1684782947180302,22.568093385213956,0.19836728465702436,9.29274433508806
1684782947196304,18.081940947585167,-5.600061036087595,11.673151750972693
1684782947212307,21.469443808651818,-1.2970168612191628,10.971236743724717
1684782947228309,17.318989852750406,-7.644769970244852,15.030136568245894
1684782947244311,18.57022964827945,-15.884641794461004,16.15930418860148
1684782947260313,15.426871137560056,-26.901655603875838,12.832837415121617
1684782947276315,18.32608529793231,-32.60852979324022,8.74341954680699
1684782947292317,16.403448538948624,-43.71709773403518,4.83710994125272
1684782947308320,28.97688258182643,-38.681620508125434,-7.064927138170447
1684782947324322,26.901655603875724,-10.482948043030433,-21.286335545891575
1684782947340324,23.17845426108181,-0.38147554741738077,-27.2373540856031
1684782947356326,13.839932860303634,0.6866559853513081,-22.384985122453713
1684782947372328,12.588693064774475,7.248035400930803,-15.671015487907312
1684782947388331,5.722133211261166,-5.905241474021523,-1.1749446860455919
1684782947404327,9.56740672922865,-5.1117723353933116,8.560311284046634
1684782947420329,12.741283283741495,-3.128099488822727,9.262226291294724
1684782947436331,31.26573586633117,-12.52765697718769,18.417639429312544
1684782947452334,22.018768596932887,-9.048599984740918,15.945677882047676
1684782947468336,10.513466086823769,-10.177767605096506,19.91302357518873
1684782947484338,5.2338445105668825,3.1891355764095124,5.844205386434737
1684782947500340,-2.212558175020945,9.811551079575793,-3.2806897077897474
1684782947516342,0.44251163500416624,20.157167925535873,-9.140154116121153
1684782947532344,2.9449912260623705,16.55603875791553,-8.712901503013654
1684782947548347,3.585870145723675,10.360875867856862,-10.208285648889841
1684782947564349,7.522697795071281,14.206149385824347,-12.405584802014118
1684782947580351,11.642633707179357,12.52765697718769,-8.590829327840083
1684782947596353,10.177767605096506,0.5951018539711868,-9.475852597848416
1684782947612355,19.24162661173409,-9.99465934233615,-10.971236743724717
1684782947628358,39.59716182192733,-0.5035477225909517,-5.569542992294146
1684782947644360,38.04074158846424,31.32677195391784,-29.922941939421662
1684782947660362,51.37712672617681,66.11734187838556,-43.472953383688036
1684782947676364,52.9945830472268,61.23445487144272,-31.265735866330942
1684782947692366,32.120241092546166,48.538948653391344,-47.196154726482064
1684782947708368,36.85053788052187,40.75684748607614,-58.82352941176475
1684782947724395,33.76821545738926,39.96337834744804,-80.7049668116274
1684782947740398,33.06630045014117,47.13511863889539,-102.9831387808041
1684782947756400,45.67025253681254,62.943465323872715,-120.31738765545128
1684782947772402,50.37003128099491,74.845502403296,-128.22156099794006
1684782947788404,23.02586404211479,55.0698100251775,-100.17547875181197
1684782947804406,-3.585870145723675,39.99389639124138,-66.81925688563365
1684782947820408,0.41199359121083035,33.676661326009025,-26.810101472495603
1684782947836411,-34.378576333257,11.276417181658644,9.56740672922865
1684782947852413,-31.387808041504513,5.477988860914024,30.59433890287619
1684782947868415,-42.34378576333256,-3.585870145723675,49.39345387960634
1684782947884417,-53.29976348516061,-7.949950408178779,52.32318608377204
1684782947900419,-57.846952010376185,16.00671396963446,67.18547341115436
1684782947916422,-51.46868085755705,27.939269092850964,87.93774319066142
1684782947932424,-89.15846494239725,-10.177767605096506,87.87670710307452
1684782947948426,-89.79934386205844,-18.600747692073014,97.70351720454732
1684782947964428,-105.9128709849698,-40.695811398489354,130.81559472037839
1684782947980430,-119.95117112993057,-126.3904783703365,163.40886549172205
1684782947996432,-130.14419775692375,-174.5784695201038,200.91554131380167
1684782948012435,-126.9703212024109,-171.22148470283048,209.4911116197452
1684782948028437,-103.56298161287862,-121.93484397650116,157.88509956511803
1684782948044433,-56.595712214847026,-28.976882581826544,72.9228656443122
1684782948060435,-52.018005645838116,-19.33318074311444,22.751201647974312
1684782948076438,-84.51972228580155,-59.09819180590523,-1.7242694743266611
1684782948092440,-67.91790646219579,-71.79369802395661,12.314030670633997
1684782948108442,-50.675211718928836,-64.25574120698866,45.79232471198611
1684782948124444,-67.58220798046841,-43.778133821621964,49.02723735408563
1684782948140446,-13.687342641336613,-23.75829709315633,71.18333714808887
1684782948156448,5.081254291599862,-2.334630350194516,54.82566567483036
1684782948172451,17.166399633783385,36.57587548638139,38.01022354467091
1684782948188453,-4.013122758831173,20.58442053864337,12.771801327534831
1684782948204455,-10.879682612344482,6.454566262302592,1.9989318684672526
1684782948220457,3.341725795376533,22.812237735561098,2.8229190508887996
1684782948236459,-8.163576714732585,-11.367971313038765,-8.407721065079727
1684782948252462,-17.807278553444803,-31.937132829785583,-34.28702220187688
1684782948268464,-22.65964751659419,5.9357595178148586,-40.939955748836496
1684782948284466,-34.103913939116524,10.849164568551146,-32.60852979324022
1684782948300468,-50.98039215686276,0.015259021896667946,-23.605706874189423
1684782948316470,-70.32883192187376,-5.53902494850081,-34.95841916533152
1684782948332472,-60.47150377660796,4.86762798504617,-37.79659723811699
1684782948348475,-30.10605020218202,9.628442816815436,-18.417639429312658
1684782948364502,-37.460898756389724,-0.9918364232852355,11.490043488212336
1684782948380504,-39.93286030365448,-24.887464713511918,34.65323872739759
1684782948396506,-77.74471656366825,-28.122377355611548,84.45868619821454
1684782948412508,-142.50400549324797,-2.1210040436408235,71.45799954222935
1684782948428510,-185.4428931105516,17.80727855344469,37.7965972381171
1684782948444512,-216.72388799877933,47.92858777752349,5.661097123674381
1684782948460515,-255.20714122224763,35.53826199740615,3.799496452277367
1684782948476517,-243.7628747997254,-3.6163881895170107,45.151445792324694
1684782948492519,-188.83039597161826,-7.919432364385443,80.91859311818098
1684782948508521,-116.38056000610368,50.61417563134205,46.921492332341586
1684782948524523,-105.97390707255659,75.27275501640338,-6.668192568856284
1684782948540526,-81.22377355611513,72.31250476844434,-58.365758754863805
1684782948556528,-100.81635767147327,64.16418707560842,-94.1329060807202
1684782948572530,-104.02075226977945,88.97535667963666,-139.9710078583962
1684782948588532,-73.53322652018005,44.96833752956445,-170.42801556420227
1684782948604534,16.403448538948624,6.698710612649734,-133.3180743114366
1684782948620536,-40.146486610208285,-34.28702220187688,-52.10955977721835
1684782948636539,-143.99938963912416,-86.74753948271916,-62.973983367666165
1684782948652541,-66.3614862287327,-42.160677500572206,-41.611352712291136
1684782948668543,8.499275196459848,-9.048599984740918,-14.114595254444112
1684782948684539,31.204699778744043,-28.000305180437977,22.50705729762717
1684782948700542,18.844892042420042,-57.87747005416952,36.85053788052187
1684782948716544,-16.464484626535523,-57.48073548485547,25.101091020065496
1684782948732546,-5.630579079880931,-45.395590142671836,36.45380331120782
1684782948748548,-30.197604333562253,-58.45731288624404,16.647592889295765
1684782948764550,-56.74830243381405,-46.95201037613492,-31.906614785992247
1684782948780552,-43.19829098954756,-29.098954757000115,-29.95345998321511
1684782948796555,-22.81223773556121,2.6092927443351073,-26.077668421454177
1684782948812557,-8.010986495765565,10.849164568551146,-16.159304188601595
1684782948828559,-10.11673151750972,10.818646524757696,-0.5035477225909517
1684782948844561,-8.560311284046634,5.294880598153668,9.9641412985427
1684782948860563,-8.590829327840083,-11.459525444419,10.605020218204004
1684782948876566,-2.182040131227609,-21.19478141451134,4.959182116426291
1684782948892568,9.048599984740918,-11.490043488212336,-0.3204394598305953
1684782948908570,5.600061036087595,11.490043488212336,-3.372243839169869
1684782948924572,1.2359807736323773,31.692988479438554,-3.768978408484031
1684782948940574,-13.260090028229115,30.77744716563666,-9.44533455405508
1684782948956576,-29.617761501487735,25.101091020065496,-14.419775692378039
1684782948972579,-30.47226672770273,25.619897764553116,-14.175631342030897
1684782948988581,-17.013809414816592,24.3076218814374,-11.33745326924543
1684782949004577,-0.9002822919051141,20.34027618829623,-11.398489356832215
1684782949020579,-3.7079423208972457,10.238803692683291,-12.985427634088637
1684782949036582,-23.36156252384228,14.877546349278987,-14.847028305485537
1684782949052584,-62.60776684214545,23.758297093156216,-27.90875104905774
1684782949068586,-51.59075303273062,41.88601510643184,-32.883192187380814
1684782949084588,-24.917982757305253,37.582970931563295,-25.711451895933465
1684782949100590,-44.23590447852291,17.074845502403264,-27.298390173189887
1684782949116593,-20.279240100709558,29.312581063553807,-17.86831464103159
1684782949132595,-39.68871595330734,21.896696421759316,-20.279240100709558
1684782949148597,-61.02082856488903,26.382848859388105,-21.77462424658586
1684782949164599,-54.94773785000382,31.60143434805832,-12.466620889600904
1684782949180601,-20.309758144503007,26.35233081559454,0.8697642481116645
1684782949196603,2.2430762188143945,17.044327458609814,-0.7782101167315432
1684782949212606,8.74341954680699,8.77393759060044,-6.668192568856284
1684782949228608,-20.340276188296343,-15.182726787212914,-2.334630350194516
1684782949244610,-38.43747615777829,-0.5340657663844013,-11.245899137865194
1684782949260612,-37.460898756389724,24.3076218814374,-13.931486991683755
1684782949276614,-17.31898985275052,43.80865186541541,2.1210040436408235
1684782949292616,-5.447470817120575,36.51483939879472,25.864042114900258
1684782949308619,-4.654001678492364,21.59151598382539,30.685893034256424
1684782949324646,-14.908064393072323,19.39421683070111,13.717860685130063
1684782949340648,-6.179903868162,42.40482185091946,7.705806057831637
1684782949356650,1.2054627298390415,52.78095674067299,7.461661707484495
1684782949372652,5.416952773327239,48.93568322270539,10.11673151750972
1684782949388654,-1.1139085984588064,35.14152742809188,20.248722056916108
1684782949404657,-11.734187838559478,33.52407110704212,32.70008392462046
1684782949420659,-14.908064393072323,39.90234225986114,41.97756923781185
1684782949436661,-16.128786144808146,47.2877088578623,55.130846112764175
1684782949452663,-18.051422903791945,52.90302891584656,57.51125352864892
1684782949468665,-34.62272068360414,60.99031052109558,53.63546196688799
1684782949484667,-50.675211718928836,77.37850003814742,60.776684214541774
1684782949500670,-41.214618142976974,91.72198062104212,77.7141985198748
1684782949516672,-24.795910582131683,123.3997100785839,77.28694590676741
1684782949532674,-2.883955138475585,149.98092622262902,78.96543831540384
1684782949548676,15.274280918593035,157.7935454337378,84.91645685511548
1684782949564678,13.717860685130063,154.58915083543138,92.02716105897593
1684782949580680,-15.396353093766606,143.9078355077438,94.37705043106757
1684782949596683,-49.881742580300624,127.30601968413816,95.23155565728257
1684782949612685,-69.96261539635304,113.45082780193798,99.01579308766327
1684782949628687,-84.09246967269405,99.38200961318398,100.14496070801874
1684782949644683,-90.16556038757915,89.15846494239713,99.41252765697732
1684782949660686,-83.51262684061953,83.14641031509882,102.28122377355612
1684782949676688,-90.28763256275272,90.10452429999236,99.71770809491113
1684782949692690,-85.74044403753726,95.01792935072876,98.80216678110946
1684782949708692,-77.07331960021361,93.30891889829854,100.08392462043184
1684782949724694,-70.54245822842756,94.62119478141472,99.80926222629137
1684782949740697,-70.1457236591134,101.15205615320065,94.77378500038162
1684782949756699,-64.98817425803009,108.38483253223467,92.0576791027695
1684782949772701,-58.67093919279773,109.3308918898299,90.65384908827332
1684782949788703,-45.57869840543219,108.78156710154894,87.3579003585869
1684782949804705,-25.8030060273137,105.6076905470361,80.61341268024717
1684782949820707,-28.48859388113226,110.91783016708632,62.39414053559176
1684782949836710,27.939269092850964,102.12863355458921,42.4353398947128
1684782949852712,65.84267948424508,106.15701533531706,-8.712901503013654
1684782949868714,-59.2202639810788,106.24856946669729,-8.926527809567347
1684782949884716,-72.95338368810553,87.60204470893405,-6.546120393682713
1684782949900718,-101.5487907225147,105.48561837186253,-4.287785152971651
1684782949916720,-91.99664301518271,103.95971618219278,-0.9918364232852355
1684782949932723,-41.39772640573733,105.79079880979634,-1.7547875181201107
1684782949948725,-20.248722056916222,104.57007705806063,-11.367971313038765
1684782949964721,-59.31181811245904,96.51331349660495,-32.9442282749676
1684782949980723,-7.644769970244852,107.43877317463966,-20.55390249485015
1684782949996726,-27.603570611123814,96.60486762798519,-27.57305256733048
1684782950012728,-40.45166704814221,89.2805371175707,-38.98680094605936
1684782950028730,-47.10460059510194,84.36713206683453,-44.75471122301053
1684782950044732,-51.43816281376371,77.01228351262671,-45.67025253681231
1684782950060734,-64.65247577630271,63.767452506294376,-43.16777294575411
1684782950076737,-73.9299610894941,39.566643778133994,-42.46585793850613
1684782950092739,-66.75822079804686,18.72281986724647,-43.41191729610125
1684782950108741,-53.54390783550775,4.928664072632955,-40.90943770504305
1684782950124743,-40.63477531090257,-1.6327153429465397,-36.57587548638128
1684782950140745,-46.585793850614095,-2.1210040436408235,-35.14152742809188
1684782950156747,-59.55596246280618,0.2594033722438098,-39.29198138399329
1684782950172750,-45.67025253681231,3.768978408484031,-31.631952391851655
1684782950188752,-34.59220263981081,4.898146028839506,-29.770351720454755
1684782950204754,-22.903791866941333,-0.7782101167315432,-26.840619516289053
1684782950220756,-16.06775005722136,-6.454566262302592,-27.389944304570122
1684782950236758,-18.78385595483337,-9.9641412985427,-28.061341268024762
1684782950252761,-32.883192187380814,-8.957045853360796,-31.967650873579032
1684782950268763,-36.05706874189366,-5.50850690470736,-33.21889066910808
1684782950284790,-38.40695811398484,-8.712901503013654,-30.319676508735824
1684782950300792,-31.05210955977725,-17.654688334477783,-21.957732509346215
1684782950316794,-17.502098115510876,-19.394216830701225,-22.751201647974426
1684782950332796,-12.344548714427333,-16.800183108262786,-23.36156252384228
1684782950348798,-16.952773327229806,-12.405584802014118,-25.192645151445845
1684782950364801,-28.397039749752025,-5.722133211261166,-26.138704509040963
1684782950380803,-24.734874494544897,-3.2806897077897474,-25.00953688868549
1684782950396805,-17.135881589990163,-5.142290379186647,-25.3757534142062
1684782950412807,-22.53757534142062,-8.07202258335235,-25.22316319523918
1684782950428809,-29.1599908445869,-7.40062561989771,-23.453116655222402
1684782950444811,-31.906614785992247,-4.135194934004744,-21.408407721065146
1684782950460814,-31.296253910124392,-5.844205386434737,-19.485770962081347
1684782950476816,-20.0961318379492,-10.299839780270077,-14.999618524452558
1684782950492818,-6.393530174715806,-13.565270466163042,-10.360875867856862
1684782950508820,-7.034409094376997,-9.56740672922865,-7.919432364385443
1684782950524822,-19.363698786907776,-0.6561379415579722,-4.959182116426291
1684782950540825,-25.040054932478824,4.379339284351886,-0.5035477225909517
1684782950556827,-16.739147020676,3.768978408484031,4.531929503318793
1684782950572829,-2.059967956054038,-3.9826047150377235,9.689478904402222
1684782950588831,23.17845426108181,-19.57732509346158,15.21324483100625
1684782950604828,51.346608682383476,-32.82215609979403,19.638361181048253
1684782950620830,42.92362859540708,-27.054245822842745,19.058518348973735
1684782950636832,15.030136568245894,-12.100404364080191,22.873273823147883
1684782950652834,-10.299839780270077,-4.989700160219741,24.063477531090257
1684782950668836,-11.001754787518053,-2.9449912260623705,22.3849851224536
1684782950684838,-2.853437094682249,-8.987563897154132,22.47653925383372
1684782950700841,-7.614251926451516,-15.793087663080883,22.812237735561098
1684782950716843,-14.175631342030897,-20.706492713817056,21.25581750209801
1684782950732845,-14.084077210650776,-23.819333180743115,20.798046845197177
1684782950748847,-15.854123750667668,-21.835660334172644,16.128786144808032
1684782950764849,-11.97833218890662,-19.30266269932099,9.719996948195558
1684782950780851,-8.163576714732585,-9.536888685435201,3.799496452277367
1684782950796854,-2.731364919508678,-1.6327153429465397,2.4872205691615363
1684782950812856,-2.761882963302014,3.585870145723675,-2.059967956054038
1684782950828858,-5.600061036087595,1.5411612115663047,-5.203326466773433
1684782950844860,-3.463797970550104,1.5411612115663047,-4.592965590905578
1684782950860862,-4.623483634699028,3.5248340581368893,-5.142290379186647
1684782950876865,-11.795223926146264,5.050736247806526,-7.858396276798658
1684782950892867,-19.85198748760206,5.996795605401644,-10.055695429922935
1684782950908869,-22.201876859693357,-0.3509575036240449,-13.015945677881973
1684782950924865,-17.593652246890997,-5.355916685740453,-15.457389181353392
1684782950940868,-12.283512626840547,-13.229571984435779,-13.260090028229115
1684782950956870,-9.628442816815436,-22.018768596933,-7.431143663691159
1684782950972872,-4.379339284351886,-23.75829709315633,-4.806591897459384
1684782950988874,2.2735942626077303,-25.13160906385906,-1.022354467078685
1684782951004876,1.6937514305333252,-28.946364538033095,1.9073777370870175
1684782951020878,2.4567025253680868,-24.734874494544897,3.463797970550104
1684782951036881,-0.3204394598305953,-20.218204013122772,3.6469062333104603
1684782951052883,-1.7242694743266611,-14.877546349278987,4.654001678492364
1684782951068885,2.853437094682249,-13.626306553749828,5.325398641947004
1684782951084887,12.710765239948046,-15.762569619287433,4.654001678492364
1684782951100889,21.469443808651818,-17.624170290684447,4.043640802624509
1684782951116891,27.75616083009072,-15.579461356526963,4.287785152971651
1684782951132894,31.357289997711177,-9.842069123369129,3.921568627450938
1684782951148896,31.357289997711177,-3.799496452277367,2.334630350194516
1684782951164898,35.782406347753295,-5.966277561608308,1.266498817425827
1684782951180900,43.80865186541541,-20.76752880140384,1.846341649500232
1684782951196902,64.46936751354247,-32.63904783703367,1.2054627298390415
1684782951212905,56.32104982070655,-36.331731136034136,1.7242694743266611
1684782951228907,41.91653315022518,-43.350881208514465,3.1891355764095124
1684782951244934,45.059891660944686,-42.74052033264661,7.3090714885175885
1684782951260936,53.54390783550775,-51.926451514457995,11.917296101319835
1684782951276938,53.208209353780376,-63.40123598077366,15.030136568245894
1684782951292940,59.89166094453344,-61.38704509040974,18.753337911039807
1684782951308942,71.76317998016316,-57.23659113450833,20.706492713816942
1684782951324945,77.10383764400694,-52.26214999618526,17.990386816205046
1684782951340947,82.3529411764705,-49.332417792019555,17.593652246890883
1684782951356949,88.12085145342166,-59.861142900740106,21.68307011520551
1684782951372951,92.17975127794307,-73.96047913328755,25.741969939726687
1684782951388953,91.90508888380236,-71.67162584878304,26.93217364766906
1684782951404955,79.05699244678408,-60.410467689021175,27.908751049057628
1684782951420958,64.77454795147628,-54.76462958724346,27.084763866635967
1684782951436960,63.767452506294376,-56.473640039673455,25.284199282825966
1684782951452962,67.94842450598912,-57.41969939726869,21.774624246585745
1684782951468964,63.37071793698033,-44.174868390936126,18.539711604486115
1684782951484966,49.33241779201967,-29.80086976424809,19.638361181048253
1684782951500969,38.10177767605114,-27.359426260776672,20.675974670023606
1684782951516971,33.46303501945545,-22.29343099107348,20.248722056916108
1684782951532973,30.13656824597524,-15.732051575494097,20.553902494850036
1684782951548975,28.885328450446195,-5.966277561608308,17.532616159304098
1684782951564972,28.54962996871882,8.1025406271458,12.741283283741495
1684782951580974,26.68802929732192,17.837796597238025,11.886778057526499
1684782951596976,24.155031662470265,28.091859311818098,10.452429999236983
1684782951612978,20.675974670023606,36.05706874189377,8.133058670939135
1684782951628980,15.091172655832679,40.848401617456375,6.607156481269499
1684782951644982,9.506370641641865,40.7873655298697,7.461661707484495
1684782951660985,6.88181887541009,40.69581139848947,7.705806057831637
1684782951676987,4.501411459525457,44.38849469748993,7.0954451819637825
1684782951692989,-1.8768596932936816,46.25009536888683,6.759746700236519
1684782951708991,-8.62134737163342,44.815747310597544,7.339589532310924
1684782951724993,-3.463797970550104,44.78522926680398,6.9733730067902115
1684782951740996,4.745555809872599,46.00595101853969,7.064927138170447
1684782951756998,5.996795605401644,40.93995574883661,8.651865415426869
1684782951773000,3.219653620202962,39.26146334019995,9.475852597848416
1684782951789002,-6.118867780575215,43.16777294575422,9.99465934233615
1684782951805004,-16.006713969634575,48.3558403906311,11.30693522545198
1684782951821006,-13.748378728923399,55.03929198138394,12.344548714427333
1684782951837009,-6.2714579995422355,57.63332570382249,14.877546349278987
1684782951853011,-1.4190890363927338,59.18974593728535,17.746242465857904
1684782951869013,3.463797970550104,65.87319752803842,21.866178377965866
1684782951885040,3.4027618829633184,71.67162584878315,25.00953688868526
1684782951901043,3.768978408484031,77.13435568780028,25.925078202487157
1684782951917045,8.712901503013654,84.03143358510715,24.64332036316455
1684782951933048,24.67383840695811,87.1442740520331,25.406271457999537
1684782951949051,39.47508964675376,83.66521705958644,25.925078202487157
1684782951965053,47.71496147096968,77.22590981918052,25.46730754558621
1684782951981056,51.0109102006561,78.01937895780884,24.917982757305253
1684782951997058,39.26146334019995,78.17196917677575,24.94850080109859
1684782952013061,19.11955443656052,82.90226596475168,22.90379186694122
1684782952029064,-7.125963225757232,85.37422751201643,20.645456626230157
1684782952045066,-18.417639429312658,78.23300526436242,17.441062027923977
1684782952061069,-18.20401312275885,68.37567711909674,12.588693064774475
1684782952077072,-15.091172655832679,66.45304036011294,7.919432364385443
1684782952093074,-13.168535896848994,64.4388494697489,1.8768596932936816
1684782952109077,-24.368657969024184,64.89662012664985,-8.346684977492941
1684782952125080,-26.291294728007983,68.95551995117103,-16.61707484550243
1684782952141082,-25.589379720759894,66.60563057907984,-16.403448538948737
1684782952157085,-26.626993209735247,63.98107881284818,-14.999618524452558
1684782952173088,-17.1663996337835,60.28839551384749,-12.52765697718769
1684782952189090,-13.626306553749828,76.21881437399861,-31.326771953917728
1684782952205078,-36.02655069810021,134.1115434500648,-90.56229495689331
1684782952221080,-16.89173723964302,108.01861600671396,-65.96475165941865
1684782952237082,-11.33745326924543,49.66811627374682,-21.377889677271696
1684782952253084,-49.17982757305265,60.92927443350891,-12.52765697718769
1684782952269086,-19.72991531242849,99.01579308766327,-12.405584802014118
1684782952285089,-3.4027618829633184,75.60845349813076,-7.248035400930803
1684782952301091,6.668192568856284,54.97825589379727,-4.043640802624509
1684782952317093,-44.724193179217195,28.85481040665286,-36.42328526741437
1684782952333095,-58.88456549935154,-29.251544975967022,6.485084306095928
1684782952349097,-7.431143663691159,18.631265735866236,16.891737239642907
1684782952365100,-52.689402609292756,9.506370641641865,23.544670786602524
1684782952381102,-73.89944304570076,-9.872587167162578,34.0123598077364
1684782952397104,-54.97825589379727,-17.83779659723814,43.533989471274936
1684782952413106,-50.553139543755265,-21.408407721065146,49.485008010986576
1684782952429108,-28.732738231479402,-16.281376363775166,51.529716945143946
