Timestamp (microseconds),Accel X (g),Accel Y (g),Accel Z (g)
1688152507757110,-0.03179980163271523,0.01104753185320817,1.0293736171511405
1688152507773106,-0.03411917296101308,0.015197985809109582,1.0263218127718012
1688152507789102,-0.032288090333409514,0.01239032578011745,1.027542534523537
1688152507805098,-0.032410162508583085,0.010803387502861028,1.0315709163042648
1688152507821094,-0.03265430685893023,0.012756542305638163,1.0305943389028762
1688152507837090,-0.032410162508583085,0.014709697108415298,1.0253452353704127
1688152507853086,-0.03167772945754166,0.012634470130464592,1.027542534523537
1688152507869082,-0.029602502479590953,0.010681315327687457,1.0307164110780498
1688152507885078,-0.032288090333409514,0.013488975356679589,1.0290074006256198
1688152507901074,-0.033630884260318794,0.014709697108415298,1.0270542458228427
1688152507917070,-0.032410162508583085,0.013366903181506018,1.0264438849469748
1688152507933066,-0.030945296406500233,0.010559243152513886,1.031815060654612
1688152507949062,-0.031311512932020946,0.012512397955291021,1.0285191119249255
1688152507965058,-0.03411917296101308,0.015564202334630295,1.0276646066987105
1688152507981054,-0.0327763790341038,0.012146181429770309,1.0285191119249255
1688152507997050,-0.03045700770580595,0.011291676203555312,1.0304722667277026
1688152508013046,-0.032532234683756656,0.012634470130464592,1.030350194552529
1688152508029042,-0.03399710078583951,0.015320057984283153,1.0282749675745784
1688152508045038,-0.03204394598306237,0.014221408407721015,1.0265659571221484
1688152508061034,-0.03033493553063238,0.011535820553902454,1.0297398336766612
1688152508077026,-0.03167772945754166,0.014099336232547444,1.0302281223773555
1688152508093022,-0.03338673990997165,0.014099336232547444,1.0290074006256198
1688152508109018,-0.03350881208514522,0.013855191882200302,1.0287632562752727
1688152508125014,-0.03057907988097952,0.010681315327687457,1.0308384832532234
1688152508141010,-0.03265430685893023,0.012512397955291021,1.0299839780270084
1688152508157006,-0.033752956435492365,0.015320057984283153,1.0281528953994048
1688152508173002,-0.033630884260318794,0.014587624933241727,1.0271763179980162
1688152508188998,-0.030823224231326662,0.010437170977340315,1.0264438849469748
1688152508204994,-0.03033493553063238,0.012878614480811734,1.0324254215304798
1688152508220990,-0.03448538948653379,0.015808346684977437,1.0253452353704127
1688152508236986,-0.0327763790341038,0.014099336232547444,1.0238803692683298
1688152508252982,-0.030090791180285237,0.0109254596780346,1.0280308232242312
1688152508268978,-0.03179980163271523,0.013244831006332447,1.025833524071107
1688152508284974,-0.03399710078583951,0.01483176928358887,1.0261997405966277
1688152508300970,-0.033752956435492365,0.01226825360494388,1.026688029297322
1688152508316966,-0.029968719005111666,0.011291676203555312,1.0288853284504462
1688152508332962,-0.03143358510719452,0.011657892729076025,1.0285191119249255
1688152508348958,-0.033875028610665936,0.014465552758068156,1.026932173647669
1688152508364954,-0.033630884260318794,0.013366903181506018,1.0254673075455862
1688152508380950,-0.030212863355458808,0.011779964904249596,1.0279087510490577
1688152508396881,-0.03045700770580595,0.010559243152513886,1.0314488441290912
1688152508412876,-0.03424124513618665,0.015808346684977437,1.0282749675745784
1688152508428872,-0.033752956435492365,0.014709697108415298,1.027542534523537
1688152508444867,-0.030090791180285237,0.01104753185320817,1.0332799267566948
1688152508460863,-0.032532234683756656,0.012512397955291021,1.0304722667277026
1688152508476858,-0.03399710078583951,0.014709697108415298,1.026688029297322
1688152508492854,-0.03302052338445094,0.014221408407721015,1.028641184100099
1688152508508849,-0.031189440756847375,0.011779964904249596,1.0290074006256198
1688152508524845,-0.032410162508583085,0.01104753185320817,1.0315709163042648
1688152508540840,-0.034851606012054503,0.013244831006332447,1.030350194552529
1688152508556836,-0.03204394598306237,0.013000686655985305,1.0279087510490577
1688152508572831,-0.02923628595407024,0.0109254596780346,1.0285191119249255
1688152508588827,-0.030823224231326662,0.011902037079423167,1.0307164110780498
1688152508604822,-0.03350881208514522,0.01361104753185316,1.0274204623483634
1688152508620818,-0.03314259555962451,0.012146181429770309,1.0238803692683298
1688152508636813,-0.03167772945754166,0.01239032578011745,1.027786678873884
1688152508652809,-0.030823224231326662,0.011779964904249596,1.0299839780270084
1688152508668804,-0.03326466773479808,0.015564202334630295,1.0291294728007934
1688152508684800,-0.032288090333409514,0.01483176928358887,1.0271763179980162
1688152508700795,-0.030823224231326662,0.010193026626993174,1.0307164110780498
1688152508716522,-0.03057907988097952,0.011169604028381741,1.0287632562752727
1688152508732516,-0.03338673990997165,0.01361104753185316,1.0279087510490577
1688152508748511,-0.03216601815823594,0.01617456321049815,1.0307164110780498
1688152508764505,-0.029480430304417382,0.010803387502861028,1.0302281223773555
1688152508780500,-0.031067368581673804,0.009460593575951748,1.0319371328297855
1688152508796495,-0.033630884260318794,0.01361104753185316,1.0276646066987105
1688152508812489,-0.03338673990997165,0.01361104753185316,1.0298619058518348
1688152508828484,-0.0327763790341038,0.011169604028381741,1.0299839780270084
1688152508844478,-0.0289921416037231,0.011413748378728883,1.032059205004959
1688152508860473,-0.033875028610665936,0.012634470130464592,1.0281528953994048
1688152508876467,-0.03424124513618665,0.014587624933241727,1.0251010910200655
1688152508892462,-0.03045700770580595,0.01226825360494388,1.026932173647669
1688152508908456,-0.031311512932020946,0.011779964904249596,1.0276646066987105
1688152508924451,-0.03350881208514522,0.01617456321049815,1.0313267719539176
1688152508940446,-0.03399710078583951,0.01617456321049815,1.025833524071107
1688152508956440,-0.02935835812924381,0.011535820553902454,1.0304722667277026
1688152508972435,-0.03265430685893023,0.012512397955291021,1.0313267719539176
1688152508988429,-0.03302052338445094,0.014099336232547444,1.0270542458228427
1688152509004424,-0.03350881208514522,0.015075913633936011,1.0285191119249255
1688152509020418,-0.03045700770580595,0.010193026626993174,1.0263218127718012
1688152509036132,-0.02923628595407024,0.01104753185320817,1.0357213702601662
1688152509052126,-0.03338673990997165,0.014587624933241727,1.0270542458228427
1688152509068120,-0.03204394598306237,0.015320057984283153,1.0290074006256198
1688152509084113,-0.031311512932020946,0.01104753185320817,1.0304722667277026
1688152509100107,-0.029968719005111666,0.012634470130464592,1.0307164110780498
1688152509116100,-0.034973678187228074,0.01629663538567172,1.0276646066987105
1688152509132094,-0.03350881208514522,0.015564202334630295,1.024368657969024
1688152509148088,-0.03216601815823594,0.011902037079423167,1.0296177615014876
1688152509164081,-0.030090791180285237,0.012024109254596738,1.030106050202182
1688152509180075,-0.033752956435492365,0.014221408407721015,1.026932173647669
1688152509196068,-0.03399710078583951,0.014221408407721015,1.029251544975967
1688152509212062,-0.03070115205615309,0.012756542305638163,1.0296177615014876
1688152509228056,-0.031067368581673804,0.011413748378728883,1.0307164110780498
1688152509244049,-0.032410162508583085,0.012146181429770309,1.0298619058518348
1688152509260043,-0.0327763790341038,0.013977264057373873,1.0274204623483634
1688152509276036,-0.03045700770580595,0.013122758831158876,1.030350194552529
1688152509292030,-0.03045700770580595,0.00982681010147246,1.0281528953994048
1688152509308024,-0.032532234683756656,0.012756542305638163,1.0271763179980162
1688152509324017,-0.033630884260318794,0.015442130159456724,1.0264438849469748
1688152509340011,-0.03204394598306237,0.012512397955291021,1.0299839780270084
1688152509355774,-0.03045700770580595,0.011169604028381741,1.030106050202182
1688152509371766,-0.032410162508583085,0.013488975356679589,1.0268101014724955
1688152509387759,-0.03302052338445094,0.014221408407721015,1.027786678873884
1688152509403751,-0.03204394598306237,0.012024109254596738,1.029251544975967
1688152509419744,-0.029968719005111666,0.011535820553902454,1.0313267719539176
1688152509435737,-0.03167772945754166,0.013977264057373873,1.026688029297322
1688152509451729,-0.03448538948653379,0.014099336232547444,1.027786678873884
1688152509467722,-0.032410162508583085,0.012878614480811734,1.0280308232242312
1688152509483715,-0.03057907988097952,0.010559243152513886,1.0304722667277026
1688152509499707,-0.03167772945754166,0.013488975356679589,1.0299839780270084
1688152509515700,-0.03472953383688093,0.015686274509803866,1.0268101014724955
1688152509531693,-0.03204394598306237,0.012878614480811734,1.0293736171511405
1688152509547685,-0.03143358510719452,0.009216449225604606,1.030960555428397
1688152509563678,-0.03265430685893023,0.014343480582894585,1.0307164110780498
1688152509579671,-0.03472953383688093,0.015320057984283153,1.0274204623483634
1688152509595663,-0.03204394598306237,0.012878614480811734,1.0290074006256198
1688152509611656,-0.03033493553063238,0.011413748378728883,1.031815060654612
1688152509627648,-0.033875028610665936,0.012512397955291021,1.0276646066987105
1688152509643641,-0.03399710078583951,0.015197985809109582,1.0279087510490577
1688152509659634,-0.03204394598306237,0.013488975356679589,1.0280308232242312
1688152509675415,-0.032410162508583085,0.010559243152513886,1.0293736171511405
1688152509691406,-0.033630884260318794,0.013122758831158876,1.0287632562752727
1688152509707398,-0.033752956435492365,0.01373311970702673,1.0285191119249255
1688152509723390,-0.032532234683756656,0.011535820553902454,1.026688029297322
1688152509739381,-0.029480430304417382,0.011657892729076025,1.0298619058518348
1688152509755373,-0.0319218738078888,0.012756542305638163,1.0321812771801326
1688152509771365,-0.03411917296101308,0.015564202334630295,1.0280308232242312
1688152509787356,-0.03302052338445094,0.01361104753185316,1.0293736171511405
1688152509803348,-0.02923628595407024,0.01104753185320817,1.0296177615014876
1688152509819340,-0.03399710078583951,0.012634470130464592,1.0304722667277026
1688152509835332,-0.033630884260318794,0.014587624933241727,1.0261997405966277
1688152509851323,-0.03216601815823594,0.012512397955291021,1.0288853284504462
1688152509867315,-0.03057907988097952,0.011291676203555312,1.030960555428397
1688152509883307,-0.031311512932020946,0.012878614480811734,1.0307164110780498
1688152509899298,-0.03399710078583951,0.014587624933241727,1.0259555962462805
1688152509915290,-0.031311512932020946,0.012146181429770309,1.0264438849469748
1688152509931282,-0.03070115205615309,0.0109254596780346,1.0274204623483634
1688152509947273,-0.03314259555962451,0.012878614480811734,1.0310826276035705
1688152509963265,-0.03314259555962451,0.01373311970702673,1.0268101014724955
1688152509979257,-0.03167772945754166,0.014465552758068156,1.023514152742809
1688152509994995,-0.029846646829938095,0.01239032578011745,1.027542534523537
1688152510010985,-0.030945296406500233,0.01226825360494388,1.0270542458228427
1688152510026976,-0.03436331731136022,0.014343480582894585,1.0251010910200655
1688152510042967,-0.033875028610665936,0.011779964904249596,1.026932173647669
1688152510058958,-0.031311512932020946,0.010070954451819603,1.0288853284504462
1688152510074948,-0.03033493553063238,0.011779964904249596,1.0307164110780498
1688152510090939,-0.03204394598306237,0.01361104753185316,1.0282749675745784
1688152510106930,-0.032410162508583085,0.013977264057373873,1.0288853284504462
1688152510122921,-0.03033493553063238,0.011413748378728883,1.030960555428397
1688152510138911,-0.03216601815823594,0.013366903181506018,1.0296177615014876
1688152510154902,-0.03302052338445094,0.014099336232547444,1.0280308232242312
1688152510170893,-0.03216601815823594,0.014465552758068156,1.0282749675745784
1688152510186884,-0.029846646829938095,0.00970473792629889,1.0307164110780498
1688152510202874,-0.030823224231326662,0.012024109254596738,1.0291294728007934
1688152510218865,-0.03399710078583951,0.014221408407721015,1.0274204623483634
1688152510234856,-0.03314259555962451,0.01373311970702673,1.027542534523537
1688152510250846,-0.031067368581673804,0.012756542305638163,1.0298619058518348
1688152510266837,-0.03216601815823594,0.011413748378728883,1.027542534523537
1688152510282828,-0.03338673990997165,0.015930418860151008,1.0302281223773555
1688152510298819,-0.03338673990997165,0.013855191882200302,1.0263218127718012
1688152510314636,-0.031189440756847375,0.011169604028381741,1.027786678873884
1688152510330626,-0.03033493553063238,0.011657892729076025,1.0293736171511405
1688152510346615,-0.03265430685893023,0.012878614480811734,1.0271763179980162
1688152510362605,-0.03289845120927737,0.012878614480811734,1.0251010910200655
1688152510378595,-0.030945296406500233,0.010681315327687457,1.026932173647669
1688152510394585,-0.030212863355458808,0.013122758831158876,1.031204699778744
1688152510410575,-0.032532234683756656,0.015320057984283153,1.0291294728007934
1688152510426564,-0.03302052338445094,0.014343480582894585,1.0272983901731898
1688152510442554,-0.0319218738078888,0.01226825360494388,1.028641184100099
1688152510458544,-0.03143358510719452,0.011902037079423167,1.030350194552529
1688152510474534,-0.03338673990997165,0.014343480582894585,1.028641184100099
1688152510490523,-0.03338673990997165,0.013122758831158876,1.0253452353704127
1688152510506513,-0.029846646829938095,0.01104753185320817,1.0280308232242312
1688152510522503,-0.03155565728236809,0.01104753185320817,1.0271763179980162
1688152510538493,-0.033752956435492365,0.014709697108415298,1.029251544975967
1688152510554483,-0.03448538948653379,0.014343480582894585,1.028397039749752
1688152510570472,-0.031189440756847375,0.011657892729076025,1.029495689326314
1688152510586462,-0.030823224231326662,0.012146181429770309,1.0330357824063476
1688152510602452,-0.0327763790341038,0.01483176928358887,1.0291294728007934
1688152510618442,-0.033630884260318794,0.013855191882200302,1.029251544975967
1688152510634246,-0.03033493553063238,0.011413748378728883,1.0305943389028762
1688152510650236,-0.0319218738078888,0.011291676203555312,1.0305943389028762
1688152510666225,-0.03167772945754166,0.015075913633936011,1.029495689326314
1688152510682214,-0.03472953383688093,0.015320057984283153,1.0264438849469748
1688152510698204,-0.03143358510719452,0.01104753185320817,1.0285191119249255
1688152510714193,-0.03070115205615309,0.010681315327687457,1.0304722667277026
1688152510730182,-0.03302052338445094,0.013366903181506018,1.028397039749752
1688152510746172,-0.033875028610665936,0.016540779736018862,1.0264438849469748
1688152510762161,-0.03070115205615309,0.011535820553902454,1.026688029297322
1688152510778150,-0.030212863355458808,0.011413748378728883,1.028641184100099
1688152510794139,-0.033630884260318794,0.013366903181506018,1.0287632562752727
1688152510810129,-0.03350881208514522,0.015686274509803866,1.0281528953994048
1688152510826118,-0.0319218738078888,0.011657892729076025,1.029495689326314
1688152510842107,-0.03057907988097952,0.011413748378728883,1.0299839780270084
1688152510858097,-0.032410162508583085,0.014099336232547444,1.026932173647669
1688152510874086,-0.03448538948653379,0.015442130159456724,1.030350194552529
1688152510890075,-0.030823224231326662,0.011902037079423167,1.0274204623483634
1688152510906065,-0.032288090333409514,0.01226825360494388,1.030350194552529
1688152510922054,-0.03350881208514522,0.01373311970702673,1.027542534523537
1688152510938043,-0.0357061112382695,0.013855191882200302,1.0272983901731898
1688152510953888,-0.032288090333409514,0.009582665751125319,1.0296177615014876
1688152510969876,-0.030212863355458808,0.010559243152513886,1.0316929884794384
1688152510985864,-0.0327763790341038,0.012878614480811734,1.030960555428397
1688152511001853,-0.03472953383688093,0.014099336232547444,1.0279087510490577
1688152511017841,-0.030212863355458808,0.011413748378728883,1.0316929884794384
1688152511033829,-0.02911421377889667,0.010559243152513886,1.0298619058518348
1688152511049818,-0.033630884260318794,0.01373311970702673,1.0296177615014876
1688152511065806,-0.0327763790341038,0.015320057984283153,1.026932173647669
1688152511081794,-0.030823224231326662,0.01239032578011745,1.0264438849469748
1688152511097783,-0.02935835812924381,0.010559243152513886,1.0310826276035705
1688152511113771,-0.03289845120927737,0.013977264057373873,1.0281528953994048
1688152511129759,-0.03326466773479808,0.015075913633936011,1.0279087510490577
1688152511145748,-0.029724574654764524,0.01226825360494388,1.029495689326314
1688152511161736,-0.03070115205615309,0.009948882276646032,1.0296177615014876
1688152511177724,-0.03350881208514522,0.013000686655985305,1.0261997405966277
1688152511193713,-0.033752956435492365,0.01483176928358887,1.028397039749752
1688152511209701,-0.031189440756847375,0.012024109254596738,1.030106050202182
1688152511225690,-0.030212863355458808,0.010070954451819603,1.033524071107042
1688152511241678,-0.032288090333409514,0.012634470130464592,1.0276646066987105
1688152511257666,-0.03350881208514522,0.014465552758068156,1.0287632562752727
1688152511273529,-0.0327763790341038,0.012024109254596738,1.0276646066987105
1688152511289517,-0.029846646829938095,0.011657892729076025,1.0313267719539176
1688152511305504,-0.03265430685893023,0.01239032578011745,1.030106050202182
1688152511321492,-0.033875028610665936,0.014343480582894585,1.0282749675745784
1688152511337480,-0.032532234683756656,0.012512397955291021,1.028397039749752
1688152511353468,-0.028747997253375956,0.010070954451819603,1.029251544975967
1688152511369456,-0.03143358510719452,0.012024109254596738,1.029251544975967
1688152511385444,-0.03326466773479808,0.013244831006332447,1.0285191119249255
1688152511401432,-0.031189440756847375,0.011902037079423167,1.0270542458228427
1688152511417420,-0.03045700770580595,0.009094377050431035,1.0297398336766612
1688152511433407,-0.032410162508583085,0.012878614480811734,1.0285191119249255
1688152511449395,-0.03314259555962451,0.01483176928358887,1.0290074006256198
1688152511465383,-0.03155565728236809,0.013366903181506018,1.0264438849469748
1688152511481371,-0.030823224231326662,0.01104753185320817,1.0302281223773555
1688152511497359,-0.03265430685893023,0.01226825360494388,1.032059205004959
1688152511513347,-0.03424124513618665,0.015930418860151008,1.0293736171511405
1688152511529335,-0.032288090333409514,0.014709697108415298,1.0271763179980162
1688152511545323,-0.031067368581673804,0.011413748378728883,1.029495689326314
1688152511561310,-0.03302052338445094,0.012512397955291021,1.0296177615014876
1688152511577298,-0.033875028610665936,0.013488975356679589,1.026077668421454
1688152511593109,-0.03143358510719452,0.012146181429770309,1.0288853284504462
1688152511609096,-0.031189440756847375,0.010559243152513886,1.0316929884794384
1688152511625084,-0.0319218738078888,0.013122758831158876,1.0323033493553062
1688152511641071,-0.03338673990997165,0.01605249103532458,1.0293736171511405
1688152511657058,-0.032288090333409514,0.012634470130464592,1.0281528953994048
1688152511673046,-0.03204394598306237,0.00982681010147246,1.0324254215304798
1688152511689033,-0.03302052338445094,0.011657892729076025,1.029495689326314
1688152511705021,-0.033875028610665936,0.014221408407721015,1.0272983901731898
1688152511721008,-0.0327763790341038,0.014221408407721015,1.026077668421454
1688152511736995,-0.031189440756847375,0.011291676203555312,1.0281528953994048
1688152511752983,-0.03143358510719452,0.012146181429770309,1.0290074006256198
1688152511768970,-0.033630884260318794,0.015075913633936011,1.0276646066987105
1688152511784958,-0.032532234683756656,0.013855191882200302,1.027542534523537
1688152511800945,-0.03070115205615309,0.009948882276646032,1.0297398336766612
1688152511816932,-0.031311512932020946,0.011779964904249596,1.0282749675745784
1688152511832920,-0.032410162508583085,0.01361104753185316,1.026932173647669
1688152511848907,-0.03265430685893023,0.015197985809109582,1.0247348744945448
1688152511864894,-0.029968719005111666,0.010315098802166744,1.0308384832532234
1688152511880882,-0.029968719005111666,0.013366903181506018,1.0308384832532234
1688152511896869,-0.03436331731136022,0.014709697108415298,1.0280308232242312
1688152511912750,-0.03350881208514522,0.01361104753185316,1.028397039749752
1688152511928737,-0.030823224231326662,0.012146181429770309,1.0313267719539176
1688152511944724,-0.03155565728236809,0.012146181429770309,1.0279087510490577
1688152511960711,-0.033752956435492365,0.01483176928358887,1.030350194552529
1688152511976698,-0.03143358510719452,0.01361104753185316,1.0253452353704127
1688152511992684,-0.029846646829938095,0.011169604028381741,1.029251544975967
1688152512008671,-0.03179980163271523,0.012512397955291021,1.0296177615014876
1688152512024658,-0.031189440756847375,0.013366903181506018,1.027542534523537
1688152512040645,-0.03448538948653379,0.014709697108415298,1.0285191119249255
1688152512056632,-0.03033493553063238,0.0109254596780346,1.0280308232242312
1688152512072619,-0.03216601815823594,0.011535820553902454,1.031204699778744
1688152512088606,-0.03424124513618665,0.01483176928358887,1.0261997405966277
1688152512104593,-0.03302052338445094,0.01605249103532458,1.028641184100099
1688152512120580,-0.03057907988097952,0.011902037079423167,1.029495689326314
1688152512136567,-0.03057907988097952,0.011291676203555312,1.0308384832532234
1688152512152554,-0.03399710078583951,0.016540779736018862,1.0270542458228427
1688152512168541,-0.03265430685893023,0.013366903181506018,1.0257114518959334
1688152512184527,-0.032288090333409514,0.012512397955291021,1.0302281223773555
1688152512200514,-0.030823224231326662,0.012024109254596738,1.0290074006256198
1688152512216501,-0.03314259555962451,0.01495384145876244,1.0287632562752727
1688152512232360,-0.03350881208514522,0.014343480582894585,1.027786678873884
1688152512248347,-0.03057907988097952,0.010437170977340315,1.029251544975967
1688152512264333,-0.031311512932020946,0.01226825360494388,1.0297398336766612
1688152512280320,-0.033630884260318794,0.014099336232547444,1.028641184100099
1688152512296306,-0.03460746166170736,0.01495384145876244,1.0307164110780498
1688152512312293,-0.03057907988097952,0.012634470130464592,1.0319371328297855
1688152512328279,-0.030090791180285237,0.010193026626993174,1.0297398336766612
1688152512344266,-0.03314259555962451,0.014465552758068156,1.0279087510490577
1688152512360252,-0.033875028610665936,0.015564202334630295,1.0274204623483634
1688152512376238,-0.031067368581673804,0.012146181429770309,1.0280308232242312
1688152512392225,-0.030823224231326662,0.011902037079423167,1.032913710231174
1688152512408211,-0.03289845120927737,0.013488975356679589,1.0298619058518348
1688152512424198,-0.033875028610665936,0.014221408407721015,1.0259555962462805
1688152512440184,-0.03216601815823594,0.011657892729076025,1.0272983901731898
1688152512456171,-0.028503852903028815,0.010070954451819603,1.0288853284504462
1688152512472157,-0.0319218738078888,0.01373311970702673,1.0297398336766612
1688152512488144,-0.0327763790341038,0.01495384145876244,1.0279087510490577
1688152512504130,-0.030823224231326662,0.01104753185320817,1.0314488441290912
1688152512520116,-0.029846646829938095,0.010803387502861028,1.0297398336766612
1688152512536103,-0.03338673990997165,0.014587624933241727,1.028641184100099
1688152512551971,-0.033875028610665936,0.01483176928358887,1.0280308232242312
1688152512567957,-0.03033493553063238,0.011902037079423167,1.026688029297322
1688152512583943,-0.029724574654764524,0.010681315327687457,1.0290074006256198
1688152512599929,-0.03167772945754166,0.012512397955291021,1.029251544975967
1688152512615915,-0.03533989471274879,0.015197985809109582,1.0271763179980162
1688152512631901,-0.03216601815823594,0.013366903181506018,1.0299839780270084
1688152512647887,-0.030212863355458808,0.0109254596780346,1.030960555428397
1688152512663873,-0.031311512932020946,0.01373311970702673,1.0298619058518348
1688152512679859,-0.033630884260318794,0.015564202334630295,1.0272983901731898
1688152512695845,-0.03289845120927737,0.012756542305638163,1.0290074006256198
1688152512711831,-0.03033493553063238,0.009582665751125319,1.0316929884794384
1688152512727817,-0.03265430685893023,0.013977264057373873,1.0280308232242312
1688152512743803,-0.03314259555962451,0.01495384145876244,1.0290074006256198
1688152512759789,-0.031067368581673804,0.012146181429770309,1.028397039749752
1688152512775775,-0.031189440756847375,0.0109254596780346,1.0319371328297855
1688152512791761,-0.03155565728236809,0.012756542305638163,1.0285191119249255
1688152512807747,-0.03350881208514522,0.014587624933241727,1.0290074006256198
1688152512823732,-0.03143358510719452,0.012634470130464592,1.031815060654612
1688152512839718,-0.029846646829938095,0.01104753185320817,1.0298619058518348
1688152512855704,-0.03045700770580595,0.012756542305638163,1.0314488441290912
1688152512871582,-0.03595025558861664,0.015075913633936011,1.027542534523537
1688152512887567,-0.0319218738078888,0.012878614480811734,1.0323033493553062
1688152512903553,-0.031311512932020946,0.01226825360494388,1.031815060654612
1688152512919538,-0.032288090333409514,0.013366903181506018,1.0246128023193712
1688152512935524,-0.03302052338445094,0.012634470130464592,1.025833524071107
1688152512951509,-0.03265430685893023,0.013855191882200302,1.0280308232242312
1688152512967495,-0.030212863355458808,0.011291676203555312,1.030960555428397
1688152512983480,-0.031189440756847375,0.012146181429770309,1.0302281223773555
1688152512999466,-0.03399710078583951,0.015197985809109582,1.0280308232242312
1688152513015451,-0.03143358510719452,0.012878614480811734,1.0281528953994048
1688152513031437,-0.03070115205615309,0.011413748378728883,1.0299839780270084
1688152513047422,-0.031311512932020946,0.01226825360494388,1.030350194552529
1688152513063408,-0.03302052338445094,0.013000686655985305,1.0279087510490577
1688152513079393,-0.03167772945754166,0.013000686655985305,1.0282749675745784
1688152513095379,-0.03167772945754166,0.0109254596780346,1.034378576333257
1688152513111364,-0.03167772945754166,0.013244831006332447,1.0316929884794384
1688152513127349,-0.03338673990997165,0.015197985809109582,1.0287632562752727
1688152513143335,-0.03289845120927737,0.012878614480811734,1.0279087510490577
1688152513159320,-0.029602502479590953,0.010803387502861028,1.030350194552529
1688152513175306,-0.03302052338445094,0.013366903181506018,1.0308384832532234
1688152513191192,-0.0319218738078888,0.013122758831158876,1.0296177615014876
1688152513207177,-0.03204394598306237,0.011169604028381741,1.029251544975967
1688152513223162,-0.0289921416037231,0.0109254596780346,1.0293736171511405
1688152513239147,-0.0319218738078888,0.011779964904249596,1.0314488441290912
1688152513255132,-0.03399710078583951,0.014709697108415298,1.0265659571221484
1688152513271117,-0.03265430685893023,0.012878614480811734,1.0280308232242312
1688152513287102,-0.030823224231326662,0.011902037079423167,1.0296177615014876
1688152513303087,-0.03167772945754166,0.012756542305638163,1.0313267719539176
1688152513319072,-0.03424124513618665,0.015197985809109582,1.0265659571221484
1688152513335057,-0.03350881208514522,0.013000686655985305,1.0270542458228427
1688152513351042,-0.03045700770580595,0.011169604028381741,1.0304722667277026
1688152513367027,-0.030823224231326662,0.013122758831158876,1.0307164110780498
1688152513383012,-0.03314259555962451,0.015075913633936011,1.0268101014724955
1688152513398997,-0.033630884260318794,0.012878614480811734,1.027786678873884
1688152513414982,-0.03143358510719452,0.010437170977340315,1.031204699778744
1688152513430967,-0.03155565728236809,0.012634470130464592,1.030350194552529
1688152513446952,-0.03289845120927737,0.014221408407721015,1.027542534523537
1688152513462937,-0.03289845120927737,0.014465552758068156,1.026077668421454
1688152513478922,-0.03143358510719452,0.011169604028381741,1.0282749675745784
1688152513494907,-0.031311512932020946,0.011902037079423167,1.0315709163042648
1688152513510803,-0.03411917296101308,0.01373311970702673,1.0276646066987105
1688152513526787,-0.033752956435492365,0.01483176928358887,1.0263218127718012
1688152513542772,-0.03179980163271523,0.01226825360494388,1.0291294728007934
1688152513558756,-0.03167772945754166,0.012878614480811734,1.0302281223773555
1688152513574741,-0.03460746166170736,0.015320057984283153,1.0263218127718012
1688152513590726,-0.034851606012054503,0.014099336232547444,1.0299839780270084
1688152513606710,-0.030945296406500233,0.01226825360494388,1.0305943389028762
1688152513622695,-0.032288090333409514,0.01226825360494388,1.0321812771801326
1688152513638679,-0.03436331731136022,0.014099336232547444,1.027542534523537
1688152513654664,-0.03216601815823594,0.014221408407721015,1.027786678873884
1688152513670648,-0.030212863355458808,0.011535820553902454,1.0297398336766612
1688152513686633,-0.03033493553063238,0.011902037079423167,1.0291294728007934
1688152513702617,-0.03289845120927737,0.014587624933241727,1.0291294728007934
1688152513718602,-0.033752956435492365,0.01361104753185316,1.0276646066987105
1688152513734586,-0.03216601815823594,0.01226825360494388,1.0305943389028762
1688152513750571,-0.032532234683756656,0.012146181429770309,1.0313267719539176
1688152513766555,-0.03472953383688093,0.014465552758068156,1.0310826276035705
1688152513782540,-0.03399710078583951,0.014343480582894585,1.0280308232242312
1688152513798524,-0.031067368581673804,0.010559243152513886,1.0304722667277026
1688152513814509,-0.03155565728236809,0.012512397955291021,1.0310826276035705
1688152513830413,-0.03424124513618665,0.01617456321049815,1.0282749675745784
1688152513846398,-0.03411917296101308,0.013977264057373873,1.0276646066987105
1688152513862383,-0.030945296406500233,0.0109254596780346,1.0290074006256198
1688152513878367,-0.03070115205615309,0.012512397955291021,1.0282749675745784
1688152513894352,-0.03411917296101308,0.01495384145876244,1.028641184100099
1688152513910336,-0.034851606012054503,0.015686274509803866,1.0270542458228427
1688152513926321,-0.03070115205615309,0.011535820553902454,1.0291294728007934
1688152513942305,-0.03204394598306237,0.010681315327687457,1.028397039749752
1688152513958290,-0.034851606012054503,0.012756542305638163,1.0274204623483634
1688152513974274,-0.03424124513618665,0.014343480582894585,1.0270542458228427
1688152513990259,-0.0327763790341038,0.010681315327687457,1.0276646066987105
1688152514006243,-0.03057907988097952,0.011169604028381741,1.032059205004959
1688152514022228,-0.03350881208514522,0.01361104753185316,1.031204699778744
1688152514038212,-0.03338673990997165,0.015197985809109582,1.0264438849469748
1688152514054197,-0.032410162508583085,0.01226825360494388,1.0272983901731898
1688152514070181,-0.030945296406500233,0.01239032578011745,1.026932173647669
1688152514086166,-0.030212863355458808,0.01373311970702673,1.029495689326314
1688152514102151,-0.03411917296101308,0.01239032578011745,1.025833524071107
1688152514118135,-0.030212863355458808,0.011902037079423167,1.0265659571221484
1688152514134120,-0.031311512932020946,0.010193026626993174,1.0270542458228427
1688152514150055,-0.03338673990997165,0.013977264057373873,1.025223163195239
1688152514166039,-0.03558403906309593,0.015442130159456724,1.0265659571221484
1688152514182023,-0.033752956435492365,0.013122758831158876,1.0254673075455862
1688152514198007,-0.03155565728236809,0.01239032578011745,1.0314488441290912
1688152514213991,-0.03216601815823594,0.012756542305638163,1.0296177615014876
1688152514229975,-0.03350881208514522,0.015075913633936011,1.0274204623483634
1688152514245959,-0.030090791180285237,0.012024109254596738,1.0299839780270084
1688152514261943,-0.028381780727855244,0.010437170977340315,1.0287632562752727
1688152514277927,-0.03338673990997165,0.011657892729076025,1.030350194552529
1688152514293911,-0.03472953383688093,0.014709697108415298,1.0271763179980162
1688152514309895,-0.031311512932020946,0.012146181429770309,1.028641184100099
1688152514325879,-0.03057907988097952,0.010437170977340315,1.028397039749752
1688152514341863,-0.03302052338445094,0.013000686655985305,1.0288853284504462
1688152514357847,-0.03472953383688093,0.015197985809109582,1.0227817196917677
1688152514373831,-0.03204394598306237,0.011169604028381741,1.026932173647669
1688152514389815,-0.03057907988097952,0.010437170977340315,1.0323033493553062
1688152514405799,-0.033630884260318794,0.014465552758068156,1.0302281223773555
1688152514421784,-0.03411917296101308,0.014099336232547444,1.028641184100099
1688152514437768,-0.0319218738078888,0.011902037079423167,1.0293736171511405
1688152514453752,-0.03033493553063238,0.01226825360494388,1.0297398336766612
1688152514469635,-0.0327763790341038,0.013122758831158876,1.030350194552529
1688152514485618,-0.03558403906309593,0.015686274509803866,1.027542534523537
1688152514501602,-0.03350881208514522,0.012878614480811734,1.028641184100099
1688152514517585,-0.031189440756847375,0.0109254596780346,1.0319371328297855
1688152514533569,-0.0327763790341038,0.011535820553902454,1.0321812771801326
1688152514549553,-0.032532234683756656,0.01495384145876244,1.028397039749752
1688152514565536,-0.03070115205615309,0.013366903181506018,1.0261997405966277
1688152514581520,-0.029968719005111666,0.009216449225604606,1.0287632562752727
1688152514597503,-0.03338673990997165,0.012512397955291021,1.0280308232242312
1688152514613487,-0.0357061112382695,0.015442130159456724,1.0263218127718012
1688152514629470,-0.033630884260318794,0.012634470130464592,1.0251010910200655
1688152514645454,-0.03155565728236809,0.010803387502861028,1.0321812771801326
1688152514661438,-0.033630884260318794,0.013244831006332447,1.0310826276035705
1688152514677421,-0.03424124513618665,0.015930418860151008,1.028641184100099
1688152514693405,-0.032410162508583085,0.013122758831158876,1.028397039749752
1688152514709388,-0.029724574654764524,0.0109254596780346,1.0313267719539176
1688152514725372,-0.03143358510719452,0.013488975356679589,1.029495689326314
1688152514741356,-0.03265430685893023,0.014099336232547444,1.0253452353704127
1688152514757339,-0.03302052338445094,0.011902037079423167,1.026077668421454
1688152514773323,-0.030090791180285237,0.010315098802166744,1.031204699778744
1688152514789245,-0.03155565728236809,0.013855191882200302,1.030350194552529
1688152514805229,-0.033752956435492365,0.01483176928358887,1.0268101014724955
1688152514821212,-0.03204394598306237,0.01361104753185316,1.0288853284504462
1688152514837196,-0.030945296406500233,0.01104753185320817,1.032669565880827
1688152514853180,-0.032288090333409514,0.013366903181506018,1.0325474937056534
1688152514869163,-0.03436331731136022,0.015686274509803866,1.0290074006256198
1688152514885147,-0.032532234683756656,0.01373311970702673,1.0268101014724955
1688152514901130,-0.03167772945754166,0.011169604028381741,1.0325474937056534
1688152514917114,-0.03057907988097952,0.012756542305638163,1.0305943389028762
1688152514933097,-0.033752956435492365,0.015075913633936011,1.026688029297322
1688152514949081,-0.033752956435492365,0.015320057984283153,1.0282749675745784
1688152514965065,-0.030945296406500233,0.010803387502861028,1.029495689326314
1688152514981048,-0.03204394598306237,0.011657892729076025,1.0298619058518348
1688152514997032,-0.03436331731136022,0.015686274509803866,1.0251010910200655
1688152515013015,-0.03350881208514522,0.013122758831158876,1.0263218127718012
1688152515028999,-0.029968719005111666,0.010437170977340315,1.030350194552529
1688152515044983,-0.029602502479590953,0.01239032578011745,1.031815060654612
1688152515060966,-0.035217822537575216,0.014465552758068156,1.024979018844892
1688152515076950,-0.034851606012054503,0.013000686655985305,1.0268101014724955
1688152515092933,-0.03216601815823594,0.009460593575951748,1.0307164110780498
1688152515108856,-0.0327763790341038,0.01226825360494388,1.0287632562752727
1688152515124839,-0.034851606012054503,0.013855191882200302,1.028397039749752
1688152515140822,-0.03411917296101308,0.015564202334630295,1.0263218127718012
1688152515156805,-0.02935835812924381,0.010559243152513886,1.0327916380560005
1688152515172788,-0.03070115205615309,0.01226825360494388,1.0327916380560005
1688152515188771,-0.03155565728236809,0.015564202334630295,1.029251544975967
1688152515204754,-0.033752956435492365,0.012512397955291021,1.0271763179980162
1688152515220738,-0.030090791180285237,0.013000686655985305,1.0310826276035705
1688152515236721,-0.03070115205615309,0.009948882276646032,1.0297398336766612
1688152515252704,-0.03314259555962451,0.01483176928358887,1.0265659571221484
1688152515268687,-0.03265430685893023,0.01373311970702673,1.0298619058518348
1688152515284670,-0.032532234683756656,0.012512397955291021,1.0287632562752727
1688152515300653,-0.031067368581673804,0.012512397955291021,1.0291294728007934
1688152515316636,-0.03424124513618665,0.013000686655985305,1.0305943389028762
1688152515332619,-0.0319218738078888,0.013855191882200302,1.0270542458228427
1688152515348602,-0.030090791180285237,0.011657892729076025,1.030350194552529
1688152515364586,-0.030945296406500233,0.010070954451819603,1.0296177615014876
1688152515380569,-0.03314259555962451,0.014343480582894585,1.0307164110780498
1688152515396552,-0.03448538948653379,0.015442130159456724,1.029251544975967
1688152515412535,-0.030945296406500233,0.011657892729076025,1.027786678873884
1688152515428466,-0.030212863355458808,0.011535820553902454,1.028397039749752
1688152515444450,-0.03424124513618665,0.015197985809109582,1.0282749675745784
1688152515460433,-0.03399710078583951,0.014587624933241727,1.028397039749752
1688152515476416,-0.03216601815823594,0.011779964904249596,1.0272983901731898
1688152515492399,-0.029968719005111666,0.01226825360494388,1.0324254215304798
1688152515508382,-0.03338673990997165,0.015320057984283153,1.0271763179980162
1688152515524365,-0.03179980163271523,0.015075913633936011,1.0264438849469748
1688152515540348,-0.033630884260318794,0.011902037079423167,1.0304722667277026
1688152515556331,-0.03057907988097952,0.010803387502861028,1.030960555428397
1688152515572314,-0.03326466773479808,0.014221408407721015,1.0285191119249255
1688152515588297,-0.033875028610665936,0.013122758831158876,1.0285191119249255
1688152515604281,-0.03070115205615309,0.0109254596780346,1.0304722667277026
1688152515620264,-0.028870069428549527,0.012024109254596738,1.0291294728007934
1688152515636247,-0.03411917296101308,0.013122758831158876,1.0237582970931562
1688152515652230,-0.03472953383688093,0.013488975356679589,1.0254673075455862
1688152515668213,-0.032532234683756656,0.011413748378728883,1.0274204623483634
1688152515684196,-0.030945296406500233,0.01104753185320817,1.030960555428397
1688152515700179,-0.033875028610665936,0.014221408407721015,1.030106050202182
1688152515716162,-0.03448538948653379,0.01483176928358887,1.0291294728007934
1688152515732145,-0.03155565728236809,0.011902037079423167,1.0298619058518348
1688152515748077,-0.03155565728236809,0.011169604028381741,1.030106050202182
1688152515764060,-0.03289845120927737,0.013000686655985305,1.0280308232242312
1688152515780042,-0.03326466773479808,0.01239032578011745,1.0271763179980162
1688152515796025,-0.03033493553063238,0.01239032578011745,1.029251544975967
1688152515812008,-0.03045700770580595,0.011779964904249596,1.0310826276035705
1688152515827990,-0.03302052338445094,0.014099336232547444,1.0282749675745784
1688152515843973,-0.03289845120927737,0.01483176928358887,1.0282749675745784
1688152515859955,-0.032532234683756656,0.012146181429770309,1.030106050202182
1688152515875938,-0.031189440756847375,0.01226825360494388,1.0330357824063476
1688152515891921,-0.032532234683756656,0.013855191882200302,1.0281528953994048
1688152515907903,-0.03326466773479808,0.015442130159456724,1.026077668421454
1688152515923886,-0.029968719005111666,0.01239032578011745,1.0298619058518348
1688152515939869,-0.030823224231326662,0.00982681010147246,1.0304722667277026
1688152515955851,-0.03265430685893023,0.014221408407721015,1.0287632562752727
1688152515971834,-0.03533989471274879,0.014465552758068156,1.0280308232242312
1688152515987816,-0.03143358510719452,0.013244831006332447,1.0276646066987105
1688152516003799,-0.0289921416037231,0.01104753185320817,1.0298619058518348
1688152516019782,-0.03314259555962451,0.012878614480811734,1.0304722667277026
1688152516035764,-0.03338673990997165,0.014343480582894585,1.0270542458228427
1688152516051747,-0.03265430685893023,0.011169604028381741,1.027542534523537
1688152516067718,-0.030945296406500233,0.011535820553902454,1.030960555428397
1688152516083701,-0.03265430685893023,0.013977264057373873,1.029251544975967
1688152516099683,-0.03326466773479808,0.014465552758068156,1.0291294728007934
1688152516115666,-0.03265430685893023,0.012756542305638163,1.0307164110780498
1688152516131649,-0.030212863355458808,0.010315098802166744,1.0291294728007934
1688152516147631,-0.031311512932020946,0.01361104753185316,1.0276646066987105
1688152516163614,-0.03436331731136022,0.015442130159456724,1.0259555962462805
1688152516179597,-0.03216601815823594,0.012756542305638163,1.028397039749752
1688152516195579,-0.029724574654764524,0.011779964904249596,1.0304722667277026
1688152516211562,-0.03338673990997165,0.013122758831158876,1.0296177615014876
1688152516227544,-0.034851606012054503,0.015442130159456724,1.0285191119249255
1688152516243527,-0.031311512932020946,0.01361104753185316,1.0302281223773555
1688152516259510,-0.029480430304417382,0.010681315327687457,1.0305943389028762
1688152516275492,-0.03302052338445094,0.014343480582894585,1.031204699778744
1688152516291475,-0.03411917296101308,0.013855191882200302,1.0253452353704127
1688152516307458,-0.0327763790341038,0.011779964904249596,1.026688029297322
1688152516323440,-0.03070115205615309,0.011169604028381741,1.0321812771801326
1688152516339423,-0.03289845120927737,0.013488975356679589,1.029495689326314
1688152516355405,-0.03424124513618665,0.01617456321049815,1.027542534523537
1688152516371388,-0.032288090333409514,0.014343480582894585,1.0279087510490577
1688152516387329,-0.03179980163271523,0.010559243152513886,1.0299839780270084
1688152516403311,-0.03216601815823594,0.013000686655985305,1.0293736171511405
1688152516419294,-0.03350881208514522,0.015075913633936011,1.028641184100099
1688152516435277,-0.03302052338445094,0.013244831006332447,1.028397039749752
1688152516451259,-0.03070115205615309,0.009216449225604606,1.0308384832532234
1688152516467242,-0.03216601815823594,0.013122758831158876,1.0319371328297855
1688152516483224,-0.03399710078583951,0.015564202334630295,1.0287632562752727
1688152516499207,-0.03350881208514522,0.013855191882200302,1.0291294728007934
1688152516515190,-0.029968719005111666,0.010437170977340315,1.0315709163042648
1688152516531172,-0.033630884260318794,0.012756542305638163,1.0296177615014876
1688152516547155,-0.03533989471274879,0.016662851911192433,1.0276646066987105
1688152516563138,-0.032532234683756656,0.01226825360494388,1.0287632562752727
1688152516579120,-0.03057907988097952,0.00970473792629889,1.0293736171511405
1688152516595103,-0.032288090333409514,0.011902037079423167,1.030960555428397
1688152516611086,-0.0357061112382695,0.014709697108415298,1.0302281223773555
1688152516627068,-0.03289845120927737,0.01226825360494388,1.030350194552529
1688152516643051,-0.030212863355458808,0.011291676203555312,1.0308384832532234
1688152516659033,-0.03167772945754166,0.011291676203555312,1.028397039749752
1688152516675016,-0.03533989471274879,0.015442130159456724,1.0272983901731898
1688152516690999,-0.03314259555962451,0.013122758831158876,1.025833524071107
1688152516706939,-0.02935835812924381,0.009948882276646032,1.0302281223773555
1688152516722921,-0.032532234683756656,0.011413748378728883,1.031815060654612
1688152516738904,-0.03546196688792236,0.01641870756084529,1.0263218127718012
1688152516754886,-0.033752956435492365,0.014343480582894585,1.0282749675745784
1688152516770868,-0.030212863355458808,0.011291676203555312,1.0288853284504462
1688152516786850,-0.03057907988097952,0.01226825360494388,1.0319371328297855
1688152516802832,-0.03436331731136022,0.015442130159456724,1.0272983901731898
1688152516818814,-0.033752956435492365,0.015320057984283153,1.0297398336766612
1688152516834797,-0.031311512932020946,0.010315098802166744,1.0314488441290912
1688152516850779,-0.029968719005111666,0.012146181429770309,1.032913710231174
1688152516866761,-0.034973678187228074,0.01483176928358887,1.0279087510490577
1688152516882743,-0.03411917296101308,0.015442130159456724,1.0268101014724955
1688152516898725,-0.032410162508583085,0.00982681010147246,1.0297398336766612
1688152516914707,-0.031189440756847375,0.009216449225604606,1.028641184100099
1688152516930689,-0.03460746166170736,0.014221408407721015,1.0268101014724955
1688152516946672,-0.03338673990997165,0.014709697108415298,1.0263218127718012
1688152516962654,-0.031189440756847375,0.010437170977340315,1.0293736171511405
1688152516978636,-0.03155565728236809,0.010803387502861028,1.031204699778744
1688152516994618,-0.033630884260318794,0.013855191882200302,1.0288853284504462
1688152517010600,-0.035095750362401645,0.013855191882200302,1.0282749675745784
1688152517026519,-0.031189440756847375,0.010681315327687457,1.029251544975967
1688152517042502,-0.031311512932020946,0.012024109254596738,1.033768215457389
1688152517058484,-0.03411917296101308,0.015442130159456724,1.0293736171511405
1688152517074466,-0.0327763790341038,0.01617456321049815,1.025223163195239
1688152517090448,-0.0319218738078888,0.0109254596780346,1.0293736171511405
1688152517106430,-0.03057907988097952,0.010070954451819603,1.0304722667277026
1688152517122412,-0.034973678187228074,0.014587624933241727,1.0270542458228427
1688152517138394,-0.033752956435492365,0.01483176928358887,1.0244907301441977
1688152517154377,-0.03167772945754166,0.010803387502861028,1.0293736171511405
1688152517170359,-0.031311512932020946,0.010803387502861028,1.0332799267566948
1688152517186341,-0.033875028610665936,0.013855191882200302,1.0281528953994048
1688152517202323,-0.03472953383688093,0.015564202334630295,1.0290074006256198
1688152517218305,-0.03070115205615309,0.010437170977340315,1.0308384832532234
1688152517234287,-0.02935835812924381,0.008606088349736751,1.0332799267566948
1688152517250270,-0.03326466773479808,0.014709697108415298,1.0282749675745784
1688152517266252,-0.03411917296101308,0.016540779736018862,1.0279087510490577
1688152517282234,-0.029846646829938095,0.011535820553902454,1.0298619058518348
1688152517298216,-0.030090791180285237,0.010681315327687457,1.0327916380560005
1688152517314198,-0.033875028610665936,0.014587624933241727,1.029495689326314
1688152517330180,-0.03448538948653379,0.015442130159456724,1.0279087510490577
1688152517346130,-0.031311512932020946,0.011535820553902454,1.0279087510490577
1688152517362112,-0.031067368581673804,0.011779964904249596,1.0288853284504462
1688152517378094,-0.03289845120927737,0.015197985809109582,1.0291294728007934
1688152517394076,-0.035095750362401645,0.015075913633936011,1.0280308232242312
1688152517410059,-0.03265430685893023,0.011413748378728883,1.0272983901731898
1688152517426041,-0.03033493553063238,0.011535820553902454,1.0302281223773555
1688152517442023,-0.031189440756847375,0.01483176928358887,1.027542534523537
1688152517458005,-0.03448538948653379,0.01629663538567172,1.026688029297322
1688152517473987,-0.031311512932020946,0.012878614480811734,1.0268101014724955
1688152517489969,-0.02911421377889667,0.010681315327687457,1.032913710231174
1688152517505952,-0.032410162508583085,0.013488975356679589,1.028397039749752
1688152517521934,-0.03350881208514522,0.013977264057373873,1.0248569466697184
1688152517537916,-0.03338673990997165,0.012024109254596738,1.0265659571221484
1688152517553898,-0.031311512932020946,0.011291676203555312,1.0323033493553062
1688152517569880,-0.032410162508583085,0.014709697108415298,1.0290074006256198
1688152517585862,-0.03424124513618665,0.013488975356679589,1.0280308232242312
1688152517601844,-0.03057907988097952,0.013366903181506018,1.0282749675745784
1688152517617827,-0.03070115205615309,0.011413748378728883,1.0308384832532234
1688152517633809,-0.032288090333409514,0.013855191882200302,1.0296177615014876
1688152517649791,-0.03399710078583951,0.01483176928358887,1.0276646066987105
1688152517665741,-0.03143358510719452,0.011902037079423167,1.0272983901731898
1688152517681722,-0.03155565728236809,0.010559243152513886,1.031204699778744
1688152517697704,-0.031311512932020946,0.01361104753185316,1.028641184100099
1688152517713686,-0.03265430685893023,0.015930418860151008,1.0293736171511405
1688152517729667,-0.031311512932020946,0.012146181429770309,1.0272983901731898
1688152517745649,-0.031189440756847375,0.010559243152513886,1.027786678873884
1688152517761631,-0.03314259555962451,0.013855191882200302,1.0268101014724955
1688152517777612,-0.03546196688792236,0.01495384145876244,1.0268101014724955
1688152517793594,-0.03314259555962451,0.013000686655985305,1.030960555428397
1688152517809576,-0.029724574654764524,0.011535820553902454,1.032059205004959
1688152517825557,-0.03265430685893023,0.013122758831158876,1.032669565880827
1688152517841539,-0.03326466773479808,0.013244831006332447,1.0272983901731898
1688152517857521,-0.0319218738078888,0.01104753185320817,1.0290074006256198
1688152517873502,-0.029602502479590953,0.009582665751125319,1.0316929884794384
1688152517889484,-0.033752956435492365,0.014099336232547444,1.0291294728007934
1688152517905466,-0.03448538948653379,0.01483176928358887,1.0274204623483634
1688152517921447,-0.0327763790341038,0.014221408407721015,1.026077668421454
1688152517937429,-0.03045700770580595,0.0109254596780346,1.0334019989318683
1688152517953411,-0.032532234683756656,0.013000686655985305,1.028397039749752
1688152517969392,-0.033752956435492365,0.015320057984283153,1.0302281223773555
1688152517985351,-0.03424124513618665,0.012512397955291021,1.030350194552529
1688152518001333,-0.03057907988097952,0.011535820553902454,1.0325474937056534
1688152518017315,-0.03289845120927737,0.011413748378728883,1.033524071107042
1688152518033296,-0.03302052338445094,0.014587624933241727,1.0291294728007934
1688152518049278,-0.032288090333409514,0.014343480582894585,1.0279087510490577
1688152518065260,-0.029480430304417382,0.009582665751125319,1.0330357824063476
1688152518081241,-0.033630884260318794,0.013488975356679589,1.0308384832532234
1688152518097223,-0.03546196688792236,0.013855191882200302,1.0274204623483634
1688152518113205,-0.03204394598306237,0.015442130159456724,1.0272983901731898
1688152518129186,-0.029968719005111666,0.009582665751125319,1.0315709163042648
1688152518145168,-0.030945296406500233,0.011779964904249596,1.0334019989318683
1688152518161150,-0.03546196688792236,0.014709697108415298,1.0291294728007934
1688152518177131,-0.033630884260318794,0.012756542305638163,1.0287632562752727
1688152518193113,-0.030090791180285237,0.009216449225604606,1.0321812771801326
1688152518209095,-0.030945296406500233,0.011657892729076025,1.0290074006256198
1688152518225076,-0.03607232776379021,0.014587624933241727,1.0274204623483634
1688152518241058,-0.0327763790341038,0.013366903181506018,1.026932173647669
1688152518257040,-0.03179980163271523,0.0109254596780346,1.0298619058518348
1688152518273021,-0.032410162508583085,0.012512397955291021,1.0325474937056534
1688152518289003,-0.03411917296101308,0.014587624933241727,1.0291294728007934
1688152518304962,-0.033630884260318794,0.013244831006332447,1.026077668421454
1688152518320943,-0.0319218738078888,0.010803387502861028,1.0291294728007934
1688152518336925,-0.03302052338445094,0.011902037079423167,1.0296177615014876
1688152518352907,-0.0357061112382695,0.014587624933241727,1.0298619058518348
1688152518368888,-0.03326466773479808,0.013122758831158876,1.0279087510490577
1688152518384870,-0.030212863355458808,0.012512397955291021,1.0290074006256198
1688152518400852,-0.032288090333409514,0.011779964904249596,1.0302281223773555
1688152518416834,-0.03424124513618665,0.01483176928358887,1.0297398336766612
1688152518432815,-0.033875028610665936,0.014465552758068156,1.0299839780270084
1688152518448797,-0.03045700770580595,0.010559243152513886,1.0315709163042648
1688152518464779,-0.031311512932020946,0.01239032578011745,1.0340123598077362
1688152518480760,-0.035095750362401645,0.014709697108415298,1.0282749675745784
1688152518496742,-0.03326466773479808,0.014465552758068156,1.0263218127718012
1688152518512724,-0.030945296406500233,0.010559243152513886,1.028641184100099
1688152518528705,-0.030212863355458808,0.012634470130464592,1.0293736171511405
1688152518544687,-0.03411917296101308,0.014709697108415298,1.030350194552529
1688152518560669,-0.03399710078583951,0.01361104753185316,1.0282749675745784
1688152518576650,-0.030090791180285237,0.010559243152513886,1.0287632562752727
1688152518592632,-0.029480430304417382,0.011902037079423167,1.031204699778744
1688152518608614,-0.03302052338445094,0.013366903181506018,1.0290074006256198
1688152518624542,-0.033630884260318794,0.01361104753185316,1.0259555962462805
1688152518640524,-0.030212863355458808,0.010803387502861028,1.028397039749752
1688152518656505,-0.03216601815823594,0.011779964904249596,1.0302281223773555
1688152518672487,-0.033630884260318794,0.01373311970702673,1.0288853284504462
1688152518688469,-0.033630884260318794,0.014221408407721015,1.0268101014724955
1688152518704450,-0.03045700770580595,0.010681315327687457,1.027542534523537
1688152518720432,-0.03070115205615309,0.011902037079423167,1.0308384832532234
1688152518736414,-0.0327763790341038,0.014709697108415298,1.028397039749752
1688152518752395,-0.03265430685893023,0.013366903181506018,1.027542534523537
1688152518768377,-0.030945296406500233,0.011413748378728883,1.0302281223773555
1688152518784359,-0.03216601815823594,0.011535820553902454,1.030960555428397
1688152518800340,-0.035095750362401645,0.015686274509803866,1.0279087510490577
1688152518816322,-0.0327763790341038,0.013855191882200302,1.0299839780270084
1688152518832304,-0.031311512932020946,0.010803387502861028,1.0290074006256198
1688152518848285,-0.03216601815823594,0.011291676203555312,1.0297398336766612
1688152518864267,-0.03167772945754166,0.013977264057373873,1.0302281223773555
1688152518880249,-0.03314259555962451,0.013000686655985305,1.025833524071107
1688152518896230,-0.030823224231326662,0.010315098802166744,1.0276646066987105
1688152518912212,-0.03179980163271523,0.010681315327687457,1.0281528953994048
1688152518928194,-0.03411917296101308,0.014587624933241727,1.0254673075455862
1688152518944152,-0.03460746166170736,0.01373311970702673,1.0248569466697184
1688152518960134,-0.031189440756847375,0.012756542305638163,1.0282749675745784
1688152518976115,-0.029846646829938095,0.011535820553902454,1.0293736171511405
1688152518992096,-0.033875028610665936,0.014099336232547444,1.0272983901731898
1688152519008077,-0.03472953383688093,0.014099336232547444,1.0299839780270084
1688152519024058,-0.03216601815823594,0.010315098802166744,1.0302281223773555
1688152519040040,-0.03057907988097952,0.010315098802166744,1.0348668650339512
1688152519056021,-0.03350881208514522,0.013488975356679589,1.0297398336766612
1688152519072002,-0.03448538948653379,0.013000686655985305,1.026077668421454
1688152519087983,-0.03314259555962451,0.010681315327687457,1.026932173647669
1688152519103964,-0.029724574654764524,0.011413748378728883,1.0330357824063476
1688152519119946,-0.03302052338445094,0.015808346684977437,1.0285191119249255
1688152519135927,-0.03436331731136022,0.014099336232547444,1.0270542458228427
1688152519151908,-0.032410162508583085,0.010681315327687457,1.0291294728007934
1688152519167889,-0.03155565728236809,0.011779964904249596,1.032059205004959
1688152519183870,-0.03216601815823594,0.013488975356679589,1.0288853284504462
1688152519199852,-0.033752956435492365,0.015930418860151008,1.028397039749752
1688152519215833,-0.032288090333409514,0.012634470130464592,1.0291294728007934
1688152519231814,-0.031311512932020946,0.011535820553902454,1.0293736171511405
1688152519247795,-0.03265430685893023,0.01226825360494388,1.029251544975967
1688152519263763,-0.034973678187228074,0.01483176928358887,1.0253452353704127
1688152519279744,-0.030823224231326662,0.011535820553902454,1.0276646066987105
1688152519295725,-0.029480430304417382,0.011291676203555312,1.0305943389028762
1688152519311707,-0.032410162508583085,0.014465552758068156,1.026077668421454
1688152519327688,-0.03411917296101308,0.014221408407721015,1.024979018844892
1688152519343669,-0.03143358510719452,0.011413748378728883,1.0288853284504462
1688152519359650,-0.029480430304417382,0.0109254596780346,1.032669565880827
1688152519375631,-0.03167772945754166,0.01373311970702673,1.029495689326314
1688152519391613,-0.03399710078583951,0.015075913633936011,1.024368657969024
1688152519407594,-0.03204394598306237,0.01104753185320817,1.0265659571221484
1688152519423575,-0.03143358510719452,0.009582665751125319,1.0315709163042648
1688152519439556,-0.03204394598306237,0.011902037079423167,1.026077668421454
1688152519455537,-0.031067368581673804,0.016540779736018862,1.0257114518959334
1688152519471519,-0.029480430304417382,0.011657892729076025,1.0298619058518348
1688152519487500,-0.03045700770580595,0.01104753185320817,1.0316929884794384
1688152519503481,-0.03167772945754166,0.012756542305638163,1.0307164110780498
1688152519519462,-0.033630884260318794,0.013855191882200302,1.0272983901731898
1688152519535443,-0.03265430685893023,0.01239032578011745,1.0302281223773555
1688152519551425,-0.03045700770580595,0.009948882276646032,1.0310826276035705
1688152519567406,-0.032532234683756656,0.01226825360494388,1.0279087510490577
1688152519583404,-0.033630884260318794,0.01629663538567172,1.0282749675745784
1688152519599385,-0.03350881208514522,0.01239032578011745,1.0285191119249255
1688152519615367,-0.030090791180285237,0.012024109254596738,1.0305943389028762
1688152519631348,-0.03289845120927737,0.013366903181506018,1.0308384832532234
1688152519647329,-0.0357061112382695,0.015808346684977437,1.0291294728007934
1688152519663310,-0.03289845120927737,0.01239032578011745,1.0274204623483634
1688152519679291,-0.031189440756847375,0.010559243152513886,1.0325474937056534
1688152519695273,-0.03265430685893023,0.011902037079423167,1.0316929884794384
1688152519711254,-0.03424124513618665,0.015808346684977437,1.0279087510490577
1688152519727235,-0.03216601815823594,0.012024109254596738,1.0274204623483634
1688152519743216,-0.03057907988097952,0.011779964904249596,1.0297398336766612
1688152519759197,-0.03143358510719452,0.013000686655985305,1.0307164110780498
1688152519775179,-0.03448538948653379,0.014465552758068156,1.0268101014724955
1688152519791160,-0.03155565728236809,0.013977264057373873,1.0279087510490577
1688152519807141,-0.030090791180285237,0.0109254596780346,1.0314488441290912
1688152519823122,-0.03350881208514522,0.011902037079423167,1.0268101014724955
1688152519839103,-0.035217822537575216,0.014709697108415298,1.0293736171511405
1688152519855085,-0.03057907988097952,0.012634470130464592,1.0291294728007934
1688152519871066,-0.029846646829938095,0.010193026626993174,1.029251544975967
1688152519887047,-0.0319218738078888,0.012146181429770309,1.0299839780270084
1688152519902984,-0.03424124513618665,0.014221408407721015,1.026077668421454
1688152519918965,-0.03399710078583951,0.012878614480811734,1.0268101014724955
1688152519934947,-0.031067368581673804,0.010803387502861028,1.0327916380560005
1688152519950928,-0.03070115205615309,0.011535820553902454,1.030106050202182
1688152519966909,-0.032410162508583085,0.01483176928358887,1.0298619058518348
1688152519982890,-0.033752956435492365,0.014465552758068156,1.0282749675745784
1688152519998871,-0.032532234683756656,0.010193026626993174,1.0296177615014876
1688152520014853,-0.03155565728236809,0.011291676203555312,1.0291294728007934
1688152520030834,-0.033630884260318794,0.013122758831158876,1.0287632562752727
1688152520046815,-0.03045700770580595,0.014465552758068156,1.0261997405966277
1688152520062796,-0.02935835812924381,0.009338521400778177,1.0308384832532234
1688152520078777,-0.033875028610665936,0.011169604028381741,1.0298619058518348
1688152520094759,-0.035217822537575216,0.01373311970702673,1.0272983901731898
1688152520110740,-0.0327763790341038,0.01373311970702673,1.0248569466697184
1688152520126721,-0.03033493553063238,0.011779964904249596,1.026688029297322
1688152520142702,-0.032410162508583085,0.011291676203555312,1.0305943389028762
1688152520158683,-0.03546196688792236,0.01605249103532458,1.0244907301441977
1688152520174665,-0.03411917296101308,0.01361104753185316,1.026932173647669
1688152520190646,-0.03057907988097952,0.011291676203555312,1.028397039749752
1688152520206627,-0.031067368581673804,0.011291676203555312,1.0327916380560005
1688152520222625,-0.03302052338445094,0.013855191882200302,1.0299839780270084
1688152520238607,-0.03350881208514522,0.014587624933241727,1.0261997405966277
1688152520254588,-0.031311512932020946,0.009582665751125319,1.031204699778744
1688152520270569,-0.030945296406500233,0.010193026626993174,1.028397039749752
1688152520286550,-0.033630884260318794,0.015564202334630295,1.0298619058518348
1688152520302531,-0.03326466773479808,0.014709697108415298,1.0272983901731898
1688152520318513,-0.03167772945754166,0.012634470130464592,1.032059205004959
1688152520334494,-0.029968719005111666,0.013000686655985305,1.0307164110780498
1688152520350475,-0.03448538948653379,0.013855191882200302,1.029495689326314
1688152520366456,-0.03350881208514522,0.012756542305638163,1.0263218127718012
1688152520382437,-0.0319218738078888,0.011291676203555312,1.027542534523537
1688152520398419,-0.03204394598306237,0.01104753185320817,1.030106050202182
1688152520414400,-0.03436331731136022,0.01495384145876244,1.0287632562752727
1688152520430381,-0.03424124513618665,0.014099336232547444,1.0304722667277026
1688152520446362,-0.03033493553063238,0.011169604028381741,1.0282749675745784
1688152520462343,-0.03143358510719452,0.011169604028381741,1.0307164110780498
1688152520478325,-0.03289845120927737,0.013000686655985305,1.0265659571221484
1688152520494306,-0.03350881208514522,0.012878614480811734,1.0272983901731898
1688152520510287,-0.0319218738078888,0.010437170977340315,1.0282749675745784
1688152520526268,-0.03057907988097952,0.011169604028381741,1.0282749675745784
1688152520542236,-0.03216601815823594,0.01373311970702673,1.0279087510490577
1688152520558217,-0.033630884260318794,0.013977264057373873,1.0255893797207598
1688152520574198,-0.030945296406500233,0.01104753185320817,1.0299839780270084
1688152520590180,-0.02935835812924381,0.011535820553902454,1.0307164110780498
1688152520606161,-0.03399710078583951,0.014343480582894585,1.0290074006256198
1688152520622142,-0.03302052338445094,0.014465552758068156,1.0290074006256198
1688152520638123,-0.031311512932020946,0.011169604028381741,1.030106050202182
1688152520654104,-0.029846646829938095,0.010070954451819603,1.0281528953994048
1688152520670086,-0.03289845120927737,0.013977264057373873,1.028397039749752
1688152520686067,-0.0327763790341038,0.012878614480811734,1.026932173647669
1688152520702048,-0.030823224231326662,0.012512397955291021,1.0291294728007934
1688152520718029,-0.030945296406500233,0.010437170977340315,1.0304722667277026
1688152520734010,-0.033752956435492365,0.012146181429770309,1.0285191119249255
1688152520749992,-0.03265430685893023,0.015320057984283153,1.0270542458228427
1688152520765973,-0.03143358510719452,0.011902037079423167,1.0271763179980162
1688152520781954,-0.030212863355458808,0.0109254596780346,1.030106050202182
1688152520797935,-0.03155565728236809,0.014221408407721015,1.0288853284504462
1688152520813916,-0.03424124513618665,0.015564202334630295,1.027542534523537
1688152520829898,-0.03070115205615309,0.011779964904249596,1.0280308232242312
1688152520845879,-0.03045700770580595,0.010681315327687457,1.030106050202182
1688152520861847,-0.03338673990997165,0.012146181429770309,1.0291294728007934
1688152520877828,-0.03411917296101308,0.014587624933241727,1.0265659571221484
1688152520893809,-0.03143358510719452,0.01226825360494388,1.027786678873884
1688152520909790,-0.02935835812924381,0.011169604028381741,1.0307164110780498
1688152520925771,-0.03179980163271523,0.013000686655985305,1.0293736171511405
1688152520941753,-0.033752956435492365,0.013488975356679589,1.0282749675745784
1688152520957734,-0.031311512932020946,0.013366903181506018,1.0259555962462805
1688152520973715,-0.03045700770580595,0.0109254596780346,1.0304722667277026
1688152520989696,-0.032410162508583085,0.012634470130464592,1.0290074006256198
1688152521005677,-0.03595025558861664,0.014465552758068156,1.0271763179980162
1688152521021659,-0.03216601815823594,0.013855191882200302,1.026077668421454
1688152521037640,-0.030823224231326662,0.00982681010147246,1.028397039749752
1688152521053621,-0.03424124513618665,0.013000686655985305,1.0308384832532234
1688152521069602,-0.03436331731136022,0.014343480582894585,1.0282749675745784
1688152521085583,-0.03167772945754166,0.011657892729076025,1.030106050202182
1688152521101565,-0.030945296406500233,0.010681315327687457,1.0307164110780498
1688152521117546,-0.03314259555962451,0.013244831006332447,1.0298619058518348
1688152521133527,-0.034973678187228074,0.014709697108415298,1.0271763179980162
1688152521149508,-0.029480430304417382,0.011291676203555312,1.0279087510490577
1688152521165489,-0.03045700770580595,0.009582665751125319,1.029495689326314
1688152521181427,-0.0327763790341038,0.012512397955291021,1.030106050202182
1688152521197407,-0.03399710078583951,0.014343480582894585,1.0291294728007934
1688152521213388,-0.03216601815823594,0.012024109254596738,1.0272983901731898
1688152521229369,-0.02935835812924381,0.011902037079423167,1.0293736171511405
1688152521245350,-0.03289845120927737,0.013244831006332447,1.0293736171511405
1688152521261330,-0.03460746166170736,0.014587624933241727,1.0270542458228427
1688152521277311,-0.03326466773479808,0.011779964904249596,1.0274204623483634
1688152521293292,-0.03070115205615309,0.010803387502861028,1.0310826276035705
1688152521309272,-0.03155565728236809,0.01226825360494388,1.0296177615014876
1688152521325253,-0.03436331731136022,0.01483176928358887,1.0263218127718012
1688152521341234,-0.033875028610665936,0.013855191882200302,1.0304722667277026
1688152521357215,-0.03033493553063238,0.010681315327687457,1.0297398336766612
1688152521373195,-0.03289845120927737,0.01373311970702673,1.029251544975967
1688152521389176,-0.03472953383688093,0.015320057984283153,1.0270542458228427
1688152521405157,-0.03314259555962451,0.01226825360494388,1.0310826276035705
1688152521421137,-0.03057907988097952,0.011657892729076025,1.030350194552529
1688152521437118,-0.031189440756847375,0.011779964904249596,1.0297398336766612
1688152521453099,-0.03680476081483164,0.01495384145876244,1.0270542458228427
1688152521469080,-0.03338673990997165,0.012512397955291021,1.029495689326314
1688152521485060,-0.031189440756847375,0.010070954451819603,1.0313267719539176
1688152521501037,-0.031189440756847375,0.011413748378728883,1.027542534523537
1688152521517018,-0.03326466773479808,0.013366903181506018,1.0272983901731898
1688152521532999,-0.03338673990997165,0.014099336232547444,1.0268101014724955
1688152521548979,-0.03155565728236809,0.010803387502861028,1.0313267719539176
1688152521564960,-0.03045700770580595,0.00848401617456318,1.0308384832532234
1688152521580941,-0.0327763790341038,0.013855191882200302,1.0287632562752727
1688152521596922,-0.033630884260318794,0.015686274509803866,1.0281528953994048
1688152521612902,-0.03167772945754166,0.010315098802166744,1.0308384832532234
1688152521628883,-0.030945296406500233,0.008728160524910322,1.0291294728007934
1688152521644864,-0.03533989471274879,0.016784924086366004,1.0271763179980162
1688152521660844,-0.03436331731136022,0.014221408407721015,1.026932173647669
1688152521676825,-0.03057907988097952,0.01226825360494388,1.0297398336766612
1688152521692806,-0.02935835812924381,0.01495384145876244,1.0305943389028762
1688152521708787,-0.033630884260318794,0.010193026626993174,1.028397039749752
1688152521724767,-0.033630884260318794,0.015564202334630295,1.028641184100099
1688152521740748,-0.032532234683756656,0.011902037079423167,1.029495689326314
1688152521756729,-0.032410162508583085,0.012024109254596738,1.0299839780270084
1688152521772709,-0.03289845120927737,0.016662851911192433,1.030106050202182
1688152521788690,-0.03265430685893023,0.012756542305638163,1.0255893797207598
1688152521804671,-0.032288090333409514,0.009338521400778177,1.0288853284504462
1688152521820648,-0.033630884260318794,0.010681315327687457,1.0308384832532234
1688152521836629,-0.03472953383688093,0.015320057984283153,1.0290074006256198
1688152521852609,-0.03155565728236809,0.01361104753185316,1.0264438849469748
1688152521868590,-0.028747997253375956,0.00982681010147246,1.0298619058518348
1688152521884571,-0.032410162508583085,0.012756542305638163,1.032913710231174
1688152521900551,-0.03680476081483164,0.01373311970702673,1.0257114518959334
1688152521916532,-0.032410162508583085,0.012756542305638163,1.0265659571221484
1688152521932513,-0.028870069428549527,0.01104753185320817,1.0308384832532234
1688152521948494,-0.03338673990997165,0.013244831006332447,1.0310826276035705
1688152521964474,-0.09124895094224472,-0.02020294499122599,0.944167238879988
1688152521980455,-0.0762340733958955,-0.07391470206759765,1.069657434958419
1688152521996436,-0.045349813076981604,0.046814679179064456,1.0471961547264819
1688152522012416,-0.032410162508583085,0.09466697184710426,1.0225375753414205
1688152522028397,-0.019592584115358136,0.03595025558861664,1.0365758754863812
1688152522044378,-0.09600976577401399,0.04058899824521234,1.024124513618677
1688152522060359,-0.04388494697489875,0.022034027618829555,1.016433966582742
1688152522076339,0.006775005722133187,0.01886015106431671,1.0456092164492254
1688152522092320,-0.04974441138323016,-0.024597543297474544,1.0268101014724955
1688152522108301,0.0214236667429617,-0.13226520180056456,1.0574502174410618
1688152522124282,0.0936903944457157,-0.23468375677119102,1.0535439078355076
1688152522140228,0.08087281605249075,-0.4884718089570459,1.0214389257648584
1688152522156209,-0.08233768215457404,-0.06915388723582838,1.105790798809796
1688152522172189,-0.08416876478217761,0.4758983749141681,0.9127946898603803
1688152522188170,-0.11663996337834748,0.12689402609292788,0.9870145723659114
1688152522204151,0.02667277027542525,-0.2313878080415046,1.2023498893720914
1688152522220131,0.013122758831158876,-0.15533684290836947,0.964919508659495
1688152522236112,0.037781338216220206,-0.20502021820401328,1.0591592278934918
1688152522252093,0.07244983596551435,-0.23260852979324032,1.0708781567101546
1688152522268074,-0.044251163500419466,-0.10589761196307323,0.9590600442511636
1688152522284054,-0.08917372396429402,-0.0365606164644845,1.0385290302891583
1688152522300035,0.02398718242160669,0.04754711223010588,1.0490272373540854
1688152522316016,-0.023010605020218122,-0.0061646448462653325,1.107499809262226
1688152522331997,-0.10663004501411466,-0.02801556420233453,1.0908979934386203
1688152522347977,-0.19378957808804476,0.05255207141222229,1.2438544289311055
1688152522363958,-0.15497062638284875,0.16620126649881772,0.9807888914320593
1688152522379939,-0.2024567025253683,0.09613183794918712,0.6297093156328684
1688152522395919,-0.27875181200885013,0.13080033569848215,0.717723353933013
1688152522411900,-0.13824673838406953,0.17987335011825767,1.2757152666514076
1688152522427881,-0.22162203402761893,0.11651789120317346,1.0247348744945448
1688152522443862,-0.20148012512397973,0.06414892805371153,1.2925612268253603
1688152522459838,0.006652933546959616,-0.0038452735179674846,1.22212558175021
1688152522475819,-0.11053635461966893,0.07977416647592861,1.1347219043259331
1688152522491800,-0.12298771648737317,0.08221560997940003,1.0379186694132905
1688152522507781,-0.33856717784390034,-0.21661707484550252,1.3144121461814295
1688152522523761,0.020935378042267416,-0.07550164034485407,0.2783855954833294
1688152522539742,0.07586785687037434,0.010803387502861028,-0.1430075532158388
1688152522555723,0.017273212787060288,0.0386358434424352,1.5507438773174638
1688152522571704,-0.09283588921950114,0.10211337453269209,1.1992980849927521
1688152522587684,-0.04632639047837017,-1.831082627603564E-4,1.143022812237736
1688152522603665,-0.004333562218661768,0.003356984817273201,0.9447775997558558
1688152522619646,-0.06012054627298369,0.003112840466926059,1.0242465857938505
1688152522635626,-0.03350881208514522,0.011657892729076025,1.0609903105210954
1688152522651607,-0.024475471122300974,0.021179522392614558,0.9898222323949035
1688152522667588,-0.03326466773479808,0.015075913633936011,1.0595254444190125
1688152522683569,-0.03729304951552592,0.02288853284504455,1.0074006256198977
1688152522699549,-0.03448538948653379,0.019592584115358136,1.032669565880827
1688152522715530,-0.0289921416037231,0.016540779736018862,1.0313267719539176
1688152522731511,-0.03399710078583951,0.01739528496223386,1.0247348744945448
1688152522747491,-0.03607232776379021,0.016540779736018862,1.031204699778744
1688152522763472,-0.032532234683756656,0.017761501487754572,1.023270008392462
1688152522779449,-0.028259708552681673,0.017029068436713146,1.0324254215304798
1688152522795430,-0.03265430685893023,0.018005645838101714,1.0279087510490577
1688152522811411,-0.03692683299000521,0.01898222323949028,1.0291294728007934
1688152522827391,-0.033752956435492365,0.016662851911192433,1.024979018844892
1688152522843372,-0.029602502479590953,0.016662851911192433,1.0298619058518348
1688152522859353,-0.03302052338445094,0.01751735713740743,1.0282749675745784
1688152522875333,-0.03814755474174092,-0.014587624933241727,1.0490272373540854
1688152522891314,-0.05389486533913157,0.08880750743877286,1.051712825207904
1688152522907295,-0.06829938200961339,0.11139085984588348,1.0449988555733576
1688152522923276,-0.07464713511863907,0.1024795910582128,0.9669947356374458
1688152522939256,-0.0386358434424352,0.03155565728236809,0.9678492408636608
1688152522955237,-0.03595025558861664,-0.10516517891203181,1.0908979934386203
1688152522971218,-0.007263294422827471,-0.05145342183566015,0.866529335469596
1688152522987198,0.038879987792782345,0.004699778744182481,1.2401922636758984
1688152523003179,0.01898222323949028,0.05023270008392444,1.027786678873884
1688152523019160,-0.036316472114137355,0.04229800869764233,1.0348668650339512
1688152523035141,-0.012024109254596738,0.04779125658045302,1.0279087510490577
1688152523051121,-0.0327763790341038,-0.12213321126115817,0.7864499885557334
1688152523067102,-0.0012817578393224949,0.0844129091325243,1.259357595178149
1688152523083083,0.0424200808728159,0.16791027695124772,0.9635767147325858
1688152523099060,0.015930418860151008,0.10870527199206492,1.0168001831082627
1688152523115040,-0.03448538948653379,0.02655069810025168,1.061966887922484
1688152523131021,-0.1135881589990082,-0.06378271152819126,0.9810330357824064
1688152523147002,-0.09076066224155044,-0.10809491111619751,1.0877241168841074
1688152523162983,-0.057190814068817986,0.01873807888914314,0.987136644541085
1688152523178963,-0.03546196688792236,0.012756542305638163,1.0728313115129318
1688152523194944,-0.030090791180285237,0.017273212787060288,1.0015411612115663
1688152523210925,-0.05096513313496587,0.02410925459678026,1.0102082856488899
1688152523226905,0.14471656366826924,-0.11029221026932179,1.0666056305790796
1688152523242886,0.015930418860151008,0.004455634393835339,1.081010147249561
1688152523258867,-0.07013046463721695,0.028870069428549527,1.0072785534447242
1688152523274848,0.01361104753185316,-0.019226367589837423,1.141313801785306
1688152523290828,-0.032288090333409514,0.008850232700083893,0.9886015106431678
1688152523306809,-0.06195162890058725,0.00970473792629889,1.0580605783169297
1688152523322790,-0.05902189669642155,0.04315251392385733,0.9879911497673
1688152523338770,-0.13104448004882885,0.05609216449225585,1.1024948500801095
1688152523354751,-0.0613412680247194,0.04229800869764233,0.9746852826733807
1688152523370732,-0.03448538948653379,0.012146181429770309,1.067093919279774
1688152523386713,-0.03680476081483164,0.01873807888914314,1.0191195544365605
1688152523402693,-0.03472953383688093,0.016784924086366004,1.0265659571221484
1688152523418670,-0.028259708552681673,0.013855191882200302,1.0039826047150378
1688152523434651,-0.028137636377508102,0.0036011291676203427,1.0825970855268174
1688152523450632,-0.03338673990997165,0.006652933546959616,1.0437781338216219
1688152523466612,-0.03460746166170736,0.0037232013427939137,1.030960555428397
1688152523482593,-0.03143358510719452,0.006775005722133187,1.0334019989318683
1688152523498574,-0.03814755474174092,0.027038986800945963,0.9318379491874573
1688152523514555,-0.0386358434424352,0.017883573662928143,1.0586709391927975
1688152523530535,-0.04193179217212162,0.045593957427328746,0.9704127565423057
1688152523546516,-0.04693675135423803,0.06549172198062081,1.0753948271915768
1688152523562497,-0.01641870756084529,-0.038879987792782345,1.0060578316929885
1688152523578477,-0.03704890516517878,0.003356984817273201,1.0424353398947126
1688152523594458,-0.03546196688792236,0.01751735713740743,1.0290074006256198
1688152523610439,-0.031067368581673804,0.013366903181506018,1.0246128023193712
1688152523626420,-0.032288090333409514,0.01373311970702673,1.0408484016174562
1688152523642400,-0.03680476081483164,0.01886015106431671,1.0221713588158998
1688152523658381,-0.0357061112382695,0.01739528496223386,1.030350194552529
1688152523674362,-0.03216601815823594,0.016540779736018862,1.024368657969024
1688152523690343,-0.0327763790341038,0.013977264057373873,1.0338902876325626
1688152523706323,-0.035217822537575216,0.015564202334630295,1.0259555962462805
1688152523722304,-0.03558403906309593,0.015442130159456724,1.0253452353704127
1688152523738250,-0.03143358510719452,0.01617456321049815,1.0338902876325626
1688152523754231,-0.032410162508583085,0.018127718013275285,1.0254673075455862
1688152523770212,-0.03558403906309593,0.016662851911192433,1.0310826276035705
1688152523786193,-0.036438544289310926,0.018005645838101714,1.0242465857938505
1688152523802173,-0.03167772945754166,0.01483176928358887,1.0308384832532234
1688152523818154,-0.031067368581673804,0.01373311970702673,1.0299839780270084
1688152523834135,-0.03814755474174092,0.015564202334630295,1.0242465857938505
1688152523850115,-0.036194399938963784,0.017761501487754572,1.0264438849469748
1688152523866096,-0.03265430685893023,0.016540779736018862,1.031815060654612
1688152523882077,-0.03399710078583951,0.01617456321049815,1.031204699778744
1688152523898058,-0.03717097734035235,0.017273212787060288,1.028641184100099
1688152523914038,-0.03851377126726163,0.017639429312581,1.0279087510490577
1688152523930019,-0.03155565728236809,0.015564202334630295,1.0316929884794384
1688152523946000,-0.030945296406500233,0.01641870756084529,1.0299839780270084
1688152523961980,-0.03717097734035235,0.016540779736018862,1.0259555962462805
1688152523977961,-0.035095750362401645,0.01629663538567172,1.0298619058518348
1688152523993942,-0.031311512932020946,0.015686274509803866,1.0327916380560005
1688152524009923,-0.03143358510719452,0.01617456321049815,1.0313267719539176
1688152524025903,-0.03558403906309593,0.01898222323949028,1.028641184100099
1688152524041884,-0.03595025558861664,0.01751735713740743,1.027786678873884
1688152524057861,-0.033630884260318794,0.014343480582894585,1.0259555962462805
1688152524073842,-0.03155565728236809,0.014709697108415298,1.0302281223773555
1688152524089822,-0.035217822537575216,0.019226367589837423,1.0281528953994048
1688152524105803,-0.03607232776379021,0.019226367589837423,1.0276646066987105
1688152524121784,-0.03143358510719452,0.015564202334630295,1.0290074006256198
1688152524137765,-0.031067368581673804,0.01361104753185316,1.0310826276035705
1688152524153745,-0.03704890516517878,0.01495384145876244,1.0281528953994048
1688152524169726,-0.037781338216220206,0.017761501487754572,1.0268101014724955
1688152524185707,-0.030823224231326662,0.019104295414663852,1.030350194552529
1688152524201687,-0.030823224231326662,0.01739528496223386,1.0287632562752727
1688152524217668,-0.03533989471274879,0.014465552758068156,1.026688029297322
1688152524233649,-0.03741512169069949,0.01605249103532458,1.0251010910200655
1688152524249630,-0.03595025558861664,0.10614175631341993,1.1249561303120466
1688152524265610,-0.05645838101777656,0.05511558709086728,1.6504768444342721
1688152524281591,0.12005798428320702,-0.11883726253147175,1.0603799496452275
1688152524297572,-0.09320210574502186,0.17730983443961268,0.6378881513694976
1688152524313552,-0.07574578469520121,-0.014343480582894585,1.0410925459678033
1688152524329533,-0.050476844434271584,0.313786526283665,0.8322270542458226
1688152524345514,-0.042786297398336615,0.2188143739986268,1.1950255588616772
1688152524361495,-0.04571602960250232,0.25177386129549095,0.9508812085145344
1688152524377502,-0.05999847409781012,0.16144045166704846,0.9999542229343099
1688152524393483,-0.04693675135423803,0.25091935606927596,1.0314488441290912
1688152524409464,0.07318226901655578,0.01898222323949028,1.0126497291523613
1688152524425444,0.06695658808270366,0.14471656366826924,1.0849164568551153
1688152524441425,-0.03936827649347663,0.18780804150453978,1.0280308232242312
1688152524457406,-0.030945296406500233,0.21515220874341967,1.105180437933928
1688152524473386,-0.045593957427328746,0.16864271000228914,0.97602807660029
1688152524489367,-0.18475623712520006,0.27277027542534515,0.5488975356679635
1688152524505348,-0.2528725108720531,0.279362172884718,0.873365377279316
1688152524521329,-0.33258564126039536,0.2603189135576409,1.077592126344701
1688152524537309,-0.37933928435187303,0.204531929503319,0.9187762264438852
1688152524553290,-0.37958342870222017,0.09039444571602928,2.2682841229877164
1688152524569271,-0.5329060807202257,0.3082932784008543,1.7408102540627146
1688152524585251,-0.38300144960708016,0.3079270618753336,0.7975585564965284
1688152524601232,-0.20209048599984758,0.12042420080872773,0.3998474097810334
1688152524617213,-0.07635614557106907,0.037537193865873064,0.420721751735714
1688152524633194,0.24029907682917528,-0.47479972533760595,0.5518272678721292
1688152524649174,0.13495078965438356,-0.32928969253070894,0.8852063782711532
1688152524665155,0.09332417792019498,-0.3622491798275731,1.1761043717097737
1688152524681136,0.13446250095368928,-0.35748836499580383,1.1418020904860002
1688152524697082,0.14288548104066567,-0.39899290455481795,0.8262455176623176
1688152524713063,0.20550850690470757,-0.4013122758831158,0.6189669642175932
1688152524729044,0.16021972991531275,-0.3302662699320975,0.6187228198672461
1688152524745024,0.09784084840161711,-0.2876630807965208,0.7431143663691158
1688152524761005,0.08502327000839216,-0.2919356069275958,0.9481956206607158
1688152524776986,0.09002822919050857,-0.2217441062027925,1.032913710231174
1688152524792966,0.06878767071030722,-0.23675898374914173,1.026077668421454
1688152524808947,0.026916914625772392,-0.1328755626764324,1.076493476768139
1688152524824928,-0.0499885557335773,0.01495384145876244,1.0348668650339512
1688152524840909,-0.05951018539711583,0.10650797283894065,0.9835965514610514
1688152524856889,-0.08599984740978117,0.12567330434119217,0.9711451895933472
1688152524872870,-0.11468680857557034,0.13409628442816857,1.0327916380560005
1688152524888851,-0.08429083695735118,-0.013244831006332447,1.080155642023346
1688152524904832,-0.08538948653391332,-0.16131837949187444,1.2202944991226063
1688152524920812,-0.091737239642939,-0.2108796826123447,1.2552071412222476
1688152524936793,-0.13946746013580524,-0.05914396887159512,1.0342565041580833
1688152524952774,-0.09271381704432757,-0.06292820630197626,0.8946059357595182
1688152524968754,-0.10272373540856039,-0.021789883268482413,0.8704356450751503
1688152524984735,-0.05938811322194226,-0.1220111390859846,0.9396505683985659
1688152525000716,-0.09149309529259186,-0.1182269016556039,0.9488059815365837
1688152525016693,-0.08844129091325259,-0.06439307240405912,0.7820553902494849
1688152525032673,-0.12274357213702602,-0.006897077897306758,0.9104753185320824
1688152525048654,-0.0575570305943387,-0.127016098268101,1.3210040436408024
1688152525064635,-0.28363469901579297,-0.017029068436713146,1.7306782635233082
1688152525080616,-0.21527428091859324,0.0365606164644845,1.0806439307240403
1688152525096596,0.03350881208514522,0.05865568017090084,1.0548867017624168
1688152525112577,-0.08038452735179691,0.04473945220111375,0.6751201647974368
1688152525128558,-0.15790035858701446,0.06756694895857152,1.1968566414892807
1688152525144539,-0.028870069428549527,-0.08551155870908689,-0.0829480430304419
1688152525160519,0.018371862363622427,-0.013000686655985305,0.8117189288166626
1688152525176500,0.021057450217440987,0.00848401617456318,1.071366445410849
1688152525192481,0.004333562218661768,0.011535820553902454,1.019851987487602
1688152525208461,0.010437170977340315,0.012024109254596738,1.0270542458228427
1688152525224442,0.015197985809109582,0.011291676203555312,1.030960555428397
1688152525240423,0.014465552758068156,0.01239032578011745,1.0314488441290912
1688152525256404,0.009338521400778177,0.013488975356679589,1.030350194552529
1688152525272384,0.011535820553902454,0.013244831006332447,1.0237582970931562
1688152525288365,0.015930418860151008,0.010070954451819603,1.027786678873884
1688152525304346,0.01226825360494388,0.011657892729076025,1.030350194552529
1688152525320326,0.008728160524910322,0.014587624933241727,1.0255893797207598
1688152525336303,0.011657892729076025,0.01361104753185316,1.0255893797207598
1688152525352284,0.01495384145876244,0.013244831006332447,1.028397039749752
1688152525368265,0.015075913633936011,0.011657892729076025,1.029251544975967
1688152525384245,0.010803387502861028,0.013977264057373873,1.0282749675745784
1688152525400226,0.011535820553902454,0.013977264057373873,1.0268101014724955
1688152525416207,0.016784924086366004,0.00970473792629889,1.0304722667277026
1688152525432188,0.01495384145876244,0.013244831006332447,1.0310826276035705
1688152525448168,0.011169604028381741,0.013366903181506018,1.0268101014724955
1688152525464149,0.011902037079423167,0.013366903181506018,1.0299839780270084
1688152525480130,0.015320057984283153,0.013488975356679589,1.0270542458228427
1688152525496111,0.014587624933241727,0.013244831006332447,1.0325474937056534
1688152525512091,0.010315098802166744,0.01373311970702673,1.029251544975967
1688152525528072,0.011169604028381741,0.013855191882200302,1.0274204623483634
1688152525544053,0.015564202334630295,0.011779964904249596,1.0313267719539176
1688152525560033,0.01605249103532458,0.012634470130464592,1.030350194552529
1688152525576014,0.011902037079423167,0.01373311970702673,1.0307164110780498
1688152525591995,0.011169604028381741,0.013488975356679589,1.0279087510490577
1688152525607976,0.015564202334630295,0.013122758831158876,1.0310826276035705
1688152525623956,0.014099336232547444,0.01226825360494388,1.0291294728007934
1688152525639937,0.011413748378728883,0.01483176928358887,1.0287632562752727
1688152525655914,0.011169604028381741,0.013855191882200302,1.0246128023193712
1688152525671895,0.015320057984283153,0.012634470130464592,1.032059205004959
1688152525687875,0.015320057984283153,0.013366903181506018,1.0323033493553062
1688152525703856,0.011413748378728883,0.013000686655985305,1.0307164110780498
1688152525719837,0.009948882276646032,0.014343480582894585,1.0296177615014876
1688152525735818,0.015197985809109582,0.012634470130464592,1.029251544975967
1688152525751798,0.017029068436713146,0.011779964904249596,1.030350194552529
1688152525767779,0.013488975356679589,0.01239032578011745,1.0280308232242312
1688152525783760,0.010803387502861028,0.014221408407721015,1.0305943389028762
1688152525799740,0.016662851911192433,0.011902037079423167,1.0272983901731898
1688152525815721,0.01483176928358887,0.01239032578011745,1.030106050202182
1688152525831702,0.013366903181506018,0.013977264057373873,1.0291294728007934
1688152525847683,0.010803387502861028,0.015442130159456724,1.0280308232242312
1688152525863663,0.014709697108415298,0.012512397955291021,1.0291294728007934
1688152525879644,0.01617456321049815,0.01226825360494388,1.032913710231174
1688152525895625,0.013488975356679589,0.012756542305638163,1.0323033493553062
1688152525911605,0.012146181429770309,0.01373311970702673,1.0282749675745784
1688152525927586,0.015442130159456724,0.013000686655985305,1.0276646066987105
1688152525943567,0.015197985809109582,0.013122758831158876,1.029495689326314
1688152525959548,0.015320057984283153,0.007263294422827471,1.0314488441290912
1688152525975494,0.0042114900434881974,0.02130159456778813,1.038895246814679
1688152525991474,0.017761501487754572,0.015808346684977437,1.038651102464332
1688152526007454,0.023010605020218122,0.015075913633936011,1.0323033493553062
1688152526023435,0.01373311970702673,0.01641870756084529,1.0324254215304798
1688152526039415,0.008850232700083893,0.01373311970702673,1.0316929884794384
1688152526055395,0.01361104753185316,0.00970473792629889,1.025223163195239
1688152526071375,0.019226367589837423,0.009338521400778177,1.031204699778744
1688152526087356,0.014099336232547444,0.01629663538567172,1.0259555962462805
1688152526103336,0.012756542305638163,0.016906996261539575,1.0293736171511405
1688152526119316,0.012634470130464592,0.012878614480811734,1.0274204623483634
1688152526135296,0.017639429312581,0.00982681010147246,1.0276646066987105
1688152526151277,0.013244831006332447,0.010193026626993174,1.032059205004959
1688152526167257,0.01239032578011745,0.012878614480811734,1.0285191119249255
1688152526183237,0.015197985809109582,0.015320057984283153,1.0321812771801326
1688152526199217,0.01751735713740743,0.014099336232547444,1.0324254215304798
1688152526215198,0.013000686655985305,0.011291676203555312,1.026688029297322
1688152526231178,0.010315098802166744,0.009582665751125319,1.0296177615014876
1688152526247158,0.013488975356679589,0.013366903181506018,1.028397039749752
1688152526263138,0.017639429312581,0.01226825360494388,1.0304722667277026
1688152526279119,0.013000686655985305,0.014587624933241727,1.0298619058518348
1688152526295105,0.010681315327687457,0.012146181429770309,1.021560997940032
1688152526311085,0.01617456321049815,0.012634470130464592,1.0271763179980162
1688152526327065,0.015442130159456724,0.013000686655985305,1.031815060654612
1688152526343045,0.011169604028381741,0.013000686655985305,1.0324254215304798
1688152526359026,0.010315098802166744,0.01239032578011745,1.0240024414435034
1688152526375006,0.015808346684977437,0.011535820553902454,1.027786678873884
1688152526390986,0.01641870756084529,0.01239032578011745,1.0308384832532234
1688152526406966,0.013366903181506018,0.013488975356679589,1.0324254215304798
1688152526422947,0.011413748378728883,0.013855191882200302,1.028397039749752
1688152526438927,0.015197985809109582,0.013000686655985305,1.0279087510490577
1688152526454907,0.017883573662928143,0.011779964904249596,1.0302281223773555
1688152526470887,0.012756542305638163,0.012512397955291021,1.0298619058518348
1688152526486868,0.0109254596780346,0.012512397955291021,1.0293736171511405
1688152526502848,0.01373311970702673,0.01226825360494388,1.0255893797207598
1688152526518828,0.018371862363622427,0.01239032578011745,1.0296177615014876
1688152526534808,0.014343480582894585,0.011535820553902454,1.0285191119249255
1688152526550789,0.009460593575951748,0.013366903181506018,1.029495689326314
1688152526566769,0.014221408407721015,0.01239032578011745,1.0280308232242312
1688152526582749,0.01861600671396957,0.013488975356679589,1.030106050202182
1688152526598729,0.013244831006332447,0.013244831006332447,1.0302281223773555
1688152526614715,0.010070954451819603,0.015320057984283153,1.0265659571221484
1688152526630695,0.012634470130464592,0.014709697108415298,1.0268101014724955
1688152526646676,0.01898222323949028,0.013000686655985305,1.0304722667277026
1688152526662656,0.01483176928358887,0.013977264057373873,1.0313267719539176
1688152526678636,0.008972304875257464,0.013855191882200302,1.0296177615014876
1688152526694616,0.011169604028381741,0.01361104753185316,1.028397039749752
1688152526710597,0.017761501487754572,0.010070954451819603,1.030350194552529
1688152526726577,0.015686274509803866,0.012878614480811734,1.028397039749752
1688152526742557,0.011413748378728883,0.013977264057373873,1.0285191119249255
1688152526758537,0.01361104753185316,0.013000686655985305,1.0263218127718012
1688152526774518,0.019226367589837423,0.013366903181506018,1.0315709163042648
1688152526790498,0.014587624933241727,0.013366903181506018,1.0327916380560005
1688152526806478,0.01104753185320817,0.01373311970702673,1.0287632562752727
1688152526822458,0.011779964904249596,0.013488975356679589,1.025833524071107
1688152526838439,0.016906996261539575,0.012146181429770309,1.0276646066987105
1688152526854419,0.014587624933241727,0.01226825360494388,1.0302281223773555
1688152526870399,0.0109254596780346,0.012756542305638163,1.0314488441290912
1688152526886379,0.0109254596780346,0.014465552758068156,1.0279087510490577
1688152526902360,0.01641870756084529,0.010437170977340315,1.0297398336766612
1688152526918340,0.017273212787060288,0.012756542305638163,1.032059205004959
1688152526934326,0.009216449225604606,0.013855191882200302,1.0310826276035705
1688152526950306,0.010559243152513886,0.015075913633936011,1.029251544975967
1688152526966286,0.017761501487754572,0.013977264057373873,1.028397039749752
1688152526982267,0.015197985809109582,0.013244831006332447,1.0287632562752727
1688152526998247,0.011291676203555312,0.013977264057373873,1.032913710231174
1688152527014227,0.010437170977340315,0.01361104753185316,1.0279087510490577
1688152527030207,0.017273212787060288,0.013855191882200302,1.0308384832532234
1688152527046188,0.015808346684977437,0.013122758831158876,1.0304722667277026
1688152527062168,0.011291676203555312,0.014709697108415298,1.0268101014724955
1688152527078148,0.012756542305638163,0.014099336232547444,1.0274204623483634
1688152527094128,0.01751735713740743,0.012146181429770309,1.0308384832532234
1688152527110108,0.01495384145876244,0.01239032578011745,1.031815060654612
1688152527126089,0.011657892729076025,0.013000686655985305,1.0299839780270084
1688152527142069,0.01239032578011745,0.013855191882200302,1.028641184100099
1688152527158049,0.015564202334630295,0.012878614480811734,1.030106050202182
1688152527174029,0.016662851911192433,0.013366903181506018,1.0282749675745784
1688152527190010,0.012024109254596738,0.01373311970702673,1.0276646066987105
1688152527205990,0.011169604028381741,0.013977264057373873,1.028641184100099
1688152527221970,0.015930418860151008,0.013488975356679589,1.0274204623483634
1688152527237950,0.015686274509803866,0.012878614480811734,1.0302281223773555
1688152527253906,0.01104753185320817,0.013122758831158876,1.0304722667277026
1688152527269886,0.011779964904249596,0.01361104753185316,1.0305943389028762
1688152527285866,0.01641870756084529,0.012512397955291021,1.0290074006256198
1688152527301847,0.01629663538567172,0.012634470130464592,1.0321812771801326
1688152527317827,0.012146181429770309,0.014099336232547444,1.028641184100099
1688152527333807,0.011291676203555312,0.014343480582894585,1.0281528953994048
1688152527349787,0.015686274509803866,0.01239032578011745,1.030960555428397
1688152527365768,0.015808346684977437,0.01239032578011745,1.0319371328297855
1688152527381748,0.012634470130464592,0.01361104753185316,1.0304722667277026
1688152527397728,0.010681315327687457,0.014343480582894585,1.029495689326314
1688152527413708,0.017639429312581,0.01239032578011745,1.0276646066987105
1688152527429689,0.01739528496223386,0.010559243152513886,1.0338902876325626
1688152527445669,0.011169604028381741,0.013488975356679589,1.030106050202182
1688152527461649,0.011413748378728883,0.015320057984283153,1.027786678873884
1688152527477629,0.015320057984283153,0.013244831006332447,1.0272983901731898
1688152527493610,0.01751735713740743,0.012146181429770309,1.0331578545815212
1688152527509590,0.011291676203555312,0.01361104753185316,1.0287632562752727
1688152527525570,0.010681315327687457,0.013488975356679589,1.0259555962462805
1688152527541550,0.016906996261539575,0.012512397955291021,1.029495689326314
1688152527557531,0.015808346684977437,0.011413748378728883,1.0323033493553062
1688152527573516,0.013488975356679589,0.012634470130464592,1.0302281223773555
1688152527589497,0.011291676203555312,0.01483176928358887,1.0263218127718012
1688152527605477,0.017151140611886717,0.012512397955291021,1.0288853284504462
1688152527621457,0.017883573662928143,0.014221408407721015,1.0299839780270084
1688152527637437,0.013122758831158876,0.013244831006332447,1.0288853284504462
1688152527653418,0.011413748378728883,0.013977264057373873,1.028641184100099
1688152527669398,0.014221408407721015,0.012878614480811734,1.0290074006256198
1688152527685378,0.016784924086366004,0.011902037079423167,1.0307164110780498
1688152527701358,0.014465552758068156,0.013488975356679589,1.0287632562752727
1688152527717339,0.011169604028381741,0.013366903181506018,1.026932173647669
1688152527733319,0.015320057984283153,0.013000686655985305,1.030960555428397
1688152527749299,0.018371862363622427,0.011779964904249596,1.0307164110780498
1688152527765279,0.013977264057373873,0.013488975356679589,1.026077668421454
1688152527781260,0.011169604028381741,0.013855191882200302,1.0276646066987105
1688152527797240,0.01483176928358887,0.013122758831158876,1.0271763179980162
1688152527813220,0.018493934538795997,0.012634470130464592,1.030106050202182
1688152527829200,0.013488975356679589,0.01373311970702673,1.0297398336766612
1688152527845181,0.010681315327687457,0.01373311970702673,1.0255893797207598
1688152527861161,0.014099336232547444,0.013855191882200302,1.029251544975967
1688152527877141,0.01751735713740743,0.012024109254596738,1.0321812771801326
1688152527893127,0.013488975356679589,0.013122758831158876,1.032059205004959
1688152527909107,0.010437170977340315,0.01361104753185316,1.026932173647669
1688152527925088,0.015442130159456724,0.01361104753185316,1.028641184100099
1688152527941068,0.015930418860151008,0.01239032578011745,1.0298619058518348
1688152527957048,0.01361104753185316,0.012512397955291021,1.0293736171511405
1688152527973028,0.010681315327687457,0.01361104753185316,1.025833524071107
1688152527989009,0.015197985809109582,0.013977264057373873,1.0265659571221484
1688152528004989,0.01751735713740743,0.012634470130464592,1.029495689326314
1688152528020969,0.01373311970702673,0.01239032578011745,1.0279087510490577
1688152528036949,0.010559243152513886,0.012756542305638163,1.0270542458228427
1688152528052930,0.014099336232547444,0.013977264057373873,1.0280308232242312
1688152528068910,0.019104295414663852,0.012878614480811734,1.029251544975967
1688152528084890,0.014343480582894585,0.012146181429770309,1.027786678873884
1688152528100870,0.012512397955291021,0.013244831006332447,1.0279087510490577
1688152528116850,0.013855191882200302,0.01239032578011745,1.0271763179980162
1688152528132831,0.01861600671396957,0.012512397955291021,1.0293736171511405
1688152528148811,0.015075913633936011,0.013366903181506018,1.0293736171511405
1688152528164791,0.010193026626993174,0.014343480582894585,1.0290074006256198
1688152528180771,0.012756542305638163,0.013122758831158876,1.0290074006256198
1688152528196752,0.019226367589837423,0.012146181429770309,1.0310826276035705
1688152528212707,0.014465552758068156,0.013488975356679589,1.030350194552529
1688152528228687,0.009094377050431035,0.013244831006332447,1.0291294728007934
1688152528244668,0.013977264057373873,0.012146181429770309,1.0314488441290912
1688152528260648,0.017883573662928143,0.011902037079423167,1.0319371328297855
1688152528276628,0.015075913633936011,0.013488975356679589,1.0314488441290912
1688152528292608,0.011413748378728883,0.014221408407721015,1.0274204623483634
1688152528308589,0.013855191882200302,0.01239032578011745,1.0297398336766612
1688152528324569,0.016906996261539575,0.011902037079423167,1.031204699778744
1688152528340549,0.014343480582894585,0.01361104753185316,1.0307164110780498
1688152528356529,0.01104753185320817,0.013977264057373873,1.027786678873884
1688152528372510,0.01361104753185316,0.012634470130464592,1.0282749675745784
1688152528388490,0.016540779736018862,0.013488975356679589,1.0296177615014876
1688152528404470,0.01495384145876244,0.011902037079423167,1.0290074006256198
1688152528420450,0.010559243152513886,0.013366903181506018,1.027542534523537
1688152528436431,0.012512397955291021,0.01361104753185316,1.0280308232242312
1688152528452411,0.016540779736018862,0.011413748378728883,1.0305943389028762
1688152528468391,0.01495384145876244,0.011413748378728883,1.0285191119249255
1688152528484371,0.011169604028381741,0.01483176928358887,1.030106050202182
1688152528500352,0.013366903181506018,0.01373311970702673,1.0290074006256198
1688152528516332,0.018493934538795997,0.011779964904249596,1.028397039749752
1688152528532318,0.015930418860151008,0.01239032578011745,1.0323033493553062
1688152528548298,0.011657892729076025,0.013366903181506018,1.0296177615014876
1688152528564278,0.013000686655985305,0.01483176928358887,1.027542534523537
1688152528580258,0.017151140611886717,0.01239032578011745,1.0299839780270084
1688152528596239,0.014709697108415298,0.01373311970702673,1.0310826276035705
1688152528612219,0.01104753185320817,0.013855191882200302,1.0304722667277026
1688152528628199,0.013000686655985305,0.013244831006332447,1.0279087510490577
1688152528644179,0.016906996261539575,0.011902037079423167,1.028397039749752
1688152528660160,0.013122758831158876,0.011902037079423167,1.033524071107042
1688152528676140,0.011291676203555312,0.01373311970702673,1.0313267719539176
1688152528692120,0.01104753185320817,0.012878614480811734,1.0282749675745784
1688152528708100,0.015930418860151008,0.011902037079423167,1.0281528953994048
1688152528724081,0.015320057984283153,0.01226825360494388,1.0347447928587776
1688152528740061,0.011535820553902454,0.012512397955291021,1.0307164110780498
1688152528756041,0.011902037079423167,0.013366903181506018,1.0280308232242312
1688152528772021,0.01629663538567172,0.01361104753185316,1.0298619058518348
1688152528788002,0.014587624933241727,0.012756542305638163,1.0336461432822155
1688152528803982,0.010803387502861028,0.013488975356679589,1.0304722667277026
1688152528819962,0.013122758831158876,0.012756542305638163,1.026077668421454
1688152528835942,0.017761501487754572,0.011413748378728883,1.0307164110780498
1688152528851959,0.016662851911192433,0.013244831006332447,1.0310826276035705
1688152528867939,0.011902037079423167,0.01373311970702673,1.0304722667277026
1688152528883919,0.0109254596780346,0.013244831006332447,1.0265659571221484
1688152528899900,0.016540779736018862,0.012024109254596738,1.0291294728007934
1688152528915880,0.015442130159456724,0.01104753185320817,1.0331578545815212
1688152528931860,0.012878614480811734,0.013366903181506018,1.0308384832532234
1688152528947840,0.012512397955291021,0.012756542305638163,1.0261997405966277
1688152528963821,0.015686274509803866,0.011657892729076025,1.0279087510490577
1688152528979801,0.01629663538567172,0.013122758831158876,1.0308384832532234
1688152528995781,0.012024109254596738,0.015197985809109582,1.0304722667277026
1688152529011761,0.011535820553902454,0.015320057984283153,1.026077668421454
1688152529027742,0.015320057984283153,0.011657892729076025,1.0313267719539176
1688152529043722,0.01617456321049815,0.011657892729076025,1.0310826276035705
1688152529059702,0.01239032578011745,0.012512397955291021,1.027786678873884
1688152529075682,0.01226825360494388,0.014465552758068156,1.0287632562752727
1688152529091663,0.015564202334630295,0.01373311970702673,1.030960555428397
1688152529107643,0.015686274509803866,0.013122758831158876,1.0285191119249255
1688152529123623,0.011535820553902454,0.014343480582894585,1.029251544975967
1688152529139603,0.011169604028381741,0.01361104753185316,1.028397039749752
1688152529155583,0.01483176928358887,0.013244831006332447,1.027786678873884
1688152529171539,0.017761501487754572,0.012756542305638163,1.0310826276035705
1688152529187519,0.012512397955291021,0.012634470130464592,1.0290074006256198
1688152529203499,0.011779964904249596,0.014099336232547444,1.0259555962462805
1688152529219480,0.015808346684977437,0.012512397955291021,1.0255893797207598
1688152529235460,0.015808346684977437,0.012756542305638163,1.0293736171511405
1688152529251440,0.012878614480811734,0.013244831006332447,1.0332799267566948
1688152529267420,0.010315098802166744,0.015075913633936011,1.0285191119249255
1688152529283401,0.01495384145876244,0.012878614480811734,1.0296177615014876
1688152529299381,0.017883573662928143,0.012634470130464592,1.0280308232242312
1688152529315361,0.011779964904249596,0.01373311970702673,1.0290074006256198
1688152529331341,0.00982681010147246,0.014709697108415298,1.0282749675745784
1688152529347322,0.01617456321049815,0.01239032578011745,1.0319371328297855
1688152529363302,0.017273212787060288,0.012024109254596738,1.031815060654612
1688152529379282,0.013366903181506018,0.014587624933241727,1.0330357824063476
1688152529395262,0.009338521400778177,0.01373311970702673,1.0293736171511405
1688152529411243,0.014221408407721015,0.012024109254596738,1.030350194552529
1688152529427223,0.017639429312581,0.012512397955291021,1.0316929884794384
1688152529443203,0.01239032578011745,0.014465552758068156,1.0334019989318683
1688152529459183,0.011535820553902454,0.013977264057373873,1.0274204623483634
1688152529475164,0.014099336232547444,0.013122758831158876,1.028397039749752
1688152529491150,0.017761501487754572,0.01239032578011745,1.0296177615014876
1688152529507130,0.013244831006332447,0.013244831006332447,1.029495689326314
1688152529523110,0.010803387502861028,0.013366903181506018,1.0304722667277026
1688152529539090,0.013855191882200302,0.013000686655985305,1.028641184100099
1688152529555071,0.016784924086366004,0.012756542305638163,1.0319371328297855
1688152529571051,0.013244831006332447,0.013977264057373873,1.0319371328297855
1688152529587031,0.01104753185320817,0.01361104753185316,1.0299839780270084
1688152529603011,0.01483176928358887,0.013000686655985305,1.0291294728007934
1688152529618991,0.018005645838101714,0.012146181429770309,1.030106050202182
1688152529634972,0.013977264057373873,0.014343480582894585,1.0276646066987105
1688152529650952,0.009582665751125319,0.01483176928358887,1.025223163195239
1688152529666932,0.014709697108415298,0.013977264057373873,1.0293736171511405
1688152529682912,0.01751735713740743,0.013000686655985305,1.0308384832532234
1688152529698893,0.013366903181506018,0.01373311970702673,1.0323033493553062
1688152529714873,0.008850232700083893,0.014099336232547444,1.028641184100099
1688152529730853,0.013244831006332447,0.012634470130464592,1.0316929884794384
1688152529746833,0.01617456321049815,0.01226825360494388,1.031815060654612
1688152529762814,0.012878614480811734,0.013977264057373873,1.0307164110780498
1688152529778794,0.009582665751125319,0.01495384145876244,1.0285191119249255
1688152529794774,0.014099336232547444,0.012756542305638163,1.0324254215304798
1688152529810760,0.016906996261539575,0.011902037079423167,1.0308384832532234
1688152529826740,0.01495384145876244,0.014099336232547444,1.0307164110780498
1688152529842721,0.011657892729076025,0.014709697108415298,1.030106050202182
1688152529858701,0.01495384145876244,0.01361104753185316,1.0276646066987105
1688152529874681,0.017883573662928143,0.011657892729076025,1.030960555428397
1688152529890661,0.014709697108415298,0.013122758831158876,1.0298619058518348
1688152529906642,0.011169604028381741,0.013855191882200302,1.0297398336766612
1688152529922622,0.015320057984283153,0.013977264057373873,1.027542534523537
1688152529938602,0.01861600671396957,0.013000686655985305,1.026932173647669
1688152529954582,0.015686274509803866,0.012878614480811734,1.029251544975967
1688152529970563,0.010803387502861028,0.014221408407721015,1.0280308232242312
1688152529986543,0.012024109254596738,0.012146181429770309,1.0293736171511405
1688152530002523,0.017029068436713146,0.012146181429770309,1.0310826276035705
1688152530018503,0.014221408407721015,0.012024109254596738,1.033524071107042
1688152530034484,0.010437170977340315,0.013244831006332447,1.028397039749752
1688152530050464,0.012756542305638163,0.013977264057373873,1.0296177615014876
1688152530066444,0.017273212787060288,0.013977264057373873,1.0323033493553062
1688152530082424,0.015564202334630295,0.013488975356679589,1.032059205004959
1688152530098405,0.010803387502861028,0.015075913633936011,1.0299839780270084
1688152530114385,0.013000686655985305,0.014343480582894585,1.0297398336766612
1688152530130340,0.01641870756084529,0.012878614480811734,1.0297398336766612
1688152530146320,0.016906996261539575,0.011902037079423167,1.0319371328297855
1688152530162301,0.011291676203555312,0.013366903181506018,1.026688029297322
1688152530178281,0.012146181429770309,0.011535820553902454,1.0265659571221484
1688152530194261,0.015808346684977437,0.011169604028381741,1.0282749675745784
1688152530210241,0.01629663538567172,0.011902037079423167,1.030960555428397
1688152530226222,0.010681315327687457,0.015075913633936011,1.0290074006256198
1688152530242202,0.011291676203555312,0.014221408407721015,1.0285191119249255
1688152530258182,0.017273212787060288,0.013366903181506018,1.0287632562752727
1688152530274162,0.016906996261539575,0.012756542305638163,1.0293736171511405
1688152530290143,0.011413748378728883,0.013855191882200302,1.031204699778744
1688152530306123,0.01226825360494388,0.012756542305638163,1.0276646066987105
1688152530322103,0.01629663538567172,0.01226825360494388,1.0304722667277026
1688152530338083,0.016540779736018862,0.011413748378728883,1.0313267719539176
1688152530354064,0.011902037079423167,0.013855191882200302,1.0308384832532234
1688152530370044,0.011535820553902454,0.013000686655985305,1.0305943389028762
1688152530386024,0.015808346684977437,0.012634470130464592,1.0293736171511405
1688152530402004,0.018005645838101714,0.014099336232547444,1.0325474937056534
1688152530417985,0.012634470130464592,0.015442130159456724,1.0315709163042648
1688152530433965,0.011779964904249596,0.01483176928358887,1.0279087510490577
1688152530449951,0.01629663538567172,0.012146181429770309,1.031204699778744
1688152530465931,0.016662851911192433,0.013122758831158876,1.0334019989318683
1688152530481911,0.013000686655985305,0.014343480582894585,1.029495689326314
1688152530497892,0.01239032578011745,0.012512397955291021,1.0285191119249255
1688152530513872,0.016540779736018862,0.01226825360494388,1.0276646066987105
1688152530529852,0.017151140611886717,0.011413748378728883,1.032669565880827
1688152530545832,0.01226825360494388,0.013244831006332447,1.0291294728007934
1688152530561813,0.01361104753185316,0.014343480582894585,1.0285191119249255
1688152530577793,0.016906996261539575,0.012634470130464592,1.0293736171511405
1688152530593773,0.01739528496223386,0.012756542305638163,1.029251544975967
1688152530609753,0.012024109254596738,0.015075913633936011,1.0288853284504462
1688152530625733,0.010315098802166744,0.015564202334630295,1.0285191119249255
1688152530641714,0.016784924086366004,0.013977264057373873,1.0285191119249255
1688152530657694,0.019348439765010994,0.01226825360494388,1.0280308232242312
1688152530673674,0.012878614480811734,0.013244831006332447,1.0285191119249255
1688152530689654,0.011413748378728883,0.012878614480811734,1.0255893797207598
1688152530705635,0.015930418860151008,0.012512397955291021,1.0291294728007934
1688152530721615,0.016906996261539575,0.012512397955291021,1.0319371328297855
1688152530737595,0.011657892729076025,0.01373311970702673,1.030106050202182
1688152530753575,0.012146181429770309,0.01483176928358887,1.029251544975967
1688152530769531,0.015686274509803866,0.012512397955291021,1.0331578545815212
1688152530785511,0.017151140611886717,0.013488975356679589,1.0342565041580833
1688152530801491,0.01226825360494388,0.01373311970702673,1.0316929884794384
1688152530817472,0.011535820553902454,0.01361104753185316,1.0290074006256198
1688152530833452,0.01483176928358887,0.014099336232547444,1.030106050202182
1688152530849432,0.018371862363622427,0.01226825360494388,1.0299839780270084
1688152530865412,0.01373311970702673,0.012756542305638163,1.0293736171511405
1688152530881393,0.012512397955291021,0.014099336232547444,1.029495689326314
1688152530897373,0.015930418860151008,0.012634470130464592,1.0271763179980162
1688152530913353,0.017029068436713146,0.011657892729076025,1.032669565880827
1688152530929333,0.012756542305638163,0.013244831006332447,1.0298619058518348
1688152530945314,0.011535820553902454,0.013244831006332447,1.026932173647669
1688152530961294,0.01617456321049815,0.01239032578011745,1.0298619058518348
1688152530977274,0.01739528496223386,0.012634470130464592,1.0334019989318683
1688152530993254,0.013122758831158876,0.01226825360494388,1.0299839780270084
1688152531009235,0.011779964904249596,0.01361104753185316,1.030960555428397
1688152531025215,0.015197985809109582,0.013244831006332447,1.0297398336766612
1688152531041195,0.016906996261539575,0.011779964904249596,1.030106050202182
1688152531057175,0.013122758831158876,0.011657892729076025,1.030960555428397
1688152531073156,0.011779964904249596,0.014587624933241727,1.028641184100099
1688152531089141,0.014221408407721015,0.012878614480811734,1.0302281223773555
1688152531105122,0.01641870756084529,0.01104753185320817,1.0296177615014876
1688152531121102,0.013244831006332447,0.013488975356679589,1.032669565880827
1688152531137082,0.011657892729076025,0.01373311970702673,1.031204699778744
1688152531153062,0.01495384145876244,0.013366903181506018,1.031204699778744
1688152531169043,0.01751735713740743,0.011902037079423167,1.0299839780270084
1688152531185023,0.013488975356679589,0.015564202334630295,1.0325474937056534
1688152531201003,0.010681315327687457,0.01483176928358887,1.0282749675745784
1688152531216983,0.013977264057373873,0.013977264057373873,1.030106050202182
1688152531232964,0.017273212787060288,0.01361104753185316,1.0314488441290912
1688152531248944,0.013977264057373873,0.012634470130464592,1.0285191119249255
1688152531264924,0.011291676203555312,0.013488975356679589,1.030960555428397
1688152531280904,0.013977264057373873,0.011657892729076025,1.0315709163042648
1688152531296885,0.015686274509803866,0.013855191882200302,1.0321812771801326
1688152531312865,0.013855191882200302,0.013122758831158876,1.0288853284504462
1688152531328845,0.009582665751125319,0.015075913633936011,1.0274204623483634
1688152531344825,0.013122758831158876,0.014221408407721015,1.0293736171511405
1688152531360806,0.016662851911192433,0.013488975356679589,1.0315709163042648
1688152531376786,0.01239032578011745,0.012756542305638163,1.0323033493553062
1688152531392766,0.011902037079423167,0.014099336232547444,1.032913710231174
1688152531408752,0.013244831006332447,0.011902037079423167,1.0299839780270084
1688152531424732,0.017883573662928143,0.011413748378728883,1.0304722667277026
1688152531440713,0.013366903181506018,0.013122758831158876,1.0325474937056534
1688152531456693,0.009948882276646032,0.014587624933241727,1.026932173647669
1688152531472673,0.014709697108415298,0.013855191882200302,1.029495689326314
1688152531488653,0.018005645838101714,0.011779964904249596,1.0323033493553062
1688152531504634,0.015320057984283153,0.013488975356679589,1.0316929884794384
1688152531520614,0.010803387502861028,0.015197985809109582,1.030960555428397
1688152531536594,0.01483176928358887,0.015564202334630295,1.0274204623483634
1688152531552574,0.019226367589837423,0.012878614480811734,1.0271763179980162
1688152531568555,0.015320057984283153,0.012634470130464592,1.0314488441290912
1688152531584535,0.010437170977340315,0.013244831006332447,1.0291294728007934
1688152531600515,0.01373311970702673,0.014343480582894585,1.0291294728007934
1688152531616495,0.017273212787060288,0.012634470130464592,1.030960555428397
1688152531632475,0.013977264057373873,0.012024109254596738,1.0314488441290912
1688152531648456,0.010437170977340315,0.013977264057373873,1.0263218127718012
1688152531664436,0.012878614480811734,0.013366903181506018,1.028397039749752
1688152531680416,0.017029068436713146,0.012146181429770309,1.0305943389028762
1688152531696396,0.014587624933241727,0.01361104753185316,1.0296177615014876
1688152531712377,0.012024109254596738,0.014587624933241727,1.0304722667277026
1688152531728332,0.013366903181506018,0.012878614480811734,1.0272983901731898
1688152531744312,0.017273212787060288,0.012024109254596738,1.0282749675745784
1688152531760293,0.01605249103532458,0.013488975356679589,1.0331578545815212
1688152531776273,0.01226825360494388,0.013244831006332447,1.0282749675745784
1688152531792253,0.014587624933241727,0.012878614480811734,1.028641184100099
1688152531808233,0.01629663538567172,0.01373311970702673,1.0296177615014876
1688152531824214,0.014709697108415298,0.013122758831158876,1.0334019989318683
1688152531840194,0.0109254596780346,0.013977264057373873,1.0291294728007934
1688152531856174,0.01495384145876244,0.012512397955291021,1.0282749675745784
1688152531872154,0.016906996261539575,0.013000686655985305,1.0327916380560005
1688152531888135,0.017029068436713146,0.012146181429770309,1.0298619058518348
1688152531904115,0.011902037079423167,0.013366903181506018,1.0313267719539176
1688152531920095,0.014099336232547444,0.011535820553902454,1.0305943389028762
1688152531936075,0.01873807888914314,0.012024109254596738,1.0288853284504462
1688152531952056,0.01605249103532458,0.014343480582894585,1.0330357824063476
1688152531968036,0.011291676203555312,0.015075913633936011,1.0321812771801326
1688152531984016,0.012146181429770309,0.012878614480811734,1.0314488441290912
1688152531999996,0.017029068436713146,0.012756542305638163,1.0280308232242312
1688152532015977,0.016662851911192433,0.013855191882200302,1.0315709163042648
1688152532031957,0.013244831006332447,0.01361104753185316,1.0334019989318683
1688152532047943,0.012634470130464592,0.014343480582894585,1.029495689326314
1688152532063923,0.017151140611886717,0.013366903181506018,1.029251544975967
1688152532079903,0.015686274509803866,0.01361104753185316,1.0315709163042648
1688152532095883,0.0109254596780346,0.01361104753185316,1.0297398336766612
1688152532111864,0.012146181429770309,0.015075913633936011,1.0288853284504462
1688152532127844,0.01873807888914314,0.014099336232547444,1.0298619058518348
1688152532143824,0.01641870756084529,0.01226825360494388,1.0305943389028762
1688152532159804,0.011169604028381741,0.01373311970702673,1.028641184100099
1688152532175785,0.011291676203555312,0.014343480582894585,1.0305943389028762
1688152532191765,0.016540779736018862,0.012512397955291021,1.0307164110780498
1688152532207745,0.01605249103532458,0.01361104753185316,1.0307164110780498
1688152532223725,0.012512397955291021,0.013366903181506018,1.0279087510490577
1688152532239706,0.012512397955291021,0.013366903181506018,1.0296177615014876
1688152532255686,0.015930418860151008,0.012634470130464592,1.028641184100099
1688152532271666,0.016906996261539575,0.012024109254596738,1.0296177615014876
1688152532287646,0.011902037079423167,0.01361104753185316,1.029495689326314
1688152532303627,0.010315098802166744,0.01483176928358887,1.0297398336766612
1688152532319607,0.015808346684977437,0.013366903181506018,1.0293736171511405
1688152532335587,0.01641870756084529,0.011657892729076025,1.028641184100099
1688152532351567,0.013122758831158876,0.013000686655985305,1.029251544975967
1688152532367523,0.011169604028381741,0.013000686655985305,1.0307164110780498
1688152532383503,0.016662851911192433,0.01226825360494388,1.0319371328297855
1688152532399483,0.01739528496223386,0.012634470130464592,1.032059205004959
1688152532415464,0.013244831006332447,0.01605249103532458,1.0288853284504462
1688152532431444,0.012634470130464592,0.01483176928358887,1.0259555962462805
