Timestamp (microseconds),Gyro X (°/s),Gyro Y (°/s),Gyro Z (°/s)
1688152507757110,1.6632333867398756,1.2054627298390415,0.2899214160372594
1688152507773106,1.7242694743266611,1.266498817425827,0.2899214160372594
1688152507789102,1.6021972991530902,1.022354467078685,0.2594033722438098
1688152507805098,1.6021972991530902,0.9918364232852355,0.2899214160372594
1688152507821094,1.6632333867398756,1.1749446860455919,0.2899214160372594
1688152507837090,1.7242694743266611,1.2054627298390415,0.2899214160372594
1688152507853086,1.5716792553597543,1.0833905546654705,0.2899214160372594
1688152507869082,1.5716792553597543,0.9613183794918996,0.22888532845047393
1688152507885078,1.6937514305333252,1.144426642252256,0.19836728465702436
1688152507901074,1.6937514305333252,1.2054627298390415,0.19836728465702436
1688152507917070,1.6632333867398756,1.052872510872021,0.22888532845047393
1688152507933066,1.5716792553597543,1.022354467078685,0.2594033722438098
1688152507949062,1.7242694743266611,1.1749446860455919,0.2899214160372594
1688152507965058,1.6937514305333252,1.2054627298390415,0.2594033722438098
1688152507981054,1.5411612115663047,1.052872510872021,0.22888532845047393
1688152507997050,1.6021972991530902,0.9613183794918996,0.2594033722438098
1688152508013046,1.7242694743266611,1.1749446860455919,0.2594033722438098
1688152508029042,1.6937514305333252,1.266498817425827,0.2899214160372594
1688152508045038,1.5411612115663047,1.0833905546654705,0.22888532845047393
1688152508061034,1.5106431677729688,1.022354467078685,0.19836728465702436
1688152508077026,1.6632333867398756,1.1139085984588064,0.2594033722438098
1688152508093022,1.6937514305333252,1.1749446860455919,0.2594033722438098
1688152508109018,1.6327153429465397,1.0833905546654705,0.3204394598305953
1688152508125014,1.5106431677729688,0.9918364232852355,0.22888532845047393
1688152508141010,1.6327153429465397,1.144426642252256,0.2594033722438098
1688152508157006,1.6937514305333252,1.2054627298390415,0.2594033722438098
1688152508173002,1.6327153429465397,1.0833905546654705,0.2899214160372594
1688152508188998,1.6021972991530902,0.9918364232852355,0.2899214160372594
1688152508204994,1.6937514305333252,1.052872510872021,0.2899214160372594
1688152508220990,1.7547875181201107,1.2054627298390415,0.2594033722438098
1688152508236986,1.6021972991530902,1.022354467078685,0.2899214160372594
1688152508252982,1.5411612115663047,1.022354467078685,0.2594033722438098
1688152508268978,1.6021972991530902,1.1139085984588064,0.2899214160372594
1688152508284974,1.6937514305333252,1.2359807736323773,0.2899214160372594
1688152508300970,1.6327153429465397,1.1139085984588064,0.2594033722438098
1688152508316966,1.5411612115663047,0.9613183794918996,0.16784924086368846
1688152508332962,1.5716792553597543,1.0833905546654705,0.2594033722438098
1688152508348958,1.6632333867398756,1.2359807736323773,0.22888532845047393
1688152508364954,1.6327153429465397,1.1749446860455919,0.19836728465702436
1688152508380950,1.5716792553597543,1.022354467078685,0.2594033722438098
1688152508396881,1.6632333867398756,1.0833905546654705,0.22888532845047393
1688152508412876,1.6937514305333252,1.2054627298390415,0.2594033722438098
1688152508428872,1.5716792553597543,1.052872510872021,0.2594033722438098
1688152508444867,1.6021972991530902,0.9002822919051141,0.22888532845047393
1688152508460863,1.6327153429465397,1.0833905546654705,0.2594033722438098
1688152508476858,1.6937514305333252,1.2054627298390415,0.22888532845047393
1688152508492854,1.6632333867398756,1.0833905546654705,0.22888532845047393
1688152508508849,1.5411612115663047,0.9918364232852355,0.22888532845047393
1688152508524845,1.6021972991530902,1.1139085984588064,0.2899214160372594
1688152508540840,1.6937514305333252,1.1749446860455919,0.22888532845047393
1688152508556836,1.5716792553597543,1.0833905546654705,0.2594033722438098
1688152508572831,1.6021972991530902,1.022354467078685,0.19836728465702436
1688152508588827,1.6937514305333252,1.0833905546654705,0.3204394598305953
1688152508604822,1.7242694743266611,1.1749446860455919,0.3204394598305953
1688152508620818,1.6021972991530902,1.144426642252256,0.2899214160372594
1688152508636813,1.5411612115663047,0.9613183794918996,0.22888532845047393
1688152508652809,1.6937514305333252,1.1139085984588064,0.19836728465702436
1688152508668804,1.6937514305333252,1.2359807736323773,0.22888532845047393
1688152508684800,1.6632333867398756,1.144426642252256,0.2899214160372594
1688152508700795,1.5411612115663047,0.93080033569845,0.2594033722438098
1688152508716522,1.6327153429465397,1.052872510872021,0.19836728465702436
1688152508732516,1.6937514305333252,1.2054627298390415,0.22888532845047393
1688152508748511,1.6021972991530902,1.0833905546654705,0.22888532845047393
1688152508764505,1.5411612115663047,1.022354467078685,0.22888532845047393
1688152508780500,1.6632333867398756,1.022354467078685,0.22888532845047393
1688152508796495,1.6632333867398756,1.2054627298390415,0.22888532845047393
1688152508812489,1.6937514305333252,1.0833905546654705,0.16784924086368846
1688152508828484,1.5411612115663047,1.0833905546654705,0.22888532845047393
1688152508844478,1.6021972991530902,1.022354467078685,0.2899214160372594
1688152508860473,1.6937514305333252,1.3275349050126124,0.19836728465702436
1688152508876467,1.5411612115663047,1.1139085984588064,0.22888532845047393
1688152508892462,1.5716792553597543,0.9613183794918996,0.22888532845047393
1688152508908456,1.6327153429465397,1.2359807736323773,0.22888532845047393
1688152508924451,1.7242694743266611,0.93080033569845,0.2899214160372594
1688152508940446,1.6632333867398756,1.2970168612191628,0.22888532845047393
1688152508956440,1.5716792553597543,0.8087281605248791,0.22888532845047393
1688152508972435,1.6327153429465397,1.1749446860455919,0.22888532845047393
1688152508988429,1.6937514305333252,1.1749446860455919,0.2594033722438098
1688152509004424,1.6021972991530902,1.144426642252256,0.19836728465702436
1688152509020418,1.6021972991530902,1.1139085984588064,0.19836728465702436
1688152509036132,1.6632333867398756,0.9002822919051141,0.2594033722438098
1688152509052126,1.6327153429465397,1.3275349050126124,0.2899214160372594
1688152509068120,1.6632333867398756,1.052872510872021,0.2594033722438098
1688152509084113,1.4801251239795192,1.0833905546654705,0.22888532845047393
1688152509100107,1.6632333867398756,1.022354467078685,0.19836728465702436
1688152509116100,1.6327153429465397,1.2054627298390415,0.22888532845047393
1688152509132094,1.6937514305333252,1.144426642252256,0.19836728465702436
1688152509148088,1.5716792553597543,0.9613183794918996,0.22888532845047393
1688152509164081,1.6327153429465397,1.022354467078685,0.2594033722438098
1688152509180075,1.7547875181201107,1.1749446860455919,0.2594033722438098
1688152509196068,1.6327153429465397,1.1749446860455919,0.22888532845047393
1688152509212062,1.6327153429465397,1.022354467078685,0.2899214160372594
1688152509228056,1.6021972991530902,1.052872510872021,0.2594033722438098
1688152509244049,1.6937514305333252,1.144426642252256,0.2594033722438098
1688152509260043,1.6021972991530902,1.2359807736323773,0.2899214160372594
1688152509276036,1.5716792553597543,0.9918364232852355,0.2594033722438098
1688152509292030,1.5411612115663047,1.0833905546654705,0.2594033722438098
1688152509308024,1.7242694743266611,1.1749446860455919,0.22888532845047393
1688152509324017,1.7242694743266611,1.1139085984588064,0.2594033722438098
1688152509340011,1.5411612115663047,1.052872510872021,0.2594033722438098
1688152509355774,1.6021972991530902,1.022354467078685,0.22888532845047393
1688152509371766,1.6937514305333252,1.266498817425827,0.22888532845047393
1688152509387759,1.6632333867398756,1.1749446860455919,0.22888532845047393
1688152509403751,1.6327153429465397,1.0833905546654705,0.19836728465702436
1688152509419744,1.6021972991530902,1.0833905546654705,0.19836728465702436
1688152509435737,1.6327153429465397,1.144426642252256,0.19836728465702436
1688152509451729,1.6632333867398756,1.1749446860455919,0.22888532845047393
1688152509467722,1.5716792553597543,1.1139085984588064,0.22888532845047393
1688152509483715,1.5411612115663047,0.9918364232852355,0.22888532845047393
1688152509499707,1.6632333867398756,1.1139085984588064,0.22888532845047393
1688152509515700,1.6937514305333252,1.2054627298390415,0.22888532845047393
1688152509531693,1.6021972991530902,1.052872510872021,0.2899214160372594
1688152509547685,1.6632333867398756,0.9613183794918996,0.3204394598305953
1688152509563678,1.6937514305333252,1.1139085984588064,0.2899214160372594
1688152509579671,1.6327153429465397,1.2054627298390415,0.2594033722438098
1688152509595663,1.5716792553597543,1.022354467078685,0.2594033722438098
1688152509611656,1.6021972991530902,1.022354467078685,0.2594033722438098
1688152509627648,1.6632333867398756,1.1749446860455919,0.2594033722438098
1688152509643641,1.6632333867398756,1.2359807736323773,0.2899214160372594
1688152509659634,1.5716792553597543,1.0833905546654705,0.2899214160372594
1688152509675415,1.5716792553597543,1.022354467078685,0.2594033722438098
1688152509691406,1.6632333867398756,1.1749446860455919,0.2594033722438098
1688152509707398,1.6632333867398756,1.2054627298390415,0.22888532845047393
1688152509723390,1.6021972991530902,1.1139085984588064,0.22888532845047393
1688152509739381,1.5716792553597543,0.9918364232852355,0.2899214160372594
1688152509755373,1.6632333867398756,1.1139085984588064,0.2899214160372594
1688152509771365,1.6937514305333252,1.266498817425827,0.2899214160372594
1688152509787356,1.6021972991530902,1.1139085984588064,0.2594033722438098
1688152509803348,1.6021972991530902,1.052872510872021,0.2899214160372594
1688152509819340,1.6632333867398756,1.144426642252256,0.2594033722438098
1688152509835332,1.7242694743266611,1.2054627298390415,0.2594033722438098
1688152509851323,1.6327153429465397,1.022354467078685,0.2594033722438098
1688152509867315,1.5716792553597543,0.9918364232852355,0.22888532845047393
1688152509883307,1.6937514305333252,1.1139085984588064,0.3204394598305953
1688152509899298,1.6937514305333252,1.144426642252256,0.22888532845047393
1688152509915290,1.6632333867398756,1.0833905546654705,0.22888532845047393
1688152509931282,1.5716792553597543,1.022354467078685,0.22888532845047393
1688152509947273,1.6937514305333252,1.1139085984588064,0.19836728465702436
1688152509963265,1.7242694743266611,1.1749446860455919,0.22888532845047393
1688152509979257,1.5716792553597543,1.0833905546654705,0.2594033722438098
1688152509994995,1.5411612115663047,0.93080033569845,0.2594033722438098
1688152510010985,1.6937514305333252,1.144426642252256,0.2899214160372594
1688152510026976,1.6632333867398756,1.2359807736323773,0.2899214160372594
1688152510042967,1.5716792553597543,1.1139085984588064,0.2594033722438098
1688152510058958,1.5411612115663047,0.9613183794918996,0.16784924086368846
1688152510074948,1.6632333867398756,1.052872510872021,0.22888532845047393
1688152510090939,1.6327153429465397,1.2054627298390415,0.2899214160372594
1688152510106930,1.5716792553597543,1.1139085984588064,0.22888532845047393
1688152510122921,1.6021972991530902,1.022354467078685,0.2594033722438098
1688152510138911,1.6937514305333252,1.1749446860455919,0.2594033722438098
1688152510154902,1.7547875181201107,1.2359807736323773,0.2899214160372594
1688152510170893,1.6021972991530902,1.144426642252256,0.2594033722438098
1688152510186884,1.5716792553597543,0.9613183794918996,0.22888532845047393
1688152510202874,1.6632333867398756,1.052872510872021,0.2899214160372594
1688152510218865,1.7242694743266611,1.2054627298390415,0.22888532845047393
1688152510234856,1.6327153429465397,1.0833905546654705,0.2594033722438098
1688152510250846,1.5106431677729688,1.052872510872021,0.2899214160372594
1688152510266837,1.5716792553597543,1.0833905546654705,0.2899214160372594
1688152510282828,1.6937514305333252,1.1749446860455919,0.2594033722438098
1688152510298819,1.6327153429465397,1.0833905546654705,0.19836728465702436
1688152510314636,1.5716792553597543,0.9613183794918996,0.19836728465702436
1688152510330626,1.6632333867398756,1.0833905546654705,0.2594033722438098
1688152510346615,1.6327153429465397,1.144426642252256,0.3204394598305953
1688152510362605,1.6327153429465397,1.144426642252256,0.2899214160372594
1688152510378595,1.5716792553597543,1.052872510872021,0.19836728465702436
1688152510394585,1.6327153429465397,1.022354467078685,0.19836728465702436
1688152510410575,1.6632333867398756,1.266498817425827,0.2594033722438098
1688152510426564,1.5716792553597543,1.144426642252256,0.22888532845047393
1688152510442554,1.5411612115663047,1.022354467078685,0.22888532845047393
1688152510458544,1.6021972991530902,1.052872510872021,0.2899214160372594
1688152510474534,1.6632333867398756,1.144426642252256,0.3204394598305953
1688152510490523,1.6937514305333252,1.2054627298390415,0.16784924086368846
1688152510506513,1.5411612115663047,0.9613183794918996,0.2594033722438098
1688152510522503,1.6021972991530902,1.0833905546654705,0.22888532845047393
1688152510538493,1.6327153429465397,1.1749446860455919,0.22888532845047393
1688152510554483,1.5716792553597543,1.0833905546654705,0.22888532845047393
1688152510570472,1.6327153429465397,0.9613183794918996,0.19836728465702436
1688152510586462,1.6937514305333252,0.93080033569845,0.22888532845047393
1688152510602452,1.7547875181201107,1.1749446860455919,0.2594033722438098
1688152510618442,1.6937514305333252,1.144426642252256,0.2899214160372594
1688152510634246,1.6021972991530902,0.93080033569845,0.2899214160372594
1688152510650236,1.6632333867398756,0.9918364232852355,0.2899214160372594
1688152510666225,1.7242694743266611,1.1749446860455919,0.2594033722438098
1688152510682214,1.6632333867398756,1.144426642252256,0.22888532845047393
1688152510698204,1.5716792553597543,1.052872510872021,0.19836728465702436
1688152510714193,1.6021972991530902,0.9918364232852355,0.22888532845047393
1688152510730182,1.7242694743266611,1.2054627298390415,0.22888532845047393
1688152510746172,1.6327153429465397,1.1749446860455919,0.2899214160372594
1688152510762161,1.6021972991530902,0.9918364232852355,0.16784924086368846
1688152510778150,1.6632333867398756,1.022354467078685,0.19836728465702436
1688152510794139,1.6937514305333252,1.144426642252256,0.22888532845047393
1688152510810129,1.6327153429465397,1.2054627298390415,0.2594033722438098
1688152510826118,1.6021972991530902,0.9918364232852355,0.22888532845047393
1688152510842107,1.5716792553597543,1.0833905546654705,0.19836728465702436
1688152510858097,1.6632333867398756,1.2359807736323773,0.22888532845047393
1688152510874086,1.6327153429465397,1.1749446860455919,0.2899214160372594
1688152510890075,1.5411612115663047,1.022354467078685,0.22888532845047393
1688152510906065,1.6021972991530902,1.022354467078685,0.2594033722438098
1688152510922054,1.6937514305333252,1.2359807736323773,0.2899214160372594
1688152510938043,1.6937514305333252,1.144426642252256,0.2594033722438098
1688152510953888,1.5716792553597543,0.9918364232852355,0.2594033722438098
1688152510969876,1.6021972991530902,1.022354467078685,0.19836728465702436
1688152510985864,1.7242694743266611,1.144426642252256,0.2594033722438098
1688152511001853,1.6327153429465397,1.1139085984588064,0.22888532845047393
1688152511017841,1.5716792553597543,1.022354467078685,0.2594033722438098
1688152511033829,1.6327153429465397,0.9918364232852355,0.22888532845047393
1688152511049818,1.6937514305333252,1.1749446860455919,0.22888532845047393
1688152511065806,1.6021972991530902,1.1749446860455919,0.22888532845047393
1688152511081794,1.5716792553597543,1.022354467078685,0.22888532845047393
1688152511097783,1.6327153429465397,1.022354467078685,0.2594033722438098
1688152511113771,1.7242694743266611,1.1749446860455919,0.2594033722438098
1688152511129759,1.6327153429465397,1.2054627298390415,0.19836728465702436
1688152511145748,1.5716792553597543,1.022354467078685,0.2594033722438098
1688152511161736,1.5411612115663047,0.9918364232852355,0.22888532845047393
1688152511177724,1.6937514305333252,1.1749446860455919,0.2594033722438098
1688152511193713,1.6632333867398756,1.144426642252256,0.2899214160372594
1688152511209701,1.5716792553597543,1.052872510872021,0.2899214160372594
1688152511225690,1.5716792553597543,1.052872510872021,0.22888532845047393
1688152511241678,1.6327153429465397,1.2054627298390415,0.2899214160372594
1688152511257666,1.6632333867398756,1.144426642252256,0.2594033722438098
1688152511273529,1.6021972991530902,0.9918364232852355,0.2594033722438098
1688152511289517,1.6021972991530902,0.9918364232852355,0.2594033722438098
1688152511305504,1.7547875181201107,1.144426642252256,0.2899214160372594
1688152511321492,1.6937514305333252,1.1139085984588064,0.2594033722438098
1688152511337480,1.5411612115663047,1.0833905546654705,0.22888532845047393
1688152511353468,1.5106431677729688,1.022354467078685,0.22888532845047393
1688152511369456,1.6327153429465397,1.144426642252256,0.19836728465702436
1688152511385444,1.6937514305333252,1.144426642252256,0.22888532845047393
1688152511401432,1.5106431677729688,1.052872510872021,0.16784924086368846
1688152511417420,1.5716792553597543,1.052872510872021,0.2899214160372594
1688152511433407,1.6632333867398756,1.1749446860455919,0.2899214160372594
1688152511449395,1.7547875181201107,1.2054627298390415,0.2594033722438098
1688152511465383,1.6021972991530902,1.052872510872021,0.2899214160372594
1688152511481371,1.5716792553597543,1.022354467078685,0.22888532845047393
1688152511497359,1.6937514305333252,1.144426642252256,0.22888532845047393
1688152511513347,1.6632333867398756,1.2054627298390415,0.2594033722438098
1688152511529335,1.5716792553597543,1.052872510872021,0.22888532845047393
1688152511545323,1.5411612115663047,0.9613183794918996,0.2899214160372594
1688152511561310,1.7547875181201107,1.144426642252256,0.3204394598305953
1688152511577298,1.6937514305333252,1.2359807736323773,0.2899214160372594
1688152511593109,1.5716792553597543,1.022354467078685,0.2594033722438098
1688152511609096,1.5411612115663047,1.052872510872021,0.19836728465702436
1688152511625084,1.6937514305333252,1.0833905546654705,0.22888532845047393
1688152511641071,1.6632333867398756,1.2054627298390415,0.2594033722438098
1688152511657058,1.6021972991530902,1.022354467078685,0.2594033722438098
1688152511673046,1.5411612115663047,0.9613183794918996,0.2594033722438098
1688152511689033,1.6327153429465397,1.144426642252256,0.2594033722438098
1688152511705021,1.6327153429465397,1.1749446860455919,0.2899214160372594
1688152511721008,1.6021972991530902,1.0833905546654705,0.22888532845047393
1688152511736995,1.5106431677729688,0.9918364232852355,0.22888532845047393
1688152511752983,1.6632333867398756,1.1749446860455919,0.2594033722438098
1688152511768970,1.6937514305333252,1.2359807736323773,0.22888532845047393
1688152511784958,1.6021972991530902,1.1139085984588064,0.2594033722438098
1688152511800945,1.5716792553597543,1.022354467078685,0.2594033722438098
1688152511816932,1.6937514305333252,1.1139085984588064,0.3204394598305953
1688152511832920,1.7242694743266611,1.2359807736323773,0.2899214160372594
1688152511848907,1.6021972991530902,1.0833905546654705,0.22888532845047393
1688152511864894,1.5716792553597543,0.9613183794918996,0.22888532845047393
1688152511880882,1.6327153429465397,1.1139085984588064,0.22888532845047393
1688152511896869,1.6327153429465397,1.2054627298390415,0.2899214160372594
1688152511912750,1.6632333867398756,1.0833905546654705,0.3204394598305953
1688152511928737,1.5716792553597543,0.9918364232852355,0.3204394598305953
1688152511944724,1.6632333867398756,1.1139085984588064,0.2594033722438098
1688152511960711,1.7242694743266611,1.144426642252256,0.16784924086368846
1688152511976698,1.6327153429465397,1.1749446860455919,0.22888532845047393
1688152511992684,1.5411612115663047,0.93080033569845,0.2594033722438098
1688152512008671,1.7547875181201107,1.144426642252256,0.2899214160372594
1688152512024658,1.7547875181201107,1.2054627298390415,0.3509575036240449
1688152512040645,1.6937514305333252,1.1139085984588064,0.2594033722438098
1688152512056632,1.5716792553597543,0.9918364232852355,0.16784924086368846
1688152512072619,1.6632333867398756,1.052872510872021,0.19836728465702436
1688152512088606,1.6632333867398756,1.2054627298390415,0.22888532845047393
1688152512104593,1.6632333867398756,1.0833905546654705,0.22888532845047393
1688152512120580,1.6021972991530902,0.9918364232852355,0.2594033722438098
1688152512136567,1.6021972991530902,1.052872510872021,0.2594033722438098
1688152512152554,1.6937514305333252,1.2054627298390415,0.19836728465702436
1688152512168541,1.6632333867398756,1.0833905546654705,0.19836728465702436
1688152512184527,1.5411612115663047,0.93080033569845,0.22888532845047393
1688152512200514,1.7242694743266611,1.052872510872021,0.22888532845047393
1688152512216501,1.7242694743266611,1.1749446860455919,0.2594033722438098
1688152512232360,1.6632333867398756,1.144426642252256,0.2594033722438098
1688152512248347,1.5411612115663047,0.9613183794918996,0.2899214160372594
1688152512264333,1.6327153429465397,1.052872510872021,0.2594033722438098
1688152512280320,1.7547875181201107,1.1749446860455919,0.2899214160372594
1688152512296306,1.6327153429465397,1.1139085984588064,0.2594033722438098
1688152512312293,1.6021972991530902,0.9918364232852355,0.2594033722438098
1688152512328279,1.6632333867398756,0.9918364232852355,0.2899214160372594
1688152512344266,1.6632333867398756,1.1749446860455919,0.22888532845047393
1688152512360252,1.6632333867398756,1.144426642252256,0.22888532845047393
1688152512376238,1.5716792553597543,0.9918364232852355,0.2899214160372594
1688152512392225,1.6327153429465397,1.022354467078685,0.2899214160372594
1688152512408211,1.6937514305333252,1.2054627298390415,0.2899214160372594
1688152512424198,1.6937514305333252,1.144426642252256,0.22888532845047393
1688152512440184,1.5411612115663047,1.052872510872021,0.2594033722438098
1688152512456171,1.6327153429465397,0.9918364232852355,0.2899214160372594
1688152512472157,1.6937514305333252,1.2359807736323773,0.2594033722438098
1688152512488144,1.7242694743266611,1.1749446860455919,0.19836728465702436
1688152512504130,1.6327153429465397,0.93080033569845,0.22888532845047393
1688152512520116,1.5716792553597543,1.052872510872021,0.2594033722438098
1688152512536103,1.6937514305333252,1.1139085984588064,0.2899214160372594
1688152512551971,1.6937514305333252,1.2054627298390415,0.2594033722438098
1688152512567957,1.5411612115663047,0.9613183794918996,0.2899214160372594
1688152512583943,1.6021972991530902,1.022354467078685,0.2594033722438098
1688152512599929,1.7547875181201107,1.2359807736323773,0.2594033722438098
1688152512615915,1.7242694743266611,1.1749446860455919,0.19836728465702436
1688152512631901,1.5716792553597543,0.9918364232852355,0.19836728465702436
1688152512647887,1.6327153429465397,0.9918364232852355,0.2594033722438098
1688152512663873,1.6632333867398756,1.0833905546654705,0.2594033722438098
1688152512679859,1.7242694743266611,1.2359807736323773,0.22888532845047393
1688152512695845,1.5716792553597543,0.9918364232852355,0.2594033722438098
1688152512711831,1.6632333867398756,1.052872510872021,0.2594033722438098
1688152512727817,1.7242694743266611,1.144426642252256,0.22888532845047393
1688152512743803,1.7242694743266611,1.2359807736323773,0.19836728465702436
1688152512759789,1.6632333867398756,1.0833905546654705,0.19836728465702436
1688152512775775,1.6327153429465397,0.9918364232852355,0.22888532845047393
1688152512791761,1.7853055619134466,1.144426642252256,0.22888532845047393
1688152512807747,1.6937514305333252,1.144426642252256,0.2594033722438098
1688152512823732,1.6632333867398756,1.0833905546654705,0.2899214160372594
1688152512839718,1.6021972991530902,1.022354467078685,0.2899214160372594
1688152512855704,1.6937514305333252,1.144426642252256,0.3204394598305953
1688152512871582,1.7547875181201107,1.1749446860455919,0.2594033722438098
1688152512887567,1.6021972991530902,1.0833905546654705,0.22888532845047393
1688152512903553,1.6327153429465397,0.9918364232852355,0.22888532845047393
1688152512919538,1.6632333867398756,1.2359807736323773,0.2594033722438098
1688152512935524,1.6327153429465397,1.144426642252256,0.3204394598305953
1688152512951509,1.6327153429465397,1.0833905546654705,0.2594033722438098
1688152512967495,1.5716792553597543,0.9613183794918996,0.2594033722438098
1688152512983480,1.6327153429465397,1.0833905546654705,0.22888532845047393
1688152512999466,1.6632333867398756,1.1749446860455919,0.2594033722438098
1688152513015451,1.6327153429465397,1.052872510872021,0.2594033722438098
1688152513031437,1.6632333867398756,1.052872510872021,0.22888532845047393
1688152513047422,1.6937514305333252,1.0833905546654705,0.22888532845047393
1688152513063408,1.7242694743266611,1.1749446860455919,0.22888532845047393
1688152513079393,1.6327153429465397,1.052872510872021,0.3204394598305953
1688152513095379,1.6021972991530902,1.022354467078685,0.2899214160372594
1688152513111364,1.7242694743266611,1.144426642252256,0.2899214160372594
1688152513127349,1.6632333867398756,1.0833905546654705,0.2899214160372594
1688152513143335,1.6632333867398756,1.0833905546654705,0.2899214160372594
1688152513159320,1.6021972991530902,0.9613183794918996,0.2899214160372594
1688152513175306,1.6632333867398756,1.2054627298390415,0.2594033722438098
1688152513191192,1.7547875181201107,1.144426642252256,0.2594033722438098
1688152513207177,1.6021972991530902,1.052872510872021,0.2594033722438098
1688152513223162,1.6021972991530902,0.9613183794918996,0.22888532845047393
1688152513239147,1.6632333867398756,1.144426642252256,0.2899214160372594
1688152513255132,1.7547875181201107,1.1749446860455919,0.2899214160372594
1688152513271117,1.6021972991530902,1.0833905546654705,0.2594033722438098
1688152513287102,1.6327153429465397,1.052872510872021,0.2594033722438098
1688152513303087,1.6937514305333252,1.1749446860455919,0.22888532845047393
1688152513319072,1.6632333867398756,1.2970168612191628,0.22888532845047393
1688152513335057,1.5716792553597543,1.052872510872021,0.2899214160372594
1688152513351042,1.5411612115663047,0.9918364232852355,0.2594033722438098
1688152513367027,1.6937514305333252,1.1749446860455919,0.2594033722438098
1688152513383012,1.6937514305333252,1.1749446860455919,0.2594033722438098
1688152513398997,1.6021972991530902,1.1139085984588064,0.22888532845047393
1688152513414982,1.5411612115663047,1.022354467078685,0.2594033722438098
1688152513430967,1.6632333867398756,1.144426642252256,0.2899214160372594
1688152513446952,1.7547875181201107,1.1749446860455919,0.2899214160372594
1688152513462937,1.6327153429465397,1.0833905546654705,0.2594033722438098
1688152513478922,1.5716792553597543,1.0833905546654705,0.2594033722438098
1688152513494907,1.6632333867398756,1.0833905546654705,0.2899214160372594
1688152513510803,1.6937514305333252,1.2359807736323773,0.2594033722438098
1688152513526787,1.6327153429465397,1.1139085984588064,0.22888532845047393
1688152513542772,1.6327153429465397,1.022354467078685,0.22888532845047393
1688152513558756,1.6937514305333252,1.1139085984588064,0.3204394598305953
1688152513574741,1.6632333867398756,1.1749446860455919,0.2594033722438098
1688152513590726,1.6632333867398756,1.144426642252256,0.2594033722438098
1688152513606710,1.5106431677729688,0.93080033569845,0.2594033722438098
1688152513622695,1.6327153429465397,1.0833905546654705,0.2899214160372594
1688152513638679,1.7242694743266611,1.2054627298390415,0.2899214160372594
1688152513654664,1.5716792553597543,1.052872510872021,0.2899214160372594
1688152513670648,1.5716792553597543,1.052872510872021,0.2594033722438098
1688152513686633,1.6021972991530902,1.022354467078685,0.2594033722438098
1688152513702617,1.6632333867398756,1.266498817425827,0.2899214160372594
1688152513718602,1.6632333867398756,1.0833905546654705,0.19836728465702436
1688152513734586,1.5411612115663047,0.93080033569845,0.16784924086368846
1688152513750571,1.6632333867398756,1.052872510872021,0.22888532845047393
1688152513766555,1.6937514305333252,1.144426642252256,0.2899214160372594
1688152513782540,1.6632333867398756,1.1749446860455919,0.3204394598305953
1688152513798524,1.5411612115663047,0.9918364232852355,0.2899214160372594
1688152513814509,1.6632333867398756,1.0833905546654705,0.19836728465702436
1688152513830413,1.6937514305333252,1.144426642252256,0.22888532845047393
1688152513846398,1.6327153429465397,1.0833905546654705,0.19836728465702436
1688152513862383,1.6021972991530902,1.052872510872021,0.19836728465702436
1688152513878367,1.6327153429465397,1.052872510872021,0.2594033722438098
1688152513894352,1.7853055619134466,1.1749446860455919,0.3204394598305953
1688152513910336,1.6327153429465397,1.2054627298390415,0.3204394598305953
1688152513926321,1.5716792553597543,0.9918364232852355,0.2594033722438098
1688152513942305,1.6021972991530902,1.052872510872021,0.22888532845047393
1688152513958290,1.6632333867398756,1.144426642252256,0.2899214160372594
1688152513974274,1.6632333867398756,1.1139085984588064,0.2899214160372594
1688152513990259,1.5411612115663047,0.9918364232852355,0.2594033722438098
1688152514006243,1.5716792553597543,1.022354467078685,0.3204394598305953
1688152514022228,1.6632333867398756,1.266498817425827,0.22888532845047393
1688152514038212,1.6021972991530902,1.144426642252256,0.2594033722438098
1688152514054197,1.5716792553597543,1.022354467078685,0.3204394598305953
1688152514070181,1.6327153429465397,1.052872510872021,0.22888532845047393
1688152514086166,1.6632333867398756,1.052872510872021,0.3509575036240449
1688152514102151,1.6021972991530902,1.3580529488059483,0.2594033722438098
1688152514118135,1.5411612115663047,0.8697642481116645,0.22888532845047393
1688152514134120,1.6632333867398756,1.0833905546654705,0.19836728465702436
1688152514150055,1.7853055619134466,1.1139085984588064,0.19836728465702436
1688152514166039,1.6021972991530902,1.052872510872021,0.19836728465702436
1688152514182023,1.6327153429465397,1.022354467078685,0.2594033722438098
1688152514198007,1.5716792553597543,0.8697642481116645,0.2594033722438098
1688152514213991,1.6632333867398756,1.266498817425827,0.2594033722438098
1688152514229975,1.6937514305333252,1.0833905546654705,0.2899214160372594
1688152514245959,1.5716792553597543,1.0833905546654705,0.22888532845047393
1688152514261943,1.6021972991530902,0.9613183794918996,0.22888532845047393
1688152514277927,1.6937514305333252,1.266498817425827,0.22888532845047393
1688152514293911,1.6937514305333252,1.1749446860455919,0.2899214160372594
1688152514309895,1.4801251239795192,1.052872510872021,0.22888532845047393
1688152514325879,1.6632333867398756,1.052872510872021,0.2899214160372594
1688152514341863,1.6632333867398756,1.1139085984588064,0.2594033722438098
1688152514357847,1.6632333867398756,1.266498817425827,0.22888532845047393
1688152514373831,1.6327153429465397,0.9613183794918996,0.19836728465702436
1688152514389815,1.5716792553597543,1.052872510872021,0.19836728465702436
1688152514405799,1.7242694743266611,1.1749446860455919,0.2594033722438098
1688152514421784,1.6632333867398756,1.144426642252256,0.22888532845047393
1688152514437768,1.5716792553597543,1.022354467078685,0.19836728465702436
1688152514453752,1.5716792553597543,1.022354467078685,0.2594033722438098
1688152514469635,1.6937514305333252,1.1749446860455919,0.22888532845047393
1688152514485618,1.7242694743266611,1.144426642252256,0.2899214160372594
1688152514501602,1.6327153429465397,1.022354467078685,0.3204394598305953
1688152514517585,1.6021972991530902,1.022354467078685,0.2899214160372594
1688152514533569,1.6937514305333252,1.052872510872021,0.2899214160372594
1688152514549553,1.6937514305333252,1.3275349050126124,0.3204394598305953
1688152514565536,1.5716792553597543,0.9918364232852355,0.2899214160372594
1688152514581520,1.5716792553597543,1.144426642252256,0.2899214160372594
1688152514597503,1.7242694743266611,1.144426642252256,0.2899214160372594
1688152514613487,1.6021972991530902,1.2359807736323773,0.22888532845047393
1688152514629470,1.6021972991530902,1.022354467078685,0.2594033722438098
1688152514645454,1.6021972991530902,0.8697642481116645,0.22888532845047393
1688152514661438,1.7242694743266611,1.1749446860455919,0.2594033722438098
1688152514677421,1.7242694743266611,1.0833905546654705,0.3204394598305953
1688152514693405,1.5716792553597543,1.1139085984588064,0.3204394598305953
1688152514709388,1.5411612115663047,0.9613183794918996,0.3204394598305953
1688152514725372,1.6632333867398756,1.2054627298390415,0.3509575036240449
1688152514741356,1.7242694743266611,1.144426642252256,0.3509575036240449
1688152514757339,1.6021972991530902,1.0833905546654705,0.2594033722438098
1688152514773323,1.5716792553597543,0.9918364232852355,0.3204394598305953
1688152514789245,1.6327153429465397,1.052872510872021,0.3509575036240449
1688152514805229,1.6327153429465397,1.2970168612191628,0.2899214160372594
1688152514821212,1.6937514305333252,0.9918364232852355,0.22888532845047393
1688152514837196,1.5411612115663047,0.9613183794918996,0.2594033722438098
1688152514853180,1.7242694743266611,1.144426642252256,0.3204394598305953
1688152514869163,1.6021972991530902,1.1749446860455919,0.3204394598305953
1688152514885147,1.6021972991530902,1.0833905546654705,0.2594033722438098
1688152514901130,1.5411612115663047,0.9613183794918996,0.2594033722438098
1688152514917114,1.6937514305333252,1.144426642252256,0.2594033722438098
1688152514933097,1.6937514305333252,1.1749446860455919,0.2899214160372594
1688152514949081,1.5716792553597543,1.1139085984588064,0.2594033722438098
1688152514965065,1.6021972991530902,0.9613183794918996,0.2594033722438098
1688152514981048,1.7242694743266611,1.1749446860455919,0.2899214160372594
1688152514997032,1.7547875181201107,1.2970168612191628,0.3204394598305953
1688152515013015,1.6632333867398756,1.1139085984588064,0.2899214160372594
1688152515028999,1.5716792553597543,1.022354467078685,0.2899214160372594
1688152515044983,1.6327153429465397,1.052872510872021,0.3204394598305953
1688152515060966,1.7242694743266611,1.4190890363927338,0.3204394598305953
1688152515076950,1.6327153429465397,1.0833905546654705,0.2899214160372594
1688152515092933,1.4801251239795192,0.93080033569845,0.2594033722438098
1688152515108856,1.6937514305333252,1.144426642252256,0.2594033722438098
1688152515124839,1.6021972991530902,1.0833905546654705,0.2594033722438098
1688152515140822,1.6632333867398756,1.1749446860455919,0.2594033722438098
1688152515156805,1.5716792553597543,0.8392462043183286,0.2594033722438098
1688152515172788,1.6937514305333252,1.2054627298390415,0.22888532845047393
1688152515188771,1.7242694743266611,1.1749446860455919,0.2594033722438098
1688152515204754,1.6021972991530902,1.1139085984588064,0.2594033722438098
1688152515220738,1.6632333867398756,0.9918364232852355,0.2594033722438098
1688152515236721,1.6632333867398756,0.9918364232852355,0.2899214160372594
1688152515252704,1.7853055619134466,1.266498817425827,0.2594033722438098
1688152515268687,1.5411612115663047,1.0833905546654705,0.22888532845047393
1688152515284670,1.5106431677729688,1.0833905546654705,0.2594033722438098
1688152515300653,1.6632333867398756,1.0833905546654705,0.22888532845047393
1688152515316636,1.6632333867398756,1.2054627298390415,0.19836728465702436
1688152515332619,1.6327153429465397,1.144426642252256,0.22888532845047393
1688152515348602,1.5716792553597543,0.9613183794918996,0.2899214160372594
1688152515364586,1.6937514305333252,1.1139085984588064,0.2594033722438098
1688152515380569,1.7242694743266611,1.2054627298390415,0.2594033722438098
1688152515396552,1.6632333867398756,1.144426642252256,0.2594033722438098
1688152515412535,1.6632333867398756,0.9002822919051141,0.2594033722438098
1688152515428466,1.6327153429465397,1.052872510872021,0.22888532845047393
1688152515444450,1.6937514305333252,1.144426642252256,0.2899214160372594
1688152515460433,1.5716792553597543,1.144426642252256,0.2899214160372594
1688152515476416,1.5716792553597543,1.052872510872021,0.2899214160372594
1688152515492399,1.6632333867398756,1.052872510872021,0.2899214160372594
1688152515508382,1.7853055619134466,1.266498817425827,0.3204394598305953
1688152515524365,1.6021972991530902,1.1139085984588064,0.2899214160372594
1688152515540348,1.5411612115663047,1.0833905546654705,0.2899214160372594
1688152515556331,1.6021972991530902,1.052872510872021,0.2594033722438098
1688152515572314,1.6937514305333252,1.1749446860455919,0.2594033722438098
1688152515588297,1.6632333867398756,1.144426642252256,0.2594033722438098
1688152515604281,1.5716792553597543,0.9918364232852355,0.2899214160372594
1688152515620264,1.6632333867398756,0.9918364232852355,0.2594033722438098
1688152515636247,1.6937514305333252,1.2359807736323773,0.22888532845047393
1688152515652230,1.6937514305333252,1.144426642252256,0.2899214160372594
1688152515668213,1.5716792553597543,1.022354467078685,0.2594033722438098
1688152515684196,1.6632333867398756,1.052872510872021,0.22888532845047393
1688152515700179,1.6937514305333252,1.1139085984588064,0.22888532845047393
1688152515716162,1.6021972991530902,1.144426642252256,0.2594033722438098
1688152515732145,1.5106431677729688,0.9613183794918996,0.22888532845047393
1688152515748077,1.6327153429465397,1.1139085984588064,0.3204394598305953
1688152515764060,1.6937514305333252,1.144426642252256,0.2594033722438098
1688152515780042,1.6632333867398756,1.2359807736323773,0.2594033722438098
1688152515796025,1.5411612115663047,1.052872510872021,0.19836728465702436
1688152515812008,1.6021972991530902,1.022354467078685,0.2594033722438098
1688152515827990,1.6937514305333252,1.1749446860455919,0.2899214160372594
1688152515843973,1.6937514305333252,1.144426642252256,0.2899214160372594
1688152515859955,1.6021972991530902,1.0833905546654705,0.2594033722438098
1688152515875938,1.6327153429465397,1.022354467078685,0.2594033722438098
1688152515891921,1.6021972991530902,1.1139085984588064,0.2899214160372594
1688152515907903,1.6632333867398756,1.144426642252256,0.3509575036240449
1688152515923886,1.5106431677729688,0.9613183794918996,0.2899214160372594
1688152515939869,1.6021972991530902,1.052872510872021,0.2899214160372594
1688152515955851,1.6937514305333252,1.1749446860455919,0.2594033722438098
1688152515971834,1.6937514305333252,1.1749446860455919,0.22888532845047393
1688152515987816,1.6021972991530902,1.022354467078685,0.2594033722438098
1688152516003799,1.6632333867398756,0.9918364232852355,0.2594033722438098
1688152516019782,1.7242694743266611,1.144426642252256,0.19836728465702436
1688152516035764,1.6937514305333252,1.2054627298390415,0.2594033722438098
1688152516051747,1.6021972991530902,1.052872510872021,0.2594033722438098
1688152516067718,1.6021972991530902,0.9613183794918996,0.19836728465702436
1688152516083701,1.6632333867398756,1.1749446860455919,0.2594033722438098
1688152516099683,1.7242694743266611,1.2054627298390415,0.2594033722438098
1688152516115666,1.5716792553597543,1.0833905546654705,0.2899214160372594
1688152516131649,1.5106431677729688,0.9918364232852355,0.2594033722438098
1688152516147631,1.6632333867398756,1.1749446860455919,0.2594033722438098
1688152516163614,1.7242694743266611,1.1749446860455919,0.2594033722438098
1688152516179597,1.5716792553597543,1.052872510872021,0.22888532845047393
1688152516195579,1.6327153429465397,1.0833905546654705,0.22888532845047393
1688152516211562,1.6632333867398756,1.1139085984588064,0.2899214160372594
1688152516227544,1.7242694743266611,1.266498817425827,0.19836728465702436
1688152516243527,1.5716792553597543,1.022354467078685,0.22888532845047393
1688152516259510,1.5716792553597543,1.052872510872021,0.16784924086368846
1688152516275492,1.6937514305333252,1.1139085984588064,0.2594033722438098
1688152516291475,1.6937514305333252,1.2359807736323773,0.2594033722438098
1688152516307458,1.5716792553597543,1.022354467078685,0.19836728465702436
1688152516323440,1.6021972991530902,0.9918364232852355,0.22888532845047393
1688152516339423,1.7242694743266611,1.1749446860455919,0.2899214160372594
1688152516355405,1.6632333867398756,1.144426642252256,0.2594033722438098
1688152516371388,1.5411612115663047,1.0833905546654705,0.2594033722438098
1688152516387329,1.5716792553597543,0.9918364232852355,0.2899214160372594
1688152516403311,1.6937514305333252,1.2054627298390415,0.2594033722438098
1688152516419294,1.7242694743266611,1.1749446860455919,0.19836728465702436
1688152516435277,1.6327153429465397,1.052872510872021,0.22888532845047393
1688152516451259,1.5716792553597543,0.93080033569845,0.19836728465702436
1688152516467242,1.6021972991530902,1.144426642252256,0.2899214160372594
1688152516483224,1.6937514305333252,1.2054627298390415,0.2594033722438098
1688152516499207,1.5411612115663047,1.022354467078685,0.2594033722438098
1688152516515190,1.5411612115663047,1.022354467078685,0.2899214160372594
1688152516531172,1.6632333867398756,1.1749446860455919,0.2594033722438098
1688152516547155,1.7242694743266611,1.2359807736323773,0.2594033722438098
1688152516563138,1.5716792553597543,1.1139085984588064,0.22888532845047393
1688152516579120,1.5106431677729688,0.9918364232852355,0.22888532845047393
1688152516595103,1.7242694743266611,1.1139085984588064,0.2594033722438098
1688152516611086,1.7242694743266611,1.2359807736323773,0.2594033722438098
1688152516627068,1.5716792553597543,1.0833905546654705,0.16784924086368846
1688152516643051,1.5106431677729688,0.93080033569845,0.19836728465702436
1688152516659033,1.6632333867398756,1.1749446860455919,0.3204394598305953
1688152516675016,1.6632333867398756,1.144426642252256,0.2899214160372594
1688152516690999,1.6021972991530902,1.144426642252256,0.2594033722438098
1688152516706939,1.5106431677729688,0.9002822919051141,0.19836728465702436
1688152516722921,1.6327153429465397,1.144426642252256,0.22888532845047393
1688152516738904,1.7242694743266611,1.2054627298390415,0.19836728465702436
1688152516754886,1.5411612115663047,1.022354467078685,0.19836728465702436
1688152516770868,1.5716792553597543,1.022354467078685,0.22888532845047393
1688152516786850,1.6021972991530902,0.9918364232852355,0.2899214160372594
1688152516802832,1.7547875181201107,1.3580529488059483,0.3204394598305953
1688152516818814,1.6021972991530902,1.0833905546654705,0.2594033722438098
1688152516834797,1.5716792553597543,0.9613183794918996,0.19836728465702436
1688152516850779,1.6937514305333252,1.0833905546654705,0.22888532845047393
1688152516866761,1.7547875181201107,1.2359807736323773,0.2594033722438098
1688152516882743,1.6327153429465397,1.0833905546654705,0.22888532845047393
1688152516898725,1.5106431677729688,0.93080033569845,0.19836728465702436
1688152516914707,1.6632333867398756,1.0833905546654705,0.2899214160372594
1688152516930689,1.7242694743266611,1.2359807736323773,0.22888532845047393
1688152516946672,1.6937514305333252,1.144426642252256,0.2594033722438098
1688152516962654,1.5411612115663047,0.93080033569845,0.22888532845047393
1688152516978636,1.6021972991530902,1.0833905546654705,0.2594033722438098
1688152516994618,1.7547875181201107,1.2359807736323773,0.3204394598305953
1688152517010600,1.6632333867398756,1.0833905546654705,0.2594033722438098
1688152517026519,1.5411612115663047,0.93080033569845,0.2899214160372594
1688152517042502,1.6632333867398756,0.9918364232852355,0.3204394598305953
1688152517058484,1.6937514305333252,1.2970168612191628,0.22888532845047393
1688152517074466,1.6327153429465397,1.1139085984588064,0.22888532845047393
1688152517090448,1.5106431677729688,0.9613183794918996,0.2594033722438098
1688152517106430,1.6632333867398756,1.022354467078685,0.3509575036240449
1688152517122412,1.6937514305333252,1.2054627298390415,0.22888532845047393
1688152517138394,1.6021972991530902,1.1749446860455919,0.2594033722438098
1688152517154377,1.4801251239795192,0.9918364232852355,0.2594033722438098
1688152517170359,1.6021972991530902,1.022354467078685,0.2594033722438098
1688152517186341,1.7242694743266611,1.2054627298390415,0.3204394598305953
1688152517202323,1.6632333867398756,1.144426642252256,0.2594033722438098
1688152517218305,1.6021972991530902,1.0833905546654705,0.22888532845047393
1688152517234287,1.6327153429465397,0.9918364232852355,0.22888532845047393
1688152517250270,1.7242694743266611,1.266498817425827,0.2899214160372594
1688152517266252,1.6937514305333252,1.052872510872021,0.2594033722438098
1688152517282234,1.5411612115663047,1.022354467078685,0.22888532845047393
1688152517298216,1.6327153429465397,0.9918364232852355,0.2594033722438098
1688152517314198,1.6937514305333252,1.2054627298390415,0.22888532845047393
1688152517330180,1.7547875181201107,1.1749446860455919,0.19836728465702436
1688152517346130,1.5411612115663047,0.9613183794918996,0.22888532845047393
1688152517362112,1.5716792553597543,1.1139085984588064,0.2594033722438098
1688152517378094,1.6632333867398756,1.144426642252256,0.2594033722438098
1688152517394076,1.6632333867398756,1.2359807736323773,0.22888532845047393
1688152517410059,1.5411612115663047,0.9613183794918996,0.22888532845047393
1688152517426041,1.5716792553597543,1.052872510872021,0.2594033722438098
1688152517442023,1.7547875181201107,1.1749446860455919,0.19836728465702436
1688152517458005,1.6632333867398756,1.144426642252256,0.2594033722438098
1688152517473987,1.5716792553597543,1.0833905546654705,0.19836728465702436
1688152517489969,1.5716792553597543,0.9613183794918996,0.2594033722438098
1688152517505952,1.7242694743266611,1.1749446860455919,0.2594033722438098
1688152517521934,1.6937514305333252,1.1139085984588064,0.22888532845047393
1688152517537916,1.5716792553597543,1.022354467078685,0.22888532845047393
1688152517553898,1.5411612115663047,0.9918364232852355,0.2594033722438098
1688152517569880,1.6327153429465397,1.144426642252256,0.2899214160372594
1688152517585862,1.6937514305333252,1.1749446860455919,0.3204394598305953
1688152517601844,1.6021972991530902,0.9918364232852355,0.2594033722438098
1688152517617827,1.5716792553597543,0.9918364232852355,0.22888532845047393
1688152517633809,1.6632333867398756,1.144426642252256,0.2899214160372594
1688152517649791,1.6021972991530902,1.1749446860455919,0.22888532845047393
1688152517665741,1.6021972991530902,1.052872510872021,0.2594033722438098
1688152517681722,1.5716792553597543,0.9613183794918996,0.2594033722438098
1688152517697704,1.6937514305333252,1.2054627298390415,0.2899214160372594
1688152517713686,1.6937514305333252,1.1749446860455919,0.22888532845047393
1688152517729667,1.6021972991530902,1.052872510872021,0.19836728465702436
1688152517745649,1.6021972991530902,0.9918364232852355,0.22888532845047393
1688152517761631,1.7242694743266611,1.1749446860455919,0.2594033722438098
1688152517777612,1.8158236057068962,1.144426642252256,0.3204394598305953
1688152517793594,1.5716792553597543,0.93080033569845,0.2899214160372594
1688152517809576,1.6021972991530902,1.0833905546654705,0.2899214160372594
1688152517825557,1.6937514305333252,1.1139085984588064,0.2899214160372594
1688152517841539,1.6327153429465397,1.2970168612191628,0.2594033722438098
1688152517857521,1.5716792553597543,0.9918364232852355,0.2594033722438098
1688152517873502,1.6021972991530902,1.052872510872021,0.2594033722438098
1688152517889484,1.7242694743266611,1.144426642252256,0.2899214160372594
1688152517905466,1.6632333867398756,1.1749446860455919,0.2899214160372594
1688152517921447,1.6632333867398756,1.022354467078685,0.2594033722438098
1688152517937429,1.6021972991530902,0.9002822919051141,0.2594033722438098
1688152517953411,1.7242694743266611,1.2359807736323773,0.3204394598305953
1688152517969392,1.6327153429465397,1.1139085984588064,0.3204394598305953
1688152517985351,1.6021972991530902,1.052872510872021,0.2594033722438098
1688152518001333,1.5716792553597543,0.9613183794918996,0.22888532845047393
1688152518017315,1.6327153429465397,1.2054627298390415,0.2594033722438098
1688152518033296,1.6937514305333252,1.2359807736323773,0.3204394598305953
1688152518049278,1.5411612115663047,1.1139085984588064,0.19836728465702436
1688152518065260,1.5716792553597543,1.022354467078685,0.2899214160372594
1688152518081241,1.6937514305333252,1.1139085984588064,0.2899214160372594
1688152518097223,1.6937514305333252,1.266498817425827,0.2594033722438098
1688152518113205,1.6021972991530902,1.052872510872021,0.19836728465702436
1688152518129186,1.5106431677729688,0.9918364232852355,0.22888532845047393
1688152518145168,1.6937514305333252,1.1139085984588064,0.3204394598305953
1688152518161150,1.7242694743266611,1.2054627298390415,0.22888532845047393
1688152518177131,1.5716792553597543,1.052872510872021,0.22888532845047393
1688152518193113,1.5106431677729688,0.9002822919051141,0.2594033722438098
1688152518209095,1.7242694743266611,1.1139085984588064,0.22888532845047393
1688152518225076,1.6937514305333252,1.1749446860455919,0.2899214160372594
1688152518241058,1.5716792553597543,1.052872510872021,0.2594033722438098
1688152518257040,1.5411612115663047,0.9613183794918996,0.2899214160372594
1688152518273021,1.7242694743266611,1.0833905546654705,0.2899214160372594
1688152518289003,1.6632333867398756,1.144426642252256,0.2899214160372594
1688152518304962,1.5716792553597543,1.1749446860455919,0.19836728465702436
1688152518320943,1.6327153429465397,0.9613183794918996,0.2594033722438098
1688152518336925,1.6021972991530902,1.1139085984588064,0.2594033722438098
1688152518352907,1.6937514305333252,1.1749446860455919,0.2594033722438098
1688152518368888,1.6021972991530902,1.0833905546654705,0.22888532845047393
1688152518384870,1.5411612115663047,0.9918364232852355,0.2594033722438098
1688152518400852,1.6327153429465397,1.052872510872021,0.2594033722438098
1688152518416834,1.7242694743266611,1.2054627298390415,0.2899214160372594
1688152518432815,1.6327153429465397,1.022354467078685,0.2594033722438098
1688152518448797,1.6021972991530902,1.022354467078685,0.22888532845047393
1688152518464779,1.6327153429465397,1.022354467078685,0.2594033722438098
1688152518480760,1.7242694743266611,1.266498817425827,0.16784924086368846
1688152518496742,1.6327153429465397,1.052872510872021,0.2899214160372594
1688152518512724,1.5411612115663047,1.052872510872021,0.2594033722438098
1688152518528705,1.6327153429465397,1.052872510872021,0.2899214160372594
1688152518544687,1.6327153429465397,1.1749446860455919,0.2594033722438098
1688152518560669,1.5716792553597543,1.1139085984588064,0.3204394598305953
1688152518576650,1.5106431677729688,0.9613183794918996,0.2899214160372594
1688152518592632,1.6937514305333252,1.144426642252256,0.2594033722438098
1688152518608614,1.6937514305333252,1.2359807736323773,0.19836728465702436
1688152518624542,1.6327153429465397,1.144426642252256,0.16784924086368846
1688152518640524,1.5411612115663047,0.9918364232852355,0.19836728465702436
1688152518656505,1.6021972991530902,1.052872510872021,0.2594033722438098
1688152518672487,1.7547875181201107,1.144426642252256,0.2594033722438098
1688152518688469,1.6327153429465397,1.144426642252256,0.22888532845047393
1688152518704450,1.6021972991530902,0.9613183794918996,0.19836728465702436
1688152518720432,1.6632333867398756,1.1139085984588064,0.22888532845047393
1688152518736414,1.6632333867398756,1.1749446860455919,0.2899214160372594
1688152518752395,1.6632333867398756,1.144426642252256,0.2594033722438098
1688152518768377,1.5411612115663047,0.93080033569845,0.19836728465702436
1688152518784359,1.6327153429465397,1.052872510872021,0.2899214160372594
1688152518800340,1.7242694743266611,1.2359807736323773,0.22888532845047393
1688152518816322,1.6327153429465397,1.1139085984588064,0.19836728465702436
1688152518832304,1.5716792553597543,0.9918364232852355,0.19836728465702436
1688152518848285,1.6632333867398756,1.022354467078685,0.19836728465702436
1688152518864267,1.7242694743266611,1.1139085984588064,0.22888532845047393
1688152518880249,1.6632333867398756,1.2359807736323773,0.22888532845047393
1688152518896230,1.5106431677729688,0.9002822919051141,0.2594033722438098
1688152518912212,1.6632333867398756,1.1139085984588064,0.22888532845047393
1688152518928194,1.7242694743266611,1.2054627298390415,0.22888532845047393
1688152518944152,1.6021972991530902,1.0833905546654705,0.22888532845047393
1688152518960134,1.5411612115663047,1.052872510872021,0.2594033722438098
1688152518976115,1.5106431677729688,0.9918364232852355,0.2594033722438098
1688152518992096,1.7242694743266611,1.266498817425827,0.22888532845047393
1688152519008077,1.6327153429465397,1.0833905546654705,0.22888532845047393
1688152519024058,1.5716792553597543,0.9918364232852355,0.22888532845047393
1688152519040040,1.6021972991530902,1.022354467078685,0.19836728465702436
1688152519056021,1.6632333867398756,1.2054627298390415,0.19836728465702436
1688152519072002,1.6937514305333252,1.144426642252256,0.19836728465702436
1688152519087983,1.5411612115663047,0.9918364232852355,0.19836728465702436
1688152519103964,1.6632333867398756,1.022354467078685,0.2594033722438098
1688152519119946,1.6937514305333252,1.144426642252256,0.2899214160372594
1688152519135927,1.6937514305333252,1.1749446860455919,0.2899214160372594
1688152519151908,1.5716792553597543,1.022354467078685,0.2594033722438098
1688152519167889,1.6021972991530902,1.1139085984588064,0.19836728465702436
1688152519183870,1.6937514305333252,1.1749446860455919,0.22888532845047393
1688152519199852,1.6327153429465397,1.1139085984588064,0.2594033722438098
1688152519215833,1.5411612115663047,1.022354467078685,0.2594033722438098
1688152519231814,1.6021972991530902,0.9918364232852355,0.22888532845047393
1688152519247795,1.6937514305333252,1.1749446860455919,0.19836728465702436
1688152519263763,1.6937514305333252,1.1749446860455919,0.2594033722438098
1688152519279744,1.6021972991530902,1.052872510872021,0.19836728465702436
1688152519295725,1.6327153429465397,1.022354467078685,0.19836728465702436
1688152519311707,1.6327153429465397,1.1749446860455919,0.22888532845047393
1688152519327688,1.6632333867398756,1.2054627298390415,0.22888532845047393
1688152519343669,1.6327153429465397,1.022354467078685,0.2594033722438098
1688152519359650,1.6021972991530902,0.9613183794918996,0.22888532845047393
1688152519375631,1.7242694743266611,1.144426642252256,0.22888532845047393
1688152519391613,1.6937514305333252,1.1749446860455919,0.2594033722438098
1688152519407594,1.5716792553597543,0.9918364232852355,0.19836728465702436
1688152519423575,1.6021972991530902,0.9918364232852355,0.19836728465702436
1688152519439556,1.7242694743266611,1.1749446860455919,0.19836728465702436
1688152519455537,1.6632333867398756,1.1749446860455919,0.2899214160372594
1688152519471519,1.5411612115663047,1.022354467078685,0.22888532845047393
1688152519487500,1.5716792553597543,1.022354467078685,0.2594033722438098
1688152519503481,1.6937514305333252,1.1749446860455919,0.2594033722438098
1688152519519462,1.6632333867398756,1.2054627298390415,0.2594033722438098
1688152519535443,1.6021972991530902,1.0833905546654705,0.2594033722438098
1688152519551425,1.6021972991530902,0.9918364232852355,0.22888532845047393
1688152519567406,1.6937514305333252,1.2054627298390415,0.2899214160372594
1688152519583404,1.6937514305333252,1.2054627298390415,0.2899214160372594
1688152519599385,1.5411612115663047,1.052872510872021,0.2594033722438098
1688152519615367,1.6021972991530902,1.052872510872021,0.22888532845047393
1688152519631348,1.6632333867398756,1.144426642252256,0.3204394598305953
1688152519647329,1.6937514305333252,1.2054627298390415,0.2899214160372594
1688152519663310,1.5716792553597543,1.052872510872021,0.2594033722438098
1688152519679291,1.6021972991530902,1.052872510872021,0.2594033722438098
1688152519695273,1.6021972991530902,1.144426642252256,0.2594033722438098
1688152519711254,1.6937514305333252,1.2054627298390415,0.2899214160372594
1688152519727235,1.5106431677729688,1.052872510872021,0.2594033722438098
1688152519743216,1.6021972991530902,0.9613183794918996,0.16784924086368846
1688152519759197,1.6021972991530902,1.144426642252256,0.22888532845047393
1688152519775179,1.6632333867398756,1.2054627298390415,0.2899214160372594
1688152519791160,1.5716792553597543,1.0833905546654705,0.2899214160372594
1688152519807141,1.5716792553597543,0.9918364232852355,0.22888532845047393
1688152519823122,1.6327153429465397,1.144426642252256,0.22888532845047393
1688152519839103,1.6327153429465397,1.144426642252256,0.22888532845047393
1688152519855085,1.6327153429465397,0.9918364232852355,0.19836728465702436
1688152519871066,1.6327153429465397,1.022354467078685,0.22888532845047393
1688152519887047,1.6632333867398756,1.0833905546654705,0.2594033722438098
1688152519902984,1.6632333867398756,1.2359807736323773,0.2594033722438098
1688152519918965,1.6327153429465397,1.052872510872021,0.2594033722438098
1688152519934947,1.6021972991530902,0.9613183794918996,0.2899214160372594
1688152519950928,1.7242694743266611,1.144426642252256,0.22888532845047393
1688152519966909,1.6632333867398756,1.1749446860455919,0.2594033722438098
1688152519982890,1.6021972991530902,1.1139085984588064,0.22888532845047393
1688152519998871,1.5716792553597543,0.93080033569845,0.2594033722438098
1688152520014853,1.6632333867398756,1.0833905546654705,0.2594033722438098
1688152520030834,1.7547875181201107,1.1139085984588064,0.2594033722438098
1688152520046815,1.6021972991530902,1.1749446860455919,0.16784924086368846
1688152520062796,1.5411612115663047,0.9613183794918996,0.2899214160372594
1688152520078777,1.6327153429465397,1.2054627298390415,0.2899214160372594
1688152520094759,1.7242694743266611,1.2054627298390415,0.22888532845047393
1688152520110740,1.6021972991530902,1.0833905546654705,0.19836728465702436
1688152520126721,1.6021972991530902,0.9613183794918996,0.16784924086368846
1688152520142702,1.6327153429465397,1.022354467078685,0.22888532845047393
1688152520158683,1.7242694743266611,1.2359807736323773,0.22888532845047393
1688152520174665,1.6021972991530902,1.022354467078685,0.22888532845047393
1688152520190646,1.5716792553597543,0.93080033569845,0.22888532845047393
1688152520206627,1.6632333867398756,0.9918364232852355,0.2899214160372594
1688152520222625,1.7547875181201107,1.2359807736323773,0.2899214160372594
1688152520238607,1.6632333867398756,1.0833905546654705,0.19836728465702436
1688152520254588,1.6021972991530902,0.9613183794918996,0.22888532845047393
1688152520270569,1.7853055619134466,1.0833905546654705,0.2594033722438098
1688152520286550,1.7242694743266611,1.2359807736323773,0.22888532845047393
1688152520302531,1.6327153429465397,1.1749446860455919,0.22888532845047393
1688152520318513,1.5411612115663047,0.93080033569845,0.2594033722438098
1688152520334494,1.5716792553597543,1.0833905546654705,0.19836728465702436
1688152520350475,1.7853055619134466,1.1749446860455919,0.2594033722438098
1688152520366456,1.6327153429465397,1.052872510872021,0.2899214160372594
1688152520382437,1.5411612115663047,0.93080033569845,0.2594033722438098
1688152520398419,1.6327153429465397,1.052872510872021,0.2899214160372594
1688152520414400,1.6937514305333252,1.2054627298390415,0.2594033722438098
1688152520430381,1.6021972991530902,1.0833905546654705,0.2594033722438098
1688152520446362,1.6327153429465397,0.9613183794918996,0.22888532845047393
1688152520462343,1.6632333867398756,0.9918364232852355,0.22888532845047393
1688152520478325,1.7242694743266611,1.2054627298390415,0.2899214160372594
1688152520494306,1.6021972991530902,1.0833905546654705,0.2594033722438098
1688152520510287,1.5716792553597543,1.0833905546654705,0.19836728465702436
1688152520526268,1.6021972991530902,0.9918364232852355,0.19836728465702436
1688152520542236,1.6327153429465397,1.1749446860455919,0.19836728465702436
1688152520558217,1.6937514305333252,1.144426642252256,0.2594033722438098
1688152520574198,1.4801251239795192,0.93080033569845,0.19836728465702436
1688152520590180,1.6327153429465397,1.0833905546654705,0.22888532845047393
1688152520606161,1.6632333867398756,1.0833905546654705,0.22888532845047393
1688152520622142,1.6937514305333252,1.1749446860455919,0.22888532845047393
1688152520638123,1.6021972991530902,0.9613183794918996,0.2899214160372594
1688152520654104,1.5716792553597543,1.022354467078685,0.2594033722438098
1688152520670086,1.6937514305333252,1.1139085984588064,0.2594033722438098
1688152520686067,1.6021972991530902,1.144426642252256,0.2594033722438098
1688152520702048,1.5106431677729688,0.9613183794918996,0.2594033722438098
1688152520718029,1.5716792553597543,1.022354467078685,0.2899214160372594
1688152520734010,1.7242694743266611,1.1749446860455919,0.2899214160372594
1688152520749992,1.6632333867398756,1.1749446860455919,0.2594033722438098
1688152520765973,1.5106431677729688,0.9918364232852355,0.2594033722438098
1688152520781954,1.5411612115663047,0.9613183794918996,0.2594033722438098
1688152520797935,1.6632333867398756,1.2359807736323773,0.22888532845047393
1688152520813916,1.6937514305333252,1.2054627298390415,0.22888532845047393
1688152520829898,1.5411612115663047,0.9613183794918996,0.22888532845047393
1688152520845879,1.5411612115663047,1.052872510872021,0.19836728465702436
1688152520861847,1.6327153429465397,1.1749446860455919,0.2594033722438098
1688152520877828,1.6632333867398756,1.2359807736323773,0.2594033722438098
1688152520893809,1.5106431677729688,0.9613183794918996,0.22888532845047393
1688152520909790,1.5411612115663047,1.022354467078685,0.22888532845047393
1688152520925771,1.6632333867398756,1.1749446860455919,0.19836728465702436
1688152520941753,1.6327153429465397,1.1139085984588064,0.2594033722438098
1688152520957734,1.6021972991530902,1.0833905546654705,0.2594033722438098
1688152520973715,1.6021972991530902,0.9002822919051141,0.22888532845047393
1688152520989696,1.7242694743266611,1.2054627298390415,0.22888532845047393
1688152521005677,1.6937514305333252,1.144426642252256,0.22888532845047393
1688152521021659,1.5411612115663047,1.052872510872021,0.22888532845047393
1688152521037640,1.6021972991530902,0.9918364232852355,0.22888532845047393
1688152521053621,1.6632333867398756,1.1749446860455919,0.2899214160372594
1688152521069602,1.6632333867398756,1.2054627298390415,0.22888532845047393
1688152521085583,1.5716792553597543,0.9613183794918996,0.19836728465702436
1688152521101565,1.6327153429465397,1.052872510872021,0.22888532845047393
1688152521117546,1.6632333867398756,1.0833905546654705,0.2594033722438098
1688152521133527,1.6632333867398756,1.2359807736323773,0.2594033722438098
1688152521149508,1.5411612115663047,1.052872510872021,0.2899214160372594
1688152521165489,1.6327153429465397,0.9918364232852355,0.2594033722438098
1688152521181427,1.6632333867398756,1.144426642252256,0.2594033722438098
1688152521197407,1.6632333867398756,1.1749446860455919,0.2899214160372594
1688152521213388,1.6021972991530902,1.022354467078685,0.22888532845047393
1688152521229369,1.6632333867398756,0.93080033569845,0.19836728465702436
1688152521245350,1.7242694743266611,1.1139085984588064,0.2899214160372594
1688152521261330,1.6632333867398756,1.144426642252256,0.2594033722438098
1688152521277311,1.6021972991530902,1.052872510872021,0.2594033722438098
1688152521293292,1.6021972991530902,0.9613183794918996,0.22888532845047393
1688152521309272,1.6632333867398756,1.144426642252256,0.22888532845047393
1688152521325253,1.7242694743266611,1.1749446860455919,0.19836728465702436
1688152521341234,1.5716792553597543,1.022354467078685,0.2899214160372594
1688152521357215,1.5106431677729688,0.9613183794918996,0.22888532845047393
1688152521373195,1.6632333867398756,1.1139085984588064,0.2899214160372594
1688152521389176,1.7242694743266611,1.1749446860455919,0.2899214160372594
1688152521405157,1.5716792553597543,1.022354467078685,0.2899214160372594
1688152521421137,1.6632333867398756,0.9613183794918996,0.2899214160372594
1688152521437118,1.6327153429465397,1.1139085984588064,0.3204394598305953
1688152521453099,1.6937514305333252,1.2359807736323773,0.2899214160372594
1688152521469080,1.5411612115663047,1.052872510872021,0.2899214160372594
1688152521485060,1.5411612115663047,0.9918364232852355,0.22888532845047393
1688152521501037,1.5716792553597543,1.144426642252256,0.19836728465702436
1688152521517018,1.6632333867398756,1.1749446860455919,0.22888532845047393
1688152521532999,1.6937514305333252,1.1139085984588064,0.22888532845047393
1688152521548979,1.6021972991530902,1.052872510872021,0.22888532845047393
1688152521564960,1.6327153429465397,1.0833905546654705,0.19836728465702436
1688152521580941,1.846341649500232,1.3275349050126124,0.22888532845047393
1688152521596922,1.6327153429465397,1.0833905546654705,0.22888532845047393
1688152521612902,1.6327153429465397,0.9918364232852355,0.22888532845047393
1688152521628883,1.4801251239795192,1.052872510872021,0.2594033722438098
1688152521644864,1.846341649500232,1.2359807736323773,0.2899214160372594
1688152521660844,1.6327153429465397,1.144426642252256,0.19836728465702436
1688152521676825,1.6021972991530902,0.9002822919051141,0.2594033722438098
1688152521692806,1.7853055619134466,1.1139085984588064,0.2899214160372594
1688152521708787,1.3885709925993979,1.1749446860455919,0.22888532845047393
1688152521724767,1.7853055619134466,1.1749446860455919,0.2594033722438098
1688152521740748,1.5106431677729688,1.052872510872021,0.2594033722438098
1688152521756729,1.6937514305333252,1.0833905546654705,0.16784924086368846
1688152521772709,1.7242694743266611,1.1749446860455919,0.22888532845047393
1688152521788690,1.6021972991530902,1.144426642252256,0.22888532845047393
1688152521804671,1.4801251239795192,0.9613183794918996,0.22888532845047393
1688152521820648,1.7242694743266611,1.2054627298390415,0.2594033722438098
1688152521836629,1.7853055619134466,1.1139085984588064,0.2899214160372594
1688152521852609,1.5106431677729688,1.0833905546654705,0.19836728465702436
1688152521868590,1.6021972991530902,0.9613183794918996,0.22888532845047393
1688152521884571,1.6937514305333252,1.0833905546654705,0.2899214160372594
1688152521900551,1.7547875181201107,1.2359807736323773,0.2594033722438098
1688152521916532,1.6021972991530902,1.052872510872021,0.19836728465702436
1688152521932513,1.5411612115663047,0.8697642481116645,0.19836728465702436
1688152521948494,1.6937514305333252,1.144426642252256,0.2899214160372594
1688152521964474,-0.07629510948345342,-0.07629510948345342,1.5411612115663047
1688152521980455,-15.36583504997327,-14.267185473411132,30.350194552529047
1688152521996436,4.3183031967651,-0.2594033722438098,49.60708018616015
1688152522012416,8.194094758525921,8.255130846112706,55.130846112764175
1688152522028397,3.921568627450938,3.9520866712443876,48.05065995269706
1688152522044378,4.013122758831173,3.9520866712443876,37.644007019150195
1688152522060359,3.372243839169869,4.1046768902112944,50.1564049744411
1688152522076339,-1.6021972991530902,0.6256198977645226,54.032196536202036
1688152522092320,1.8768596932936816,4.470893415732007,50.217441062028
1688152522108301,4.257267109178315,3.768978408484031,72.70923933775839
1688152522124282,8.407721065079727,7.370107576104374,102.12863355458921
1688152522140228,8.377203021286277,4.470893415732007,115.64812695506225
1688152522156209,13.717860685130063,7.827878233005208,6.424048218509142
1688152522172189,38.986800946059475,-1.5716792553597543,-149.34004730296795
1688152522188170,14.66392004272518,-1.2970168612191628,-102.89158464942398
1688152522204151,-9.811551079575793,-2.9144731822690346,-93.52254520485235
1688152522220131,8.712901503013654,-7.125963225757232,-139.33012893873502
1688152522236112,-4.013122758831173,-9.56740672922865,-169.0241855497062
1688152522252093,0.16784924086368846,-5.966277561608308,-207.141222247654
1688152522268074,8.926527809567347,4.989700160219741,-237.35408560311294
1688152522284054,-3.6469062333104603,5.325398641947004,-238.14755474174115
1688152522300035,6.72922865644307,17.959868772411596,-214.19089036392768
1688152522316016,-10.940718699931267,70.02365148393983,-177.23353933012902
1688152522331997,-37.430380712596275,70.11520561532006,-170.5806057831693
1688152522347977,-65.53749904631115,22.049286640726223,-175.49401083390558
1688152522363958,-34.16495002670331,-53.51338979171442,-163.1647211413748
1688152522379939,-42.43533989471268,-71.97680628671696,-128.86243991760125
1688152522395919,-31.937132829785583,26.53543907835501,-96.66590371557186
1688152522411900,103.10521095597778,-33.18837262531474,-64.40833142595557
1688152522427881,24.063477531090257,-29.70931563286797,-20.187685969329436
1688152522443862,126.05477988860912,-33.31044480048831,38.31540398260472
1688152522459838,12.497138933394353,-13.99252307927054,23.483634699015738
1688152522475819,1.937895780880467,2.182040131227609,7.278553444724139
1688152522491800,-0.6256198977645226,2.8229190508887996,6.790264744029855
1688152522507781,58.82352941176464,32.30334935530641,12.436102845807568
1688152522523761,-10.147249561303056,-87.78515297169452,24.917982757305253
1688152522539742,29.37361715114048,64.4388494697489,18.02090485999838
1688152522555723,-67.30754558632793,26.199740596627635,-4.776073853665935
1688152522571704,6.790264744029855,-11.062790875104838,-9.475852597848416
1688152522587684,21.438925764858368,14.57236591134506,-2.7008468757152286
1688152522603665,16.098268101014696,0.9613183794918996,1.2054627298390415
1688152522619646,-14.57236591134506,-4.379339284351886,-0.07629510948345342
1688152522635626,0.6866559853513081,0.44251163500416624,0.2899214160372594
1688152522651607,7.55321583886473,1.9073777370870175,0.41199359121083035
1688152522667588,-3.341725795376533,1.2359807736323773,0.19836728465702436
1688152522683569,4.379339284351886,1.022354467078685,0.22888532845047393
1688152522699549,-0.1373311970702389,1.2359807736323773,0.2594033722438098
1688152522715530,1.7242694743266611,1.0833905546654705,0.38147554741738077
1688152522731511,1.6937514305333252,1.144426642252256,0.2899214160372594
1688152522747491,0.9918364232852355,1.144426642252256,0.22888532845047393
1688152522763472,2.1210040436408235,1.1139085984588064,0.22888532845047393
1688152522779449,0.9002822919051141,1.0833905546654705,0.2594033722438098
1688152522795430,1.9989318684672526,1.1139085984588064,0.2594033722438098
1688152522811411,1.1749446860455919,1.1139085984588064,0.22888532845047393
1688152522827391,1.7242694743266611,1.0833905546654705,0.3204394598305953
1688152522843372,1.3580529488059483,1.1139085984588064,0.2899214160372594
1688152522859353,1.6327153429465397,1.1139085984588064,0.22888532845047393
1688152522875333,3.5248340581368893,-0.16784924086368846,0.16784924086368846
1688152522891314,18.783855954833257,-9.140154116121153,-5.386434729533789
1688152522907295,22.171358815899794,-9.018081940947582,-24.826428625925132
1688152522923276,12.436102845807568,-4.623483634699028,-37.00312809948878
1688152522939256,4.470893415732007,-1.846341649500232,-35.90447852292664
1688152522955237,1.1749446860455919,-1.2970168612191628,-39.84130617227436
1688152522971218,15.121690699626129,5.630579079880931,-54.09323262378882
1688152522987198,-38.98680094605936,15.76256961928732,-55.37499046311132
1688152523003179,-6.759746700236519,3.891050583657602,-40.543221179522334
1688152523019160,-2.3956664377813013,1.0833905546654705,-13.778896772716848
1688152523035141,10.238803692683291,-5.874723430228073,-0.9918364232852355
1688152523051121,6.363012130922357,-10.208285648889841,5.2338445105668825
1688152523067102,-3.4943160143434397,-15.274280918593035,4.287785152971651
1688152523083083,23.30052643625538,2.6703288319218927,15.396353093766606
1688152523099060,-10.208285648889841,25.98611429007383,50.46158541237514
1688152523115040,-3.921568627450938,20.4623483634698,66.45304036011294
1688152523131021,8.987563897154132,6.851300831616641,52.9945830472268
1688152523147002,-6.1493858243686645,4.654001678492364,28.427557793545247
1688152523162983,-2.5787747005416577,-1.4801251239795192,6.546120393682713
1688152523178963,-6.515602349889377,1.1139085984588064,0.8697642481116645
1688152523194944,1.7242694743266611,0.19836728465702436,0.106813153276903
1688152523210925,-4.440375371938671,-1.2970168612191628,-0.7171740291447577
1688152523226905,-3.1891355764095124,0.7476920729380936,-0.07629510948345342
1688152523242886,-10.421911955443647,-5.203326466773433,-20.0961318379492
1688152523258867,12.405584802014118,-0.2594033722438098,-28.36652170595869
1688152523274848,-5.813687342641288,1.8768596932936816,-30.685893034256537
1688152523290828,8.74341954680699,-1.2054627298390415,-43.13725490196077
1688152523306809,-1.8158236057068962,0.4730296787976158,-47.89806973373015
1688152523322790,5.294880598153668,-0.2899214160372594,-44.08331425955589
1688152523338770,-0.22888532845047393,2.1210040436408235,-32.27283131151296
1688152523354751,11.520561532005786,0.8697642481116645,-11.154345006485073
1688152523370732,-2.7008468757152286,1.9073777370870175,-0.9918364232852355
1688152523386713,4.013122758831173,0.8392462043183286,0.015259021896667946
1688152523402693,1.2054627298390415,1.144426642252256,0.2899214160372594
1688152523418670,0.6866559853513081,1.052872510872021,0.3204394598305953
1688152523434651,-21.98825055313955,-1.4190890363927338,0.4730296787976158
1688152523450632,-10.025177386129485,-4.379339284351886,-0.07629510948345342
1688152523466612,-1.3275349050126124,3.3112077515830833,-0.16784924086368846
1688152523482593,4.257267109178315,7.55321583886473,0.41199359121083035
1688152523498574,31.32677195391784,-0.2899214160372594,0.6256198977645226
1688152523514555,3.128099488822727,2.3651483939879654,0.045777065690117524
1688152523530535,7.919432364385443,1.2054627298390415,0.6561379415579722
1688152523546516,-2.6092927443351073,2.090485999847374,8.010986495765565
1688152523562497,3.677424277103796,0.5645838101777372,16.220340276188267
1688152523578477,-0.1373311970702389,1.2359807736323773,5.661097123674381
1688152523594458,2.7008468757152286,1.0833905546654705,0.9918364232852355
1688152523610439,1.7242694743266611,0.9918364232852355,0.4730296787976158
1688152523626420,1.1749446860455919,1.144426642252256,0.3204394598305953
1688152523642400,2.4567025253680868,1.052872510872021,0.22888532845047393
1688152523658381,1.1749446860455919,1.2054627298390415,0.3204394598305953
1688152523674362,1.937895780880467,1.0833905546654705,0.2594033722438098
1688152523690343,1.3580529488059483,1.2054627298390415,0.3509575036240449
1688152523706323,1.937895780880467,1.1139085984588064,0.2594033722438098
1688152523722304,1.6021972991530902,1.144426642252256,0.2899214160372594
1688152523738250,1.3885709925993979,1.1139085984588064,0.2899214160372594
1688152523754231,1.937895780880467,1.052872510872021,0.22888532845047393
1688152523770212,1.5411612115663047,1.1749446860455919,0.2899214160372594
1688152523786193,1.846341649500232,1.1139085984588064,0.2899214160372594
1688152523802173,1.4801251239795192,1.1139085984588064,0.3509575036240449
1688152523818154,1.6021972991530902,1.144426642252256,0.3204394598305953
1688152523834135,1.7853055619134466,1.1139085984588064,0.3204394598305953
1688152523850115,1.5716792553597543,1.1139085984588064,0.2899214160372594
1688152523866096,1.5716792553597543,1.0833905546654705,0.2594033722438098
1688152523882077,1.6327153429465397,1.0833905546654705,0.3204394598305953
1688152523898058,1.6327153429465397,1.0833905546654705,0.3204394598305953
1688152523914038,1.7547875181201107,1.1139085984588064,0.3204394598305953
1688152523930019,1.5411612115663047,1.1139085984588064,0.22888532845047393
1688152523946000,1.6021972991530902,1.022354467078685,0.2899214160372594
1688152523961980,1.6632333867398756,1.0833905546654705,0.2899214160372594
1688152523977961,1.7547875181201107,1.1139085984588064,0.2594033722438098
1688152523993942,1.5411612115663047,1.144426642252256,0.2594033722438098
1688152524009923,1.6327153429465397,1.144426642252256,0.2899214160372594
1688152524025903,1.6937514305333252,1.0833905546654705,0.2594033722438098
1688152524041884,1.6021972991530902,1.0833905546654705,0.2899214160372594
1688152524057861,1.6327153429465397,1.1139085984588064,0.3204394598305953
1688152524073842,1.4496070801861833,1.1139085984588064,0.3509575036240449
1688152524089822,1.8158236057068962,1.0833905546654705,0.3204394598305953
1688152524105803,1.6327153429465397,1.0833905546654705,0.3204394598305953
1688152524121784,1.6021972991530902,1.1139085984588064,0.2899214160372594
1688152524137765,1.6021972991530902,1.1139085984588064,0.2594033722438098
1688152524153745,1.6937514305333252,1.0833905546654705,0.2594033722438098
1688152524169726,1.7242694743266611,1.0833905546654705,0.3204394598305953
1688152524185707,1.5716792553597543,1.1139085984588064,0.2899214160372594
1688152524201687,1.5411612115663047,1.1139085984588064,0.2594033722438098
1688152524217668,1.5716792553597543,1.052872510872021,0.2594033722438098
1688152524233649,1.6632333867398756,1.1139085984588064,0.3204394598305953
1688152524249630,23.84985122453645,-13.565270466163042,5.813687342641288
1688152524265610,59.83062485694677,-3.250171663996298,22.110322728313008
1688152524281591,252.73517967498287,49.82070649271395,-22.934309910734783
1688152524297572,234.63797970550104,20.431830319676465,-42.98466468299375
1688152524313552,69.74898908979935,1.7242694743266611,-27.634088654917264
1688152524329533,17.318989852750406,-32.39490348668653,-35.32463569085223
1688152524345514,-33.554589150835454,-23.178454261081924,-17.31898985275052
1688152524361495,15.487907225146841,-12.00885023270007,-7.797360189211872
1688152524377502,18.87541008621338,0.38147554741738077,-5.203326466773433
1688152524393483,3.799496452277367,13.138017853055544,2.5177386129548722
1688152524409464,-0.6256198977645226,23.30052643625538,29.098954757
1688152524425444,-1.5411612115663047,14.724956130311966,0.41199359121083035
1688152524441425,17.13588158999005,5.996795605401644,-26.840619516289053
1688152524457406,59.28130006866559,16.220340276188267,-43.28984512092768
1688152524473386,138.65873197528026,40.268558785381856,-81.74258030060275
1688152524489367,72.0683604180972,82.38345922026383,-115.43450064850845
1688152524505348,-85.92355230029762,126.05477988860912,-111.61974517433441
1688152524521329,-121.72121766994735,143.32799267566952,-87.87670710307475
1688152524537309,-168.13916227969787,203.41802090486,-97.64248111696043
1688152524553290,-320.881971465629,122.88090333409627,-115.22087434195475
1688152524569271,-350.45395590142664,-270.1609826810102,-88.97535667963689
1688152524585251,-226.36758983749144,-492.2102693217365,-8.285648889906156
1688152524601232,-96.29968719005115,-420.1571679255359,57.694361791409165
1688152524617213,-101.7013809414816,-241.29091325246054,101.57930876630826
1688152524633194,-117.20454718852523,-84.79438467994203,139.42168307011525
1688152524649174,-9.750514991989007,73.19752803845267,99.99237048905184
1688152524665155,10.910200656137931,75.15068284122981,85.58785381857024
1688152524681136,15.854123750667554,-8.010986495765565,59.555962462806065
1688152524697082,40.23804074158852,-87.96826123445487,26.749065384908818
1688152524713063,61.081864652475815,-76.58503089951932,0.2594033722438098
1688152524729044,76.82917524986647,0.9918364232852355,-19.913023575188845
1688152524745024,72.58716716258482,68.43671320668341,-29.526207370107613
1688152524761005,46.70786602578778,99.01579308766327,-22.903791866941333
1688152524776986,10.025177386129485,75.15068284122981,-24.734874494544897
1688152524792966,2.090485999847374,51.743343251697524,-29.617761501487735
1688152524808947,6.027313649195094,55.252918287937746,-35.446707866025804
1688152524824928,15.76256961928732,55.74120698863203,-30.655374990463088
1688152524840909,16.220340276188267,54.91721980621037,-19.546807049668132
1688152524856889,11.795223926146264,55.28343633173108,-5.142290379186647
1688152524872870,-7.644769970244852,57.7859159227894,6.637674525062948
1688152524888851,-12.558175020981139,51.71282520790419,22.690165560387527
1688152524904832,15.823605706874105,68.74189364461745,28.54962996871882
1688152524920812,36.301213092240914,48.50843060959801,21.072709239337655
1688152524936793,51.83489738307776,0.44251163500416624,14.145113298237561
1688152524952774,47.47081712062254,-16.22034027618838,25.375753414205974
1688152524968754,53.086137178606805,3.0365453574426056,30.25864042114881
1688152524984735,72.55664911879148,48.44739452201111,34.775310902571164
1688152525000716,67.73479819943532,73.28908216983291,32.79163805600069
1688152525016693,3.921568627450938,40.146486610208285,43.32036316472113
1688152525032673,-37.49141680018306,53.208209353780376,47.68444342717635
1688152525048654,-28.21393148699167,79.42320897230479,56.83985656519417
1688152525064635,126.17685206378269,115.70916304264892,52.38422217135894
1688152525080616,71.61058976119625,-4.592965590905578,44.14435034714279
1688152525096596,49.11879148546586,-27.512016479743693,27.359426260776672
1688152525112577,51.77386129549109,-173.20515754940118,-13.962005035477205
1688152525128558,-113.14564736400405,-267.0786602578776,-21.86617837796598
1688152525144539,44.48004882887017,-302.388036926833,-22.476539253833835
1688152525160519,-33.92080567635617,21.103227283131105,-8.77393759060044
1688152525176500,-17.074845502403377,8.316166933699492,-0.38147554741738077
1688152525192481,-1.2359807736323773,-1.8158236057068962,0.19836728465702436
1688152525208461,1.2054627298390415,1.6937514305333252,0.2594033722438098
1688152525224442,1.5411612115663047,1.2054627298390415,0.22888532845047393
1688152525240423,1.5716792553597543,1.0833905546654705,0.2899214160372594
1688152525256404,1.6327153429465397,1.144426642252256,0.2899214160372594
1688152525272384,1.6632333867398756,1.052872510872021,0.3204394598305953
1688152525288365,1.6327153429465397,0.9613183794918996,0.2899214160372594
1688152525304346,1.6327153429465397,1.1139085984588064,0.2594033722438098
1688152525320326,1.6021972991530902,1.052872510872021,0.2594033722438098
1688152525336303,1.5716792553597543,1.022354467078685,0.2899214160372594
1688152525352284,1.6021972991530902,0.9918364232852355,0.3204394598305953
1688152525368265,1.6021972991530902,1.022354467078685,0.3509575036240449
1688152525384245,1.6327153429465397,1.0833905546654705,0.2899214160372594
1688152525400226,1.6327153429465397,1.022354467078685,0.2594033722438098
1688152525416207,1.6327153429465397,0.9918364232852355,0.2594033722438098
1688152525432188,1.6327153429465397,1.0833905546654705,0.22888532845047393
1688152525448168,1.6021972991530902,1.052872510872021,0.2899214160372594
1688152525464149,1.6327153429465397,0.9613183794918996,0.2594033722438098
1688152525480130,1.6021972991530902,0.9918364232852355,0.2594033722438098
1688152525496111,1.6327153429465397,1.052872510872021,0.2594033722438098
1688152525512091,1.6937514305333252,0.9918364232852355,0.3204394598305953
1688152525528072,1.6937514305333252,0.9613183794918996,0.3204394598305953
1688152525544053,1.6327153429465397,0.9613183794918996,0.2594033722438098
1688152525560033,1.6632333867398756,1.022354467078685,0.2899214160372594
1688152525576014,1.6632333867398756,1.022354467078685,0.2899214160372594
1688152525591995,1.6327153429465397,1.022354467078685,0.2899214160372594
1688152525607976,1.6021972991530902,0.9613183794918996,0.2899214160372594
1688152525623956,1.5411612115663047,1.022354467078685,0.2899214160372594
1688152525639937,1.6021972991530902,1.052872510872021,0.2594033722438098
1688152525655914,1.6327153429465397,1.022354467078685,0.19836728465702436
1688152525671895,1.6327153429465397,0.9918364232852355,0.2594033722438098
1688152525687875,1.6632333867398756,0.9918364232852355,0.2899214160372594
1688152525703856,1.6632333867398756,1.0833905546654705,0.2899214160372594
1688152525719837,1.6632333867398756,0.9918364232852355,0.2594033722438098
1688152525735818,1.6021972991530902,0.9613183794918996,0.2594033722438098
1688152525751798,1.6327153429465397,0.9613183794918996,0.2899214160372594
1688152525767779,1.6632333867398756,1.022354467078685,0.2899214160372594
1688152525783760,1.6632333867398756,0.9918364232852355,0.3204394598305953
1688152525799740,1.6937514305333252,0.93080033569845,0.38147554741738077
1688152525815721,1.6021972991530902,0.9613183794918996,0.2594033722438098
1688152525831702,1.6632333867398756,0.9613183794918996,0.16784924086368846
1688152525847683,1.6327153429465397,0.9613183794918996,0.2594033722438098
1688152525863663,1.6632333867398756,0.9002822919051141,0.2594033722438098
1688152525879644,1.6632333867398756,0.93080033569845,0.2594033722438098
1688152525895625,1.6021972991530902,0.9613183794918996,0.2899214160372594
1688152525911605,1.6021972991530902,0.9613183794918996,0.2594033722438098
1688152525927586,1.6632333867398756,0.93080033569845,0.22888532845047393
1688152525943567,1.6937514305333252,0.93080033569845,0.22888532845047393
1688152525959548,1.7242694743266611,0.93080033569845,0.2594033722438098
1688152525975494,1.5106431677729688,-0.7171740291447577,0.38147554741738077
1688152525991474,1.6021972991530902,-0.41199359121083035,0.2899214160372594
1688152526007454,1.6937514305333252,0.7476920729380936,0.22888532845047393
1688152526023435,1.6021972991530902,1.0833905546654705,0.3204394598305953
1688152526039415,1.5716792553597543,1.144426642252256,0.2899214160372594
1688152526055395,1.5411612115663047,0.9918364232852355,0.2899214160372594
1688152526071375,1.6021972991530902,1.022354467078685,0.2594033722438098
1688152526087356,1.6021972991530902,1.144426642252256,0.19836728465702436
1688152526103336,1.5411612115663047,1.1139085984588064,0.22888532845047393
1688152526119316,1.4801251239795192,1.0833905546654705,0.3509575036240449
1688152526135296,1.4496070801861833,1.1139085984588064,0.2899214160372594
1688152526151277,1.5106431677729688,1.1749446860455919,0.2594033722438098
1688152526167257,1.5411612115663047,1.144426642252256,0.22888532845047393
1688152526183237,1.5411612115663047,1.0833905546654705,0.2594033722438098
1688152526199217,1.4496070801861833,1.1139085984588064,0.2899214160372594
1688152526215198,1.4190890363927338,1.1749446860455919,0.3204394598305953
1688152526231178,1.4496070801861833,1.1749446860455919,0.3204394598305953
1688152526247158,1.5106431677729688,1.0833905546654705,0.2594033722438098
1688152526263138,1.5106431677729688,1.0833905546654705,0.22888532845047393
1688152526279119,1.5106431677729688,1.144426642252256,0.2899214160372594
1688152526295105,1.5106431677729688,0.9918364232852355,0.3204394598305953
1688152526311085,1.5716792553597543,0.93080033569845,0.2594033722438098
1688152526327065,1.6021972991530902,1.052872510872021,0.2594033722438098
1688152526343045,1.6937514305333252,1.052872510872021,0.2899214160372594
1688152526359026,1.5716792553597543,1.022354467078685,0.3509575036240449
1688152526375006,1.6021972991530902,0.9613183794918996,0.3204394598305953
1688152526390986,1.6021972991530902,0.9918364232852355,0.2594033722438098
1688152526406966,1.6327153429465397,1.0833905546654705,0.2594033722438098
1688152526422947,1.6327153429465397,0.9918364232852355,0.3509575036240449
1688152526438927,1.5716792553597543,0.9613183794918996,0.3204394598305953
1688152526454907,1.6021972991530902,0.9613183794918996,0.2594033722438098
1688152526470887,1.6021972991530902,1.022354467078685,0.2899214160372594
1688152526486868,1.5411612115663047,1.052872510872021,0.2594033722438098
1688152526502848,1.5411612115663047,0.9613183794918996,0.2594033722438098
1688152526518828,1.4801251239795192,0.9613183794918996,0.3204394598305953
1688152526534808,1.5411612115663047,1.052872510872021,0.2899214160372594
1688152526550789,1.5411612115663047,1.0833905546654705,0.2899214160372594
1688152526566769,1.5411612115663047,0.9918364232852355,0.2899214160372594
1688152526582749,1.6327153429465397,0.9918364232852355,0.2594033722438098
1688152526598729,1.6021972991530902,1.022354467078685,0.2899214160372594
1688152526614715,1.6327153429465397,1.0833905546654705,0.2899214160372594
1688152526630695,1.6327153429465397,1.022354467078685,0.2899214160372594
1688152526646676,1.6021972991530902,0.9613183794918996,0.22888532845047393
1688152526662656,1.6021972991530902,1.022354467078685,0.3204394598305953
1688152526678636,1.6327153429465397,1.052872510872021,0.3204394598305953
1688152526694616,1.5716792553597543,1.052872510872021,0.2594033722438098
1688152526710597,1.5716792553597543,0.93080033569845,0.22888532845047393
1688152526726577,1.6632333867398756,1.052872510872021,0.3204394598305953
1688152526742557,1.6632333867398756,1.0833905546654705,0.2899214160372594
1688152526758537,1.6327153429465397,1.052872510872021,0.3204394598305953
1688152526774518,1.6021972991530902,0.93080033569845,0.2594033722438098
1688152526790498,1.5411612115663047,1.052872510872021,0.22888532845047393
1688152526806478,1.5106431677729688,1.0833905546654705,0.2594033722438098
1688152526822458,1.5716792553597543,1.052872510872021,0.2594033722438098
1688152526838439,1.5716792553597543,0.9918364232852355,0.22888532845047393
1688152526854419,1.5716792553597543,1.022354467078685,0.3204394598305953
1688152526870399,1.6327153429465397,1.0833905546654705,0.2594033722438098
1688152526886379,1.6327153429465397,0.9918364232852355,0.2899214160372594
1688152526902360,1.5716792553597543,0.9613183794918996,0.2594033722438098
1688152526918340,1.5716792553597543,1.0833905546654705,0.2594033722438098
1688152526934326,1.6021972991530902,1.1139085984588064,0.2594033722438098
1688152526950306,1.6021972991530902,0.9613183794918996,0.2594033722438098
1688152526966286,1.6327153429465397,0.93080033569845,0.2899214160372594
1688152526982267,1.6021972991530902,0.9918364232852355,0.3509575036240449
1688152526998247,1.5716792553597543,1.052872510872021,0.3204394598305953
1688152527014227,1.5106431677729688,1.022354467078685,0.3204394598305953
1688152527030207,1.6021972991530902,0.9918364232852355,0.3204394598305953
1688152527046188,1.6937514305333252,1.022354467078685,0.2899214160372594
1688152527062168,1.6327153429465397,1.052872510872021,0.2899214160372594
1688152527078148,1.6021972991530902,0.93080033569845,0.2899214160372594
1688152527094128,1.5411612115663047,0.9918364232852355,0.22888532845047393
1688152527110108,1.6021972991530902,1.022354467078685,0.2899214160372594
1688152527126089,1.6327153429465397,1.0833905546654705,0.3204394598305953
1688152527142069,1.6021972991530902,0.9613183794918996,0.2899214160372594
1688152527158049,1.6021972991530902,0.9613183794918996,0.2899214160372594
1688152527174029,1.6021972991530902,1.022354467078685,0.2899214160372594
1688152527190010,1.6327153429465397,1.052872510872021,0.3204394598305953
1688152527205990,1.6327153429465397,1.022354467078685,0.3204394598305953
1688152527221970,1.6327153429465397,0.9613183794918996,0.2899214160372594
1688152527237950,1.5716792553597543,0.9613183794918996,0.19836728465702436
1688152527253906,1.5716792553597543,1.052872510872021,0.3204394598305953
1688152527269886,1.5716792553597543,0.9918364232852355,0.2899214160372594
1688152527285866,1.6327153429465397,0.9613183794918996,0.3204394598305953
1688152527301847,1.6632333867398756,1.022354467078685,0.2899214160372594
1688152527317827,1.6021972991530902,1.052872510872021,0.2594033722438098
1688152527333807,1.5716792553597543,1.022354467078685,0.22888532845047393
1688152527349787,1.6327153429465397,0.9613183794918996,0.2594033722438098
1688152527365768,1.6021972991530902,0.9613183794918996,0.22888532845047393
1688152527381748,1.6327153429465397,1.052872510872021,0.2899214160372594
1688152527397728,1.6327153429465397,1.022354467078685,0.2899214160372594
1688152527413708,1.6021972991530902,0.9613183794918996,0.2899214160372594
1688152527429689,1.5716792553597543,1.022354467078685,0.3204394598305953
1688152527445669,1.6021972991530902,1.144426642252256,0.3509575036240449
1688152527461649,1.6021972991530902,1.052872510872021,0.2899214160372594
1688152527477629,1.5716792553597543,0.9613183794918996,0.2899214160372594
1688152527493610,1.6327153429465397,0.9918364232852355,0.3509575036240449
1688152527509590,1.6327153429465397,1.052872510872021,0.3204394598305953
1688152527525570,1.6021972991530902,1.052872510872021,0.3204394598305953
1688152527541550,1.5106431677729688,0.9918364232852355,0.22888532845047393
1688152527557531,1.6021972991530902,0.93080033569845,0.2899214160372594
1688152527573516,1.6021972991530902,1.052872510872021,0.2899214160372594
1688152527589497,1.5716792553597543,1.022354467078685,0.2899214160372594
1688152527605477,1.5716792553597543,0.9613183794918996,0.2899214160372594
1688152527621457,1.6021972991530902,0.9613183794918996,0.2594033722438098
1688152527637437,1.6021972991530902,1.052872510872021,0.3204394598305953
1688152527653418,1.6327153429465397,0.9918364232852355,0.2899214160372594
1688152527669398,1.6327153429465397,0.93080033569845,0.3204394598305953
1688152527685378,1.6327153429465397,0.9613183794918996,0.2594033722438098
1688152527701358,1.5716792553597543,1.052872510872021,0.22888532845047393
1688152527717339,1.6021972991530902,1.052872510872021,0.2899214160372594
1688152527733319,1.6021972991530902,1.022354467078685,0.2899214160372594
1688152527749299,1.6021972991530902,0.9918364232852355,0.19836728465702436
1688152527765279,1.6021972991530902,1.052872510872021,0.2594033722438098
1688152527781260,1.6021972991530902,1.022354467078685,0.2594033722438098
1688152527797240,1.6021972991530902,0.93080033569845,0.2899214160372594
1688152527813220,1.6021972991530902,0.93080033569845,0.2594033722438098
1688152527829200,1.5716792553597543,1.052872510872021,0.2899214160372594
1688152527845181,1.6021972991530902,1.052872510872021,0.19836728465702436
1688152527861161,1.5716792553597543,0.9613183794918996,0.16784924086368846
1688152527877141,1.5716792553597543,0.9918364232852355,0.2594033722438098
1688152527893127,1.6021972991530902,1.052872510872021,0.2594033722438098
1688152527909107,1.6327153429465397,1.052872510872021,0.2594033722438098
1688152527925088,1.6327153429465397,1.022354467078685,0.2594033722438098
1688152527941068,1.6327153429465397,0.9918364232852355,0.2594033722438098
1688152527957048,1.6021972991530902,1.052872510872021,0.19836728465702436
1688152527973028,1.6327153429465397,1.052872510872021,0.22888532845047393
1688152527989009,1.6327153429465397,0.9918364232852355,0.22888532845047393
1688152528004989,1.6021972991530902,0.9918364232852355,0.2899214160372594
1688152528020969,1.6021972991530902,1.022354467078685,0.2899214160372594
1688152528036949,1.6021972991530902,1.0833905546654705,0.2594033722438098
1688152528052930,1.5716792553597543,0.9918364232852355,0.19836728465702436
1688152528068910,1.5716792553597543,0.93080033569845,0.22888532845047393
1688152528084890,1.6021972991530902,1.022354467078685,0.2594033722438098
1688152528100870,1.5716792553597543,1.052872510872021,0.2594033722438098
1688152528116850,1.6021972991530902,0.9918364232852355,0.3204394598305953
1688152528132831,1.6021972991530902,0.9918364232852355,0.2899214160372594
1688152528148811,1.6021972991530902,1.0833905546654705,0.3204394598305953
1688152528164791,1.6327153429465397,1.022354467078685,0.3204394598305953
1688152528180771,1.6021972991530902,0.9918364232852355,0.22888532845047393
1688152528196752,1.5716792553597543,1.022354467078685,0.22888532845047393
1688152528212707,1.5716792553597543,1.052872510872021,0.2594033722438098
1688152528228687,1.6021972991530902,1.0833905546654705,0.22888532845047393
1688152528244668,1.6327153429465397,0.9918364232852355,0.19836728465702436
1688152528260648,1.6021972991530902,0.9002822919051141,0.22888532845047393
1688152528276628,1.6021972991530902,1.052872510872021,0.2594033722438098
1688152528292608,1.5716792553597543,1.022354467078685,0.2899214160372594
1688152528308589,1.6021972991530902,0.93080033569845,0.22888532845047393
1688152528324569,1.6327153429465397,0.9613183794918996,0.16784924086368846
1688152528340549,1.6021972991530902,1.052872510872021,0.19836728465702436
1688152528356529,1.6021972991530902,1.022354467078685,0.2594033722438098
1688152528372510,1.6327153429465397,1.022354467078685,0.2594033722438098
1688152528388490,1.6021972991530902,1.022354467078685,0.2899214160372594
1688152528404470,1.6327153429465397,1.022354467078685,0.2594033722438098
1688152528420450,1.6327153429465397,1.052872510872021,0.2594033722438098
1688152528436431,1.5716792553597543,0.9613183794918996,0.22888532845047393
1688152528452411,1.6021972991530902,0.9613183794918996,0.19836728465702436
1688152528468391,1.5716792553597543,1.022354467078685,0.22888532845047393
1688152528484371,1.6327153429465397,1.052872510872021,0.16784924086368846
1688152528500352,1.6021972991530902,0.9613183794918996,0.19836728465702436
1688152528516332,1.6327153429465397,0.9613183794918996,0.19836728465702436
1688152528532318,1.6327153429465397,1.052872510872021,0.22888532845047393
1688152528548298,1.5411612115663047,1.052872510872021,0.22888532845047393
1688152528564278,1.5411612115663047,1.022354467078685,0.16784924086368846
1688152528580258,1.6021972991530902,0.9613183794918996,0.16784924086368846
1688152528596239,1.5411612115663047,1.0833905546654705,0.22888532845047393
1688152528612219,1.6021972991530902,1.052872510872021,0.2594033722438098
1688152528628199,1.6021972991530902,1.022354467078685,0.22888532845047393
1688152528644179,1.6021972991530902,0.9613183794918996,0.22888532845047393
1688152528660160,1.6021972991530902,0.9918364232852355,0.2594033722438098
1688152528676140,1.6327153429465397,1.022354467078685,0.2594033722438098
1688152528692120,1.5716792553597543,1.022354467078685,0.2594033722438098
1688152528708100,1.6327153429465397,0.9918364232852355,0.2594033722438098
1688152528724081,1.6327153429465397,1.022354467078685,0.2594033722438098
1688152528740061,1.6021972991530902,1.1139085984588064,0.2594033722438098
1688152528756041,1.5716792553597543,1.052872510872021,0.3204394598305953
1688152528772021,1.6021972991530902,0.9613183794918996,0.2594033722438098
1688152528788002,1.6021972991530902,0.9918364232852355,0.22888532845047393
1688152528803982,1.6327153429465397,1.0833905546654705,0.2899214160372594
1688152528819962,1.5411612115663047,1.022354467078685,0.22888532845047393
1688152528835942,1.5411612115663047,0.9613183794918996,0.3204394598305953
1688152528851959,1.5716792553597543,0.9918364232852355,0.22888532845047393
1688152528867939,1.6021972991530902,1.022354467078685,0.2594033722438098
1688152528883919,1.6021972991530902,1.052872510872021,0.22888532845047393
1688152528899900,1.5716792553597543,0.9918364232852355,0.2594033722438098
1688152528915880,1.5411612115663047,1.022354467078685,0.19836728465702436
1688152528931860,1.6021972991530902,1.0833905546654705,0.22888532845047393
1688152528947840,1.6021972991530902,1.022354467078685,0.19836728465702436
1688152528963821,1.5716792553597543,0.9918364232852355,0.16784924086368846
1688152528979801,1.6021972991530902,0.9918364232852355,0.19836728465702436
1688152528995781,1.6021972991530902,1.022354467078685,0.19836728465702436
1688152529011761,1.5716792553597543,1.022354467078685,0.2594033722438098
1688152529027742,1.5411612115663047,0.9613183794918996,0.22888532845047393
1688152529043722,1.5411612115663047,1.022354467078685,0.22888532845047393
1688152529059702,1.6021972991530902,1.022354467078685,0.2899214160372594
1688152529075682,1.6021972991530902,1.022354467078685,0.2594033722438098
1688152529091663,1.6021972991530902,0.9918364232852355,0.19836728465702436
1688152529107643,1.6021972991530902,1.052872510872021,0.22888532845047393
1688152529123623,1.5716792553597543,1.052872510872021,0.2594033722438098
1688152529139603,1.6021972991530902,0.9918364232852355,0.2899214160372594
1688152529155583,1.6327153429465397,0.9613183794918996,0.2594033722438098
1688152529171539,1.6021972991530902,0.9918364232852355,0.22888532845047393
1688152529187519,1.6021972991530902,1.052872510872021,0.22888532845047393
1688152529203499,1.5106431677729688,1.022354467078685,0.2899214160372594
1688152529219480,1.5716792553597543,0.9613183794918996,0.22888532845047393
1688152529235460,1.6021972991530902,0.9918364232852355,0.2899214160372594
1688152529251440,1.6327153429465397,1.0833905546654705,0.2899214160372594
1688152529267420,1.5411612115663047,1.0833905546654705,0.22888532845047393
1688152529283401,1.5411612115663047,0.9918364232852355,0.2594033722438098
1688152529299381,1.5411612115663047,0.9918364232852355,0.19836728465702436
1688152529315361,1.5411612115663047,1.022354467078685,0.2594033722438098
1688152529331341,1.5716792553597543,1.052872510872021,0.22888532845047393
1688152529347322,1.6632333867398756,0.9918364232852355,0.19836728465702436
1688152529363302,1.5411612115663047,1.022354467078685,0.19836728465702436
1688152529379282,1.6021972991530902,1.052872510872021,0.2594033722438098
1688152529395262,1.6021972991530902,1.022354467078685,0.2899214160372594
1688152529411243,1.6021972991530902,0.9918364232852355,0.2594033722438098
1688152529427223,1.6021972991530902,0.9918364232852355,0.1373311970702389
1688152529443203,1.6327153429465397,1.052872510872021,0.2594033722438098
1688152529459183,1.5716792553597543,1.022354467078685,0.22888532845047393
1688152529475164,1.5716792553597543,0.9918364232852355,0.2899214160372594
1688152529491150,1.5716792553597543,0.9918364232852355,0.2594033722438098
1688152529507130,1.6021972991530902,1.022354467078685,0.2899214160372594
1688152529523110,1.6021972991530902,1.022354467078685,0.2899214160372594
1688152529539090,1.6021972991530902,0.9918364232852355,0.2594033722438098
1688152529555071,1.6021972991530902,0.93080033569845,0.19836728465702436
1688152529571051,1.5716792553597543,0.9918364232852355,0.22888532845047393
1688152529587031,1.6021972991530902,1.022354467078685,0.3204394598305953
1688152529603011,1.5716792553597543,0.9613183794918996,0.19836728465702436
1688152529618991,1.6021972991530902,0.9918364232852355,0.16784924086368846
1688152529634972,1.6021972991530902,1.0833905546654705,0.19836728465702436
1688152529650952,1.6327153429465397,1.052872510872021,0.22888532845047393
1688152529666932,1.5716792553597543,0.9918364232852355,0.2594033722438098
1688152529682912,1.6021972991530902,1.022354467078685,0.22888532845047393
1688152529698893,1.5716792553597543,1.052872510872021,0.2594033722438098
1688152529714873,1.5716792553597543,1.052872510872021,0.22888532845047393
1688152529730853,1.6327153429465397,0.9613183794918996,0.1373311970702389
1688152529746833,1.6327153429465397,1.022354467078685,0.16784924086368846
1688152529762814,1.6632333867398756,1.0833905546654705,0.19836728465702436
1688152529778794,1.6021972991530902,1.022354467078685,0.22888532845047393
1688152529794774,1.5716792553597543,0.9918364232852355,0.2594033722438098
1688152529810760,1.6327153429465397,0.93080033569845,0.19836728465702436
1688152529826740,1.6327153429465397,0.9918364232852355,0.22888532845047393
1688152529842721,1.6327153429465397,1.052872510872021,0.19836728465702436
1688152529858701,1.6021972991530902,1.022354467078685,0.22888532845047393
1688152529874681,1.6021972991530902,0.9613183794918996,0.22888532845047393
1688152529890661,1.6021972991530902,0.9918364232852355,0.2594033722438098
1688152529906642,1.6632333867398756,1.052872510872021,0.19836728465702436
1688152529922622,1.6632333867398756,0.9613183794918996,0.2594033722438098
1688152529938602,1.6021972991530902,0.93080033569845,0.19836728465702436
1688152529954582,1.6327153429465397,1.052872510872021,0.2594033722438098
1688152529970563,1.5411612115663047,1.0833905546654705,0.2594033722438098
1688152529986543,1.5716792553597543,0.9918364232852355,0.2594033722438098
1688152530002523,1.5716792553597543,0.9918364232852355,0.2594033722438098
1688152530018503,1.6021972991530902,0.9918364232852355,0.2899214160372594
1688152530034484,1.5716792553597543,1.0833905546654705,0.22888532845047393
1688152530050464,1.6021972991530902,0.9918364232852355,0.22888532845047393
1688152530066444,1.5716792553597543,0.9002822919051141,0.2594033722438098
1688152530082424,1.5411612115663047,1.022354467078685,0.2594033722438098
1688152530098405,1.6021972991530902,1.052872510872021,0.2594033722438098
1688152530114385,1.5716792553597543,0.9918364232852355,0.22888532845047393
1688152530130340,1.5716792553597543,0.9918364232852355,0.22888532845047393
1688152530146320,1.6021972991530902,1.022354467078685,0.2594033722438098
1688152530162301,1.6021972991530902,1.0833905546654705,0.2594033722438098
1688152530178281,1.5716792553597543,0.9613183794918996,0.22888532845047393
1688152530194261,1.5716792553597543,0.9613183794918996,0.19836728465702436
1688152530210241,1.5411612115663047,1.022354467078685,0.19836728465702436
1688152530226222,1.6327153429465397,1.052872510872021,0.19836728465702436
1688152530242202,1.5716792553597543,0.9613183794918996,0.22888532845047393
1688152530258182,1.6021972991530902,0.9002822919051141,0.2594033722438098
1688152530274162,1.6021972991530902,1.052872510872021,0.2594033722438098
1688152530290143,1.6632333867398756,1.052872510872021,0.22888532845047393
1688152530306123,1.6632333867398756,0.9918364232852355,0.22888532845047393
1688152530322103,1.6632333867398756,0.9918364232852355,0.19836728465702436
1688152530338083,1.6632333867398756,1.052872510872021,0.19836728465702436
1688152530354064,1.6327153429465397,1.0833905546654705,0.22888532845047393
1688152530370044,1.6021972991530902,0.9918364232852355,0.2594033722438098
1688152530386024,1.5411612115663047,0.9918364232852355,0.2594033722438098
1688152530402004,1.6021972991530902,1.052872510872021,0.22888532845047393
1688152530417985,1.6632333867398756,1.0833905546654705,0.22888532845047393
1688152530433965,1.6021972991530902,1.052872510872021,0.2899214160372594
1688152530449951,1.5716792553597543,1.022354467078685,0.2594033722438098
1688152530465931,1.6021972991530902,1.022354467078685,0.2594033722438098
1688152530481911,1.6021972991530902,1.1139085984588064,0.2594033722438098
1688152530497892,1.6021972991530902,1.022354467078685,0.2899214160372594
1688152530513872,1.6632333867398756,0.93080033569845,0.22888532845047393
1688152530529852,1.6021972991530902,0.9918364232852355,0.19836728465702436
1688152530545832,1.6021972991530902,1.052872510872021,0.22888532845047393
1688152530561813,1.5716792553597543,0.9918364232852355,0.22888532845047393
1688152530577793,1.6021972991530902,0.9613183794918996,0.2594033722438098
1688152530593773,1.6327153429465397,0.9918364232852355,0.2594033722438098
1688152530609753,1.6021972991530902,1.0833905546654705,0.3509575036240449
1688152530625733,1.6327153429465397,1.052872510872021,0.2899214160372594
1688152530641714,1.5716792553597543,1.022354467078685,0.22888532845047393
1688152530657694,1.6021972991530902,1.022354467078685,0.19836728465702436
1688152530673674,1.6021972991530902,1.052872510872021,0.2594033722438098
1688152530689654,1.5411612115663047,1.022354467078685,0.2594033722438098
1688152530705635,1.5411612115663047,0.93080033569845,0.2594033722438098
1688152530721615,1.5716792553597543,0.9613183794918996,0.19836728465702436
1688152530737595,1.6021972991530902,1.022354467078685,0.19836728465702436
1688152530753575,1.6021972991530902,1.022354467078685,0.2594033722438098
1688152530769531,1.6021972991530902,1.022354467078685,0.22888532845047393
1688152530785511,1.6021972991530902,0.9918364232852355,0.2899214160372594
1688152530801491,1.6327153429465397,1.052872510872021,0.2594033722438098
1688152530817472,1.6327153429465397,0.9918364232852355,0.22888532845047393
1688152530833452,1.5716792553597543,0.9002822919051141,0.2899214160372594
1688152530849432,1.5716792553597543,0.9918364232852355,0.2594033722438098
1688152530865412,1.5716792553597543,0.9918364232852355,0.22888532845047393
1688152530881393,1.6327153429465397,0.9918364232852355,0.2899214160372594
1688152530897373,1.6021972991530902,0.9918364232852355,0.2899214160372594
1688152530913353,1.6021972991530902,1.022354467078685,0.2899214160372594
1688152530929333,1.5716792553597543,1.052872510872021,0.3204394598305953
1688152530945314,1.6021972991530902,1.022354467078685,0.2594033722438098
1688152530961294,1.6021972991530902,0.9613183794918996,0.19836728465702436
1688152530977274,1.5411612115663047,0.9613183794918996,0.19836728465702436
1688152530993254,1.5411612115663047,1.052872510872021,0.22888532845047393
1688152531009235,1.5716792553597543,1.022354467078685,0.2594033722438098
1688152531025215,1.6021972991530902,0.9613183794918996,0.19836728465702436
1688152531041195,1.5716792553597543,0.9918364232852355,0.16784924086368846
1688152531057175,1.6327153429465397,1.022354467078685,0.22888532845047393
1688152531073156,1.5716792553597543,1.022354467078685,0.22888532845047393
1688152531089141,1.5411612115663047,0.9613183794918996,0.19836728465702436
1688152531105122,1.6021972991530902,0.9613183794918996,0.16784924086368846
1688152531121102,1.6327153429465397,1.022354467078685,0.22888532845047393
1688152531137082,1.6632333867398756,0.9613183794918996,0.19836728465702436
1688152531153062,1.5716792553597543,0.9918364232852355,0.19836728465702436
1688152531169043,1.5411612115663047,0.9918364232852355,0.19836728465702436
1688152531185023,1.6021972991530902,0.9918364232852355,0.2594033722438098
1688152531201003,1.5716792553597543,1.022354467078685,0.2594033722438098
1688152531216983,1.5716792553597543,1.022354467078685,0.2594033722438098
1688152531232964,1.5716792553597543,0.9613183794918996,0.2594033722438098
1688152531248944,1.5411612115663047,1.022354467078685,0.22888532845047393
1688152531264924,1.5106431677729688,1.052872510872021,0.2594033722438098
1688152531280904,1.5106431677729688,0.9918364232852355,0.2594033722438098
1688152531296885,1.5716792553597543,1.022354467078685,0.2594033722438098
1688152531312865,1.6021972991530902,1.022354467078685,0.2594033722438098
1688152531328845,1.6327153429465397,1.022354467078685,0.22888532845047393
1688152531344825,1.6327153429465397,0.9918364232852355,0.22888532845047393
1688152531360806,1.6021972991530902,0.9918364232852355,0.19836728465702436
1688152531376786,1.5716792553597543,0.9918364232852355,0.2594033722438098
1688152531392766,1.6021972991530902,1.022354467078685,0.22888532845047393
1688152531408752,1.5716792553597543,0.9918364232852355,0.22888532845047393
1688152531424732,1.5716792553597543,1.022354467078685,0.22888532845047393
1688152531440713,1.6021972991530902,1.052872510872021,0.2594033722438098
1688152531456693,1.6021972991530902,1.022354467078685,0.2594033722438098
1688152531472673,1.5716792553597543,0.9918364232852355,0.2899214160372594
1688152531488653,1.6021972991530902,1.022354467078685,0.2899214160372594
1688152531504634,1.5716792553597543,1.0833905546654705,0.2899214160372594
1688152531520614,1.6021972991530902,1.052872510872021,0.2899214160372594
1688152531536594,1.6021972991530902,0.9918364232852355,0.22888532845047393
1688152531552574,1.5716792553597543,0.9613183794918996,0.16784924086368846
1688152531568555,1.5716792553597543,1.052872510872021,0.22888532845047393
1688152531584535,1.5411612115663047,1.0833905546654705,0.3204394598305953
1688152531600515,1.6021972991530902,1.052872510872021,0.22888532845047393
1688152531616495,1.6021972991530902,0.9613183794918996,0.19836728465702436
1688152531632475,1.5716792553597543,1.022354467078685,0.22888532845047393
1688152531648456,1.6021972991530902,1.022354467078685,0.22888532845047393
1688152531664436,1.6327153429465397,1.022354467078685,0.22888532845047393
1688152531680416,1.5716792553597543,1.022354467078685,0.22888532845047393
1688152531696396,1.5716792553597543,1.052872510872021,0.19836728465702436
1688152531712377,1.6327153429465397,1.052872510872021,0.19836728465702436
1688152531728332,1.5716792553597543,1.022354467078685,0.2594033722438098
1688152531744312,1.6021972991530902,0.9613183794918996,0.19836728465702436
1688152531760293,1.6021972991530902,0.9918364232852355,0.2594033722438098
1688152531776273,1.6327153429465397,0.9918364232852355,0.2899214160372594
1688152531792253,1.6021972991530902,0.9918364232852355,0.2594033722438098
1688152531808233,1.6021972991530902,0.93080033569845,0.16784924086368846
1688152531824214,1.6327153429465397,1.052872510872021,0.22888532845047393
1688152531840194,1.6021972991530902,1.0833905546654705,0.22888532845047393
1688152531856174,1.6021972991530902,1.022354467078685,0.2899214160372594
1688152531872154,1.5411612115663047,0.9918364232852355,0.2899214160372594
1688152531888135,1.5716792553597543,0.9918364232852355,0.2899214160372594
1688152531904115,1.5716792553597543,1.022354467078685,0.22888532845047393
1688152531920095,1.5716792553597543,0.9613183794918996,0.2594033722438098
1688152531936075,1.5411612115663047,0.9613183794918996,0.19836728465702436
1688152531952056,1.6327153429465397,1.022354467078685,0.22888532845047393
1688152531968036,1.5716792553597543,1.052872510872021,0.22888532845047393
1688152531984016,1.5716792553597543,1.022354467078685,0.22888532845047393
1688152531999996,1.6021972991530902,0.93080033569845,0.2594033722438098
1688152532015977,1.6021972991530902,1.022354467078685,0.2594033722438098
1688152532031957,1.6327153429465397,1.022354467078685,0.22888532845047393
1688152532047943,1.6632333867398756,0.9918364232852355,0.22888532845047393
1688152532063923,1.6021972991530902,0.9613183794918996,0.22888532845047393
1688152532079903,1.5716792553597543,0.9918364232852355,0.2899214160372594
1688152532095883,1.6632333867398756,1.0833905546654705,0.22888532845047393
1688152532111864,1.6327153429465397,0.9918364232852355,0.22888532845047393
1688152532127844,1.6021972991530902,0.9613183794918996,0.19836728465702436
1688152532143824,1.6021972991530902,0.9918364232852355,0.22888532845047393
1688152532159804,1.5716792553597543,1.052872510872021,0.22888532845047393
1688152532175785,1.5716792553597543,1.022354467078685,0.19836728465702436
1688152532191765,1.5716792553597543,1.022354467078685,0.19836728465702436
1688152532207745,1.5411612115663047,1.022354467078685,0.22888532845047393
1688152532223725,1.5716792553597543,0.9918364232852355,0.22888532845047393
1688152532239706,1.5411612115663047,0.9613183794918996,0.2594033722438098
1688152532255686,1.6021972991530902,0.9613183794918996,0.19836728465702436
1688152532271666,1.6327153429465397,1.022354467078685,0.2594033722438098
1688152532287646,1.5716792553597543,1.052872510872021,0.22888532845047393
1688152532303627,1.6021972991530902,0.9918364232852355,0.22888532845047393
1688152532319607,1.5411612115663047,0.9613183794918996,0.19836728465702436
1688152532335587,1.6327153429465397,0.9918364232852355,0.22888532845047393
1688152532351567,1.5716792553597543,0.9918364232852355,0.19836728465702436
1688152532367523,1.5411612115663047,0.9918364232852355,0.19836728465702436
1688152532383503,1.5411612115663047,0.9613183794918996,0.2594033722438098
1688152532399483,1.6327153429465397,1.022354467078685,0.22888532845047393
1688152532415464,1.6327153429465397,1.0833905546654705,0.2594033722438098
1688152532431444,1.6021972991530902,1.052872510872021,0.2594033722438098
1688152532447424,1.6021972991530902,1.022354467078685,0.22888532845047393
1688152532463404,1.6327153429465397,0.9918364232852355,0.22888532845047393
1688152532479385,1.6327153429465397,1.022354467078685,0.2899214160372594
1688152532495365,1.6327153429465397,1.022354467078685,0.2594033722438098
1688152532511345,1.6021972991530902,0.9918364232852355,0.16784924086368846
1688152532527325,1.5716792553597543,0.9918364232852355,0.22888532845047393
1688152532543305,1.5716792553597543,1.022354467078685,0.2594033722438098
1688152532559286,1.5716792553597543,0.9918364232852355,0.22888532845047393
1688152532575266,1.6021972991530902,0.93080033569845,0.16784924086368846
1688152532591246,1.5716792553597543,0.9918364232852355,0.22888532845047393
1688152532607226,1.5411612115663047,1.022354467078685,0.22888532845047393
1688152532623207,1.6021972991530902,1.022354467078685,0.22888532845047393
1688152532639187,1.5716792553597543,0.9918364232852355,0.22888532845047393
1688152532655167,1.5411612115663047,0.9918364232852355,0.2899214160372594
1688152532671147,1.5716792553597543,1.052872510872021,0.19836728465702436
1688152532687133,1.5716792553597543,1.022354467078685,0.19836728465702436
1688152532703114,1.5716792553597543,0.9918364232852355,0.2594033722438098
1688152532719094,1.6021972991530902,0.9918364232852355,0.22888532845047393
1688152532735074,1.5411612115663047,1.052872510872021,0.2594033722438098
1688152532751054,1.5106431677729688,1.022354467078685,0.19836728465702436
1688152532767035,1.5411612115663047,0.93080033569845,0.22888532845047393
1688152532783015,1.5716792553597543,0.9613183794918996,0.22888532845047393
1688152532798995,1.6021972991530902,1.052872510872021,0.2594033722438098
1688152532814975,1.5716792553597543,1.052872510872021,0.2594033722438098
1688152532830956,1.5716792553597543,0.9613183794918996,0.22888532845047393
1688152532846936,1.5106431677729688,1.022354467078685,0.19836728465702436
1688152532862916,1.5716792553597543,1.0833905546654705,0.19836728465702436
1688152532878896,1.6021972991530902,1.052872510872021,0.2594033722438098
1688152532894877,1.5411612115663047,0.9918364232852355,0.16784924086368846
1688152532910857,1.6327153429465397,1.022354467078685,0.22888532845047393
1688152532926837,1.6327153429465397,1.022354467078685,0.3204394598305953
1688152532942817,1.6021972991530902,1.022354467078685,0.22888532845047393
1688152532958798,1.6021972991530902,0.9613183794918996,0.2594033722438098
1688152532974778,1.6021972991530902,1.052872510872021,0.22888532845047393
1688152532990758,1.6021972991530902,1.052872510872021,0.19836728465702436
1688152533006713,1.5716792553597543,1.022354467078685,0.2594033722438098
1688152533022694,1.5716792553597543,0.9613183794918996,0.2899214160372594
1688152533038674,1.5716792553597543,0.9918364232852355,0.22888532845047393
1688152533054654,1.6021972991530902,1.022354467078685,0.22888532845047393
1688152533070634,1.5716792553597543,1.052872510872021,0.2594033722438098
1688152533086615,1.5716792553597543,1.022354467078685,0.22888532845047393
1688152533102595,1.6021972991530902,0.9918364232852355,0.19836728465702436
1688152533118575,1.6021972991530902,1.052872510872021,0.22888532845047393
1688152533134555,1.5716792553597543,1.022354467078685,0.2594033722438098
1688152533150536,1.5716792553597543,0.93080033569845,0.2594033722438098
1688152533166516,1.5106431677729688,0.9613183794918996,0.22888532845047393
1688152533182496,1.5411612115663047,1.052872510872021,0.2899214160372594
1688152533198476,1.5411612115663047,1.052872510872021,0.22888532845047393
1688152533214457,1.5106431677729688,0.9918364232852355,0.22888532845047393
1688152533230437,1.5716792553597543,1.022354467078685,0.19836728465702436
1688152533246417,1.5411612115663047,1.0833905546654705,0.19836728465702436
1688152533262397,1.5411612115663047,1.052872510872021,0.16784924086368846
1688152533278378,1.6327153429465397,1.022354467078685,0.16784924086368846
1688152533294358,1.6021972991530902,0.9613183794918996,0.19836728465702436
1688152533310338,1.6327153429465397,0.9918364232852355,0.22888532845047393
1688152533326355,1.5106431677729688,1.022354467078685,0.19836728465702436
1688152533342335,1.5411612115663047,0.9918364232852355,0.22888532845047393
1688152533358315,1.5411612115663047,0.9918364232852355,0.2594033722438098
1688152533374295,1.5411612115663047,1.0833905546654705,0.2594033722438098
1688152533390276,1.5716792553597543,1.0833905546654705,0.22888532845047393
1688152533406256,1.6021972991530902,0.9918364232852355,0.2594033722438098
1688152533422236,1.5106431677729688,0.93080033569845,0.22888532845047393
1688152533438216,1.5106431677729688,1.052872510872021,0.2594033722438098
1688152533454197,1.5411612115663047,1.0833905546654705,0.22888532845047393
1688152533470177,1.5411612115663047,0.9918364232852355,0.2899214160372594
1688152533486157,1.5411612115663047,0.9613183794918996,0.2594033722438098
1688152533502137,1.6021972991530902,0.9918364232852355,0.16784924086368846
1688152533518118,1.6327153429465397,1.022354467078685,0.22888532845047393
1688152533534098,1.6327153429465397,0.9918364232852355,0.2899214160372594
1688152533550078,1.5716792553597543,0.9613183794918996,0.22888532845047393
1688152533566058,1.6327153429465397,1.022354467078685,0.2594033722438098
1688152533582039,1.6021972991530902,1.052872510872021,0.22888532845047393
1688152533598019,1.5411612115663047,0.9918364232852355,0.22888532845047393
1688152533613999,1.5411612115663047,0.9918364232852355,0.19836728465702436
1688152533629979,1.5716792553597543,1.0833905546654705,0.19836728465702436
1688152533645935,1.5716792553597543,1.052872510872021,0.22888532845047393
1688152533661915,1.5716792553597543,1.022354467078685,0.22888532845047393
